"Time (s)","Linear Acceleration x (m/s^2)","Linear Acceleration y (m/s^2)","Linear Acceleration z (m/s^2)","Absolute acceleration (m/s^2)"
8.062083507E-4,2.668994475E-1,4.538548855E-1,3.262114835E-1,6.193815498E-1
1.081020827E-2,1.235755672E-1,8.622872112E-1,-5.556784451E-1,1.033241835E0
2.081520832E-2,2.535206527E-2,1.043834998E0,-1.276198086E0,1.648913516E0
3.081920836E-2,-1.426811982E-2,7.986398303E-1,-1.559099243E0,1.751804671E0
4.082320828E-2,7.047813479E-2,3.387713027E-1,-1.160523788E0,1.211011406E0
5.082720832E-2,1.384435383E-1,-1.192377372E-1,-3.105058622E-1,3.602750918E-1
6.083120836E-2,5.638144802E-2,-5.041823823E-1,5.634295142E-1,7.581764701E-1
7.083520829E-2,-1.461068626E-1,-6.773644115E-1,1.213652174E0,1.397541184E0
8.084020833E-2,-1.122139521E-1,-6.230115453E-1,1.264486697E0,1.414094044E0
9.084420837E-2,4.518775765E-2,-3.653843931E-1,8.226494479E-1,9.012767623E-1
1.008482083E-1,6.741547287E-2,-1.091503400E-1,9.317187309E-2,1.585548506E-1
1.108522083E-1,1.983867081E-1,3.081843714E-1,-6.474569267E-1,7.439995730E-1
1.208562084E-1,2.737597298E-1,6.241971414E-1,-1.133314939E0,1.322485997E0
1.308602083E-1,1.897815070E-1,5.758445783E-1,-1.111320637E0,1.265957171E0
1.408652083E-1,1.329075772E-1,3.136452689E-1,-8.081495225E-1,8.770082266E-1
1.508692083E-1,9.376185715E-2,1.004077659E-1,-3.662450302E-1,3.911629167E-1
1.608732083E-1,1.360279804E-1,-5.497380394E-2,2.325145304E-1,2.749340602E-1
1.708772084E-1,1.793701741E-1,-2.067961005E-1,6.900574011E-1,7.423728870E-1
1.808812083E-1,2.340790626E-1,-2.511909392E-1,8.380305487E-1,9.056407102E-1
1.908852083E-1,3.427349475E-1,-1.912323108E-1,7.995669794E-1,8.906988242E-1
2.008892084E-1,4.707352490E-1,-8.131022969E-2,5.854384339E-1,7.556065034E-1
2.108942083E-1,4.076789119E-1,-1.114183288E-2,3.502382773E-1,5.375807721E-1
2.208982083E-1,1.708426679E-1,-1.605551863E-1,1.226219594E-2,2.347670046E-1
2.309022084E-1,-2.406265006E-1,-1.842863668E-1,-1.058574075E-1,3.210426272E-1
2.409062083E-1,-5.143822653E-1,-2.364334805E-1,-8.887241542E-2,5.730516659E-1
2.509102083E-1,-5.769218547E-1,-4.771561861E-1,-1.141510981E-1,7.573290735E-1
2.609142084E-1,-4.272493965E-1,-4.900515990E-1,1.526485813E-1,6.678279762E-1
2.709192083E-1,-3.273649199E-1,-5.375095015E-2,3.234445810E-1,4.633285577E-1
2.809232083E-1,-3.094441175E-1,-1.927796623E-2,1.025244945E-1,3.265556213E-1
2.909272084E-1,-2.056186906E-1,-9.948572396E-2,1.654294252E-2,2.290199208E-1
3.009312083E-1,-1.256137239E-1,-1.945686407E-1,-3.867114544E-2,2.348003856E-1
3.109352083E-1,-2.021555127E-1,-2.250537391E-1,-4.212392628E-2,3.054348735E-1
3.209392084E-1,-2.478438833E-1,-1.970977259E-1,1.940398514E-2,3.172548167E-1
3.309432083E-1,-1.924940669E-1,-1.985323951E-1,2.076264417E-1,3.458002559E-1
3.409482084E-1,-7.192331982E-2,-1.521820465E-1,3.577303147E-1,3.953521434E-1
3.509522083E-1,-8.202094962E-3,-8.221256470E-2,4.181712288E-1,4.262550372E-1
3.609562083E-1,-5.436914703E-3,-9.965976086E-3,3.699024636E-1,3.700766316E-1
3.709602084E-1,3.908052363E-2,2.019842075E-2,2.403310883E-1,2.443241608E-1
3.809642083E-1,9.251746003E-2,1.205156827E-2,2.222468197E-2,9.590963036E-2
3.909682083E-1,1.674346548E-1,4.586395159E-2,-1.821425217E-1,2.516222643E-1
4.009732084E-1,2.272216308E-1,2.150923859E-2,-2.226765901E-1,3.188685946E-1
4.109772083E-1,1.778680975E-1,9.340481155E-2,2.523833692E-2,2.024808449E-1
4.209812083E-1,1.359643919E-1,1.625318010E-1,3.168951148E-1,3.812157079E-1
4.309852084E-1,-9.616188336E-2,-1.217306976E-1,3.153181207E-1,3.514128452E-1
4.409892083E-1,-4.384457912E-1,-4.700134833E-1,1.722016704E-1,6.654327927E-1
4.509932083E-1,-5.609736105E-1,-4.626439085E-1,7.580546719E-1,1.050417852E0
4.609972084E-1,-6.319960114E-1,-1.852617920E-1,1.511276035E0,1.648543644E0
4.710022083E-1,-2.893277588E-1,-1.488243926E-1,-1.978183222E-1,3.807772845E-1
4.810062083E-1,-5.969385915E-3,-1.464294096E-1,2.928583807E-1,3.274801318E-1
4.910102084E-1,1.035629600E-2,1.100920707E-1,5.065431225E-1,5.184722286E-1
5.010142083E-1,-1.012402998E-1,4.034636907E-1,6.609563935E-1,7.809583229E-1
5.110182083E-1,-7.499833216E-1,2.891092556E-1,3.801345062E-1,8.891351906E-1
5.210222083E-1,-1.152332350E0,-5.890216076E-1,-5.392770052E-1,1.402011408E0
5.310272083E-1,-3.561339518E-1,-3.737743436E-1,-4.092729360E-1,6.588193893E-1
5.410312084E-1,-4.301248379E-1,-1.648460558E-1,4.301849180E-1,6.302703087E-1
5.510352083E-1,-1.841855974E0,-3.971456645E-1,7.900249082E-1,2.043109753E0
5.610392083E-1,-1.054806860E0,-9.046263881E-2,6.951947647E-1,1.266529416E0
5.710432084E-1,2.772837371E-1,1.680857422E-1,1.501232273E0,1.535850717E0
5.810472083E-1,7.269126937E-1,5.088669888E-1,3.047231414E0,3.173793781E0
5.910522083E-1,1.080422196E0,5.310591090E-1,3.638836906E0,3.832814883E0
6.010562084E-1,9.168843448E-1,-5.962828628E-1,5.185224887E0,5.299319511E0
6.110602083E-1,2.811662883E-1,-1.913375607E0,4.849746736E0,5.221120962E0
6.210642083E-1,-8.411298653E-1,-4.243172664E0,3.894398822E0,5.820511652E0
6.310682084E-1,-2.616098077E0,-5.997914187E0,2.281356676E0,6.929901300E0
6.410722083E-1,-6.060096402E0,-6.303694915E0,1.174458872E0,8.822737196E0
6.510762083E-1,-7.892513216E0,-5.051339436E0,1.005433994E0,9.424366953E0
6.610812084E-1,-4.290461143E0,-4.926452265E0,9.756623107E-1,6.605293762E0
6.710852083E-1,-1.827912118E0,-5.440060578E0,1.110266969E0,5.845358376E0
6.810892083E-1,-1.252738472E0,-4.621254213E0,5.025968367E-1,4.814348113E0
6.910932083E-1,-3.196649408E-1,-3.218266565E0,-2.158265769E-1,3.241297035E0
7.010972083E-1,1.192761242E0,-2.388998361E0,6.941218007E-1,2.758948644E0
7.111012083E-1,1.981978065E-1,-2.957944431E0,2.542445964E0,3.905476809E0
7.211062083E-1,-9.150892496E-1,-4.568817844E0,2.536684118E0,5.305304058E0
7.311102083E-1,-1.058680494E0,-5.313293527E0,9.406953764E-1,5.498799895E0
7.411142084E-1,-2.879375979E0,-7.097091327E0,-5.852934229E-1,7.681281125E0
7.511182083E-1,-3.949873695E0,-7.076872825E0,-1.924906316E0,8.329999731E0
7.611222083E-1,-2.302952782E0,-4.950654475E0,-3.456190939E0,6.462029639E0
7.711262084E-1,7.661448795E-1,-2.484534848E0,-6.175685331E0,6.700670167E0
7.811302083E-1,4.056546205E0,9.509063691E-1,-1.068408156E1,1.146775430E1
7.911352083E-1,1.073555810E1,6.408769380E0,-1.779443963E1,2.174779563E1
8.011392084E-1,1.092446995E1,9.407851896E0,-1.540864584E1,2.110161339E1
8.111432083E-1,6.466552734E0,7.268193136E0,-7.571821504E0,1.232783098E1
8.211472083E-1,3.654139654E0,3.092761928E0,-4.344257281E0,6.464556000E0
8.311512084E-1,-1.173875320E-1,-7.751009135E-1,-2.321202527E0,2.450008659E0
8.411552083E-1,-4.188016756E0,-2.233691051E0,-5.239204627E-1,4.775285615E0
8.511602083E-1,-5.939935536E0,-1.680357485E0,2.724451661E-1,6.179050236E0
8.611642083E-1,-6.446118470E0,-6.688020413E-1,-3.217974204E-1,6.488705039E0
8.711682083E-1,-5.795865405E0,7.205737272E-1,-9.147808090E-1,5.911692331E0
8.811722083E-1,-5.235340202E0,1.987940471E0,-1.135889761E0,5.714100095E0
8.911762083E-1,-2.679004177E0,3.121720556E0,3.243231252E-1,4.126425584E0
9.011802083E-1,1.061115274E0,4.094339683E0,1.798100382E0,4.595949091E0
9.111842084E-1,2.986145552E0,4.400206364E0,2.494574225E-1,5.323636944E0
9.211892083E-1,5.919217681E0,4.479968233E0,-2.067272861E0,7.705898417E0
9.311932083E-1,6.828880715E0,2.762416171E0,-2.618470877E-2,7.366494455E0
9.411972084E-1,6.950488182E0,8.121870250E-1,2.243303435E0,7.348560678E0
9.512012083E-1,4.909460841E0,-4.896630880E-1,1.970710480E0,5.312840623E0
9.612052083E-1,3.106430379E0,-9.298932302E-1,1.246789368E0,3.474060283E0
9.712092084E-1,1.927425882E0,-1.376322883E0,6.744370030E-1,2.462539437E0
9.812135000E-1,5.773751235E-1,-1.875028397E0,3.184680158E-1,1.987590351E0
9.912185000E-1,-5.268124956E-1,-2.563595343E0,8.208159073E-1,2.742861871E0
1.001222500E0,-1.255096654E0,-2.553570292E0,1.268205526E0,3.115178021E0
1.011226500E0,-2.045323876E0,-2.199708495E0,7.862446833E-1,3.104874864E0
1.021230500E0,-2.642701739E0,-2.316973236E0,-4.638537705E-1,3.545052577E0
1.031234500E0,-3.768551538E0,-2.164020599E0,-6.733893281E-1,4.397546934E0
1.041238500E0,-3.767438813E0,-9.274257052E-1,-8.040845382E-1,3.962356066E0
1.051243500E0,-2.389703243E0,-2.307381463E-1,6.238745213E-1,2.480552579E0
1.061247500E0,1.052292995E0,2.166475845E0,8.243346155E-1,2.545675881E0
1.071251500E0,2.303328173E0,4.353091255E0,-1.481140655E-1,4.927135265E0
1.081255500E0,2.543475074E0,4.757873529E0,-1.126670748E0,5.511443817E0
1.091259500E0,8.791241956E-1,3.813160531E0,-1.181236964E0,4.087587718E0
1.101263500E0,1.240597898E-1,2.790948536E0,-8.283656859E-1,2.913927637E0
1.111267500E0,7.806184924E-1,2.981301134E0,-5.743491894E-1,3.134868206E0
1.121272500E0,8.965658551E-1,3.585339561E0,1.687570757E-1,3.699590389E0
1.131276500E0,1.162008396E0,4.293374226E0,5.705297881E-1,4.484287011E0
1.141280500E0,1.615737128E0,4.926370404E0,5.602591538E-1,5.214750439E0
1.151284500E0,1.539095918E0,4.839382546E0,-6.344754776E-2,5.078628285E0
1.161288500E0,1.661756469E0,4.870838227E0,-4.916327226E-1,5.169932527E0
1.171292500E0,1.490416093E0,6.128547417E0,-2.433687168E-1,6.311866753E0
1.181296500E0,1.307170494E0,3.303555222E0,-1.693493401E0,3.935745381E0
1.191301500E0,9.033211434E-1,1.433461289E0,-1.590896401E0,2.324166887E0
1.201305500E0,-9.509914461E-1,-6.362776351E-1,4.898463982E-1,1.244661984E0
1.211309500E0,-2.607389819E0,-6.406358573E0,-1.930224359E-1,6.919333024E0
1.221313500E0,-1.621572357E0,-7.669979298E0,-4.202652921E0,8.894963232E0
1.231317500E0,2.053985064E0,7.265539670E-1,-1.288674874E0,2.531287862E0
1.241321500E0,3.056424699E0,1.953964055E-1,1.864205201E0,3.585411096E0
1.251326500E0,1.355382249E0,-3.921351562E0,5.583125573E0,6.955957898E0
1.261330500E0,-1.589306543E0,-6.704195858E0,6.789228407E0,9.672939561E0
1.271334500E0,-4.174101259E0,-4.757365991E0,3.416366723E0,7.192163380E0
1.281338500E0,-1.478766978E0,-2.675437376E0,-4.828420186E-1,3.094810712E0
1.291342500E0,1.102170037E0,-1.709164524E0,-1.512165982E0,2.534298348E0
1.301346500E0,1.135898824E0,-1.335332147E0,-8.261730532E-1,1.938024766E0
1.311350500E0,5.861643657E-1,-5.011940897E-2,-4.450052708E-1,7.376518893E-1
1.321355500E0,4.429312634E-1,1.848814745E0,-6.865110648E-1,2.021287092E0
1.331359500E0,3.441478175E-1,3.099208483E0,-7.100618953E-1,3.198080493E0
1.341363500E0,6.778051454E-1,3.538796309E0,-8.810023212E-1,3.709267343E0
1.351367500E0,5.151844302E-1,4.003416064E0,-6.134723977E-1,4.082781352E0
1.361371500E0,5.897492936E-1,5.393657075E0,6.395660361E-1,5.463367605E0
1.371375500E0,1.308139086E-2,5.190352310E0,2.526611120E0,5.772667665E0
1.381379500E0,3.800242862E-1,5.091278257E0,2.970765620E0,5.906858820E0
1.391384500E0,6.290343967E-1,4.956959528E0,1.674125669E0,5.269708606E0
1.401388500E0,4.482721102E-1,4.099927282E0,-9.957866728E-1,4.242869631E0
1.411392500E0,1.292975794E-1,2.944967120E0,-1.789895861E0,3.448662987E0
1.421396500E0,1.989237383E-1,1.650262597E0,-7.245928109E-1,1.813276602E0
1.431400500E0,-3.583374019E-1,2.079007346E0,-9.771340549E-1,2.324966279E0
1.441404500E0,-1.709360406E-2,2.623255654E0,2.646953030E-1,2.636631567E0
1.451409500E0,2.029472074E-1,2.398554758E0,-1.220610945E0,2.698915259E0
1.461413500E0,-1.440027713E0,2.985155033E0,-1.757340903E0,3.751410060E0
1.471417500E0,-2.413137714E0,2.981048534E0,-7.620033697E-1,3.910311129E0
1.481421500E0,-2.077741424E0,2.984850978E0,5.160881174E-1,3.673239950E0
1.491425500E0,-2.197168026E0,3.212097752E0,1.263267553E0,4.091572340E0
1.501429500E0,-2.038101249E0,3.855400232E0,9.792810794E-1,4.469559160E0
1.511433500E0,-2.373823667E0,4.027690780E-1,-7.930859256E-1,2.535004343E0
1.521438500E0,-1.195751157E1,-2.414199568E1,-2.294620500E0,2.703855251E1
1.531442500E0,-1.107804356E1,-3.886648454E1,-2.553300151E0,4.049501218E1
1.541446500E0,4.171188469E0,-1.414070402E1,-1.544207554E0,1.482372761E1
1.551450500E0,8.590373726E0,-1.838969788E0,1.471423752E0,8.907380001E0
1.561454500E0,8.904411306E0,-1.860642493E-2,1.753782288E0,9.075496638E0
1.571458500E0,7.249081512E0,9.996370643E-1,5.375813127E-1,7.337400813E0
1.581462500E0,5.008589272E0,1.615206785E0,4.132274079E-1,5.278789288E0
1.591467500E0,3.253442245E0,1.487899452E0,7.634686089E-1,3.658089055E0
1.601471500E0,1.405278441E0,9.029855132E-2,9.985114753E-2,1.411712285E0
1.611475500E0,-1.600042324E-1,-1.383876316E0,-9.495294412E-2,1.396327710E0
1.621479500E0,-6.497189221E-1,-1.841124487E-1,-9.688260751E-3,6.753709602E-1
1.631483500E0,-6.764601396E-1,1.800036687E0,-1.713479769E-1,1.930567410E0
1.641487500E0,-7.812691413E-1,2.684522195E0,-4.998375356E-1,2.840225070E0
1.651492500E0,-2.108600982E-1,3.882630131E0,-5.727324343E-1,3.930305478E0
1.661496500E0,3.303887343E-1,3.023588197E0,3.891614377E-1,3.066380428E0
1.671500500E0,5.093614805E-1,-5.482045341E-1,1.290468800E0,1.491739606E0
1.681504500E0,5.349817868E-1,-1.571742677E0,1.167871984E0,2.029902836E0
1.691508500E0,-1.494953533E0,-2.113727528E0,1.641696426E0,3.065599009E0
1.701512500E0,-3.607543193E0,-2.640202054E0,1.701680088E0,4.783382683E0
1.711516500E0,-4.649518776E0,-2.914996632E0,-7.495136440E-1,5.538682236E0
1.721521500E0,-3.950655468E0,-2.059933729E0,-2.484652669E0,5.101421810E0
1.731525500E0,-2.863128321E0,-1.453027827E0,-2.054869455E0,3.811991884E0
1.741529500E0,-2.523386380E0,-1.402245929E0,-1.564374601E0,3.283449460E0
1.751533500E0,-2.298705072E0,-1.121976603E0,-1.326435024E0,2.881372308E0
1.761537500E0,-1.966534691E0,-6.084419650E-1,-1.097226509E0,2.332673644E0
1.771541500E0,-1.491407781E0,8.618386567E-2,-8.577415127E-1,1.722627450E0
1.781545500E0,-9.965283921E-1,7.411018395E-1,-5.548288447E-1,1.360196978E0
1.791550500E0,-7.684277786E-1,9.925584251E-1,-2.271748531E-1,1.275641757E0
1.801554500E0,-7.030464059E-1,1.091212063E0,1.378902090E-1,1.305385661E0
1.811558500E0,-9.454402457E-1,8.022064126E-1,8.368476570E-1,1.495896516E0
1.821562500E0,-1.009519151E0,6.665942788E-1,1.405405179E0,1.854357184E0
1.831566500E0,-8.191186067E-1,3.983503371E-1,1.195980134E0,1.503331887E0
1.841570500E0,-2.864482243E-1,-4.001483560E-2,4.658418238E-1,5.483268889E-1
1.851574500E0,3.501065688E-1,-1.502488840E-1,-3.471351234E-1,5.154145230E-1
1.861579500E0,9.684608799E-1,-1.261817443E-1,-1.010243402E0,1.405144135E0
1.871583500E0,1.495008058E0,-2.129316205E-1,-1.590628599E0,2.193282542E0
1.881587500E0,1.806329461E0,-3.723237956E-1,-1.853087890E0,2.614457087E0
1.891591500E0,1.796973039E0,-2.394013810E-1,-1.507850736E0,2.357973487E0
1.901595500E0,1.742815396E0,5.668992519E-2,-7.724944440E-1,1.907188223E0
1.911599500E0,1.609777207E0,1.999829614E-1,-4.405901114E-1,1.680921023E0
1.921604500E0,1.472234030E0,2.583691639E-1,-1.063877499E-1,1.498514604E0
1.931608500E0,1.505474574E0,1.642535502E-1,2.036129129E-1,1.528035059E0
1.941612500E0,1.632799741E0,5.290794611E-2,1.568818923E-1,1.641172195E0
1.951616500E0,1.581352868E0,1.251280761E-1,-1.006181560E-2,1.586327573E0
1.961620500E0,1.409854910E0,5.165564793E-1,1.051737949E-1,1.505185368E0
1.971624500E0,1.333102896E0,7.427712196E-1,2.098519651E-1,1.540425351E0
1.981628458E0,1.268035226E0,8.100223857E-1,8.922390617E-2,1.507318980E0
1.991633458E0,1.093157431E0,9.070195073E-1,-1.308432177E-1,1.426463285E0
2.001637458E0,9.206866430E-1,8.513048977E-1,-3.929142538E-1,1.314064509E0
2.011641458E0,7.056076325E-1,7.517694998E-1,-4.747611666E-1,1.135093687E0
2.021645458E0,4.470738696E-1,6.922723264E-1,-6.024526620E-1,1.020815962E0
2.031649458E0,2.520508088E-1,8.198807913E-1,-5.627910713E-1,1.025898588E0
2.041653458E0,7.922801793E-2,9.141460937E-1,-3.137054586E-1,9.697171104E-1
2.051657458E0,-3.927732629E-1,8.644669801E-1,-1.652646068E-1,9.637875212E-1
2.061662458E0,-3.913978516E-1,8.731424940E-1,-2.615920030E-2,9.572117826E-1
2.071666458E0,-1.350645420E-1,6.646079797E-1,6.337351926E-1,9.282060609E-1
2.081670458E0,-2.742696436E-1,4.743027449E-2,9.306580460E-1,9.713896576E-1
2.091674458E0,-4.358849300E-1,-3.792217559E-1,9.358270577E-1,1.099807753E0
2.101678458E0,-5.688275175E-1,-5.088048255E-1,1.188597513E0,1.412519431E0
2.111682458E0,-9.753063615E-1,-4.733841473E-1,1.205598731E0,1.621352321E0
2.121686458E0,-1.442290439E0,-2.602350104E-1,8.077027953E-1,1.673412016E0
2.131691458E0,-1.613663413E0,-3.363552332E-2,3.750896017E-1,1.657025397E0
2.141695458E0,-1.568429937E0,2.139806110E-1,3.541577391E-1,1.622093670E0
2.151699458E0,-1.219879166E0,3.610281444E-1,5.037083193E-1,1.368272112E0
2.161703458E0,-6.396244352E-1,3.563673288E-1,7.040234756E-1,1.015758901E0
2.171707458E0,-3.594838947E-2,4.230951691E-1,8.124508075E-1,9.167213990E-1
2.181711458E0,4.578725074E-1,6.794084519E-1,8.859410258E-1,1.206704015E0
2.191715458E0,1.011207388E0,1.161424844E0,9.045163143E-1,1.785944516E0
2.201720458E0,1.614604230E0,1.666647665E0,1.104784766E0,2.570060434E0
2.211724458E0,1.799016494E0,2.335926400E0,1.576771867E0,3.343534360E0
2.221728458E0,1.768666814E0,3.378722933E0,1.895787767E0,4.258868654E0
2.231732458E0,1.123866277E0,3.831334847E0,2.006654484E0,4.468653526E0
2.241736458E0,7.367822090E-1,4.446722134E0,1.249525427E0,4.677338940E0
2.251740458E0,1.097360118E-1,4.958467525E0,-6.937883632E-1,5.007972092E0
2.261745458E0,-1.247040945E0,3.614312514E0,-4.036179475E0,5.559596283E0
2.271749458E0,-1.292555087E0,1.378529622E0,-5.536161321E0,5.849796983E0
2.281753458E0,7.096726169E-1,-2.852482295E-1,-3.971025706E0,4.044013715E0
2.291757458E0,1.616192772E0,-1.020818018E0,-3.315555755E0,3.827147562E0
2.301761458E0,6.800728418E-1,-4.978529906E-1,-1.356266348E0,1.596814040E0
2.311765458E0,-5.037409906E-1,1.130523478E0,1.066163176E0,1.633567335E0
2.321769458E0,-1.650476459E0,2.098965062E0,9.089531815E-1,2.820624534E0
2.331774458E0,-3.213656620E0,2.002849116E0,-5.422479755E-1,3.825313885E0
2.341778458E0,-3.223466786E0,6.683940518E-1,-1.690055239E0,3.700510159E0
2.351782458E0,-6.622274320E-1,-7.505638039E-1,-1.496184956E0,1.800127945E0
2.361786458E0,1.995428415E0,-1.807150995E0,-2.323008147E-1,2.702127485E0
2.371790458E0,3.848948414E0,-3.155809531E0,8.381165028E-2,4.978007843E0
2.381794458E0,4.775517210E0,-5.331900537E0,-4.688657114E-1,7.173183604E0
2.391798458E0,5.183485340E0,-7.924662961E0,-6.116655350E-1,9.489095744E0
2.401803458E0,4.173156057E0,-1.038958537E1,-1.521053457E0,1.129921764E1
2.411807458E0,1.445923460E0,-1.290197489E1,-1.785019868E0,1.310488255E1
2.421811458E0,-1.628411260E0,-1.551362909E1,-1.552762615E0,1.567595236E1
2.431815458E0,-4.535517951E0,-1.841589808E1,-1.410809761E0,1.901858590E1
2.441819458E0,-7.116170792E0,-2.118237602E1,-1.496575258E0,2.239581832E1
2.451823458E0,-8.437044529E0,-2.166935085E1,-1.447786968E0,2.329893933E1
2.461827458E0,-9.072989457E0,-1.919553658E1,-1.917845511E0,2.131820569E1
2.471832458E0,-7.526089261E0,-1.456601528E1,-1.502437092E0,1.646414705E1
2.481836458E0,-5.176750517E0,-1.020981857E1,-3.061847699E-1,1.145132701E1
2.491840458E0,-3.193409466E0,-6.808804885E0,7.586917260E-1,7.558657362E0
2.501844458E0,-1.866868169E0,-3.991594164E0,9.995557880E-1,4.518532118E0
2.511848458E0,-8.293696529E-1,-1.505589618E0,6.231047353E-1,1.828363648E0
2.521852458E0,3.337143382E-1,1.038289499E0,3.234855115E-1,1.137564600E0
2.531856458E0,1.231851340E0,3.163737770E0,5.040565941E-1,3.432312261E0
2.541861458E0,2.035284206E0,4.552525163E0,8.099446177E-1,5.052116135E0
2.551865458E0,2.876920733E0,5.930268919E0,9.645261423E-1,6.661461779E0
2.561869458E0,2.933163931E0,7.699134684E0,5.554607825E-1,8.257642655E0
2.571873458E0,3.002969161E0,9.230695295E0,-4.019387734E-1,9.715200162E0
2.581877458E0,2.907845195E0,1.051332649E1,-1.432993512E0,1.100177567E1
2.591881458E0,2.727415030E0,1.164572751E1,-1.651216278E0,1.207428164E1
2.601885458E0,2.892081394E0,1.274645650E1,-1.195464263E0,1.312499230E1
2.611890458E0,3.262425322E0,1.337206530E1,-1.007858688E0,1.380113505E1
2.621894458E0,3.333587106E0,1.320719838E1,-1.293368873E0,1.368267865E1
2.631898458E0,3.139810964E0,1.236940581E1,-1.212726560E0,1.281917777E1
2.641902458E0,2.633270765E0,1.035815308E1,-7.494762218E-1,1.071387720E1
2.651906458E0,1.834915036E0,8.430408524E0,-2.417578089E-1,8.631173032E0
2.661910458E0,1.518861628E0,7.510994673E0,-5.750784834E-1,7.684575258E0
2.671915458E0,1.380347814E0,7.145240809E0,-1.963040249E0,7.537463322E0
2.681919458E0,1.701091712E0,7.494414893E0,-2.339153040E0,8.033156575E0
2.691923458E0,2.738017494E0,8.115050057E0,9.688310087E-1,8.619130510E0
2.701927458E0,3.690715157E0,8.664065600E0,5.012018080E0,1.066807088E1
2.711931458E0,2.420147648E0,9.305712149E0,3.941142633E0,1.039163118E1
2.721935458E0,2.168618265E0,9.446787921E0,4.948613212E0,1.088271473E1
2.731939458E0,1.696534246E0,9.590757480E0,3.028126806E0,1.019952986E1
2.741944458E0,7.198170975E-1,9.152049075E0,1.533207772E0,9.307462866E0
2.751948458E0,5.527662393E-1,8.536934268E0,-1.508182566E-1,8.556140681E0
2.761952458E0,1.048612466E0,8.559310977E0,-9.568231666E-1,8.676226316E0
2.771956458E0,1.664169907E0,8.729325204E0,-6.199403684E-1,8.908137070E0
2.781960458E0,1.921305162E0,8.784210094E0,5.207916176E-1,9.006940902E0
2.791964458E0,1.896198534E0,8.688690564E0,2.143542188E0,9.147878755E0
2.801968458E0,1.506997628E0,8.446658521E0,3.418384889E0,9.235931857E0
2.811973458E0,1.227500135E0,8.521171929E0,4.640903488E0,9.780343185E0
2.821977458E0,5.335144280E-1,8.237523497E0,5.917167063E0,1.015649039E1
2.831981458E0,-5.311025977E-2,7.504596650E0,6.234796003E0,9.756765488E0
2.841985458E0,-1.957861224E0,4.995165235E0,3.252988208E0,6.274299051E0
2.851989458E0,-3.067438222E0,1.642109824E0,-3.479742354E-1,3.496682426E0
2.861993458E0,-4.481281225E-1,-1.964135286E0,-1.562240952E0,2.549361298E0
2.871997458E0,7.049694090E-1,-8.121236996E0,-5.872075090E-1,8.172899417E0
2.882002458E0,-1.349402887E0,-1.832700403E1,7.024704552E-1,1.839003615E1
2.892006458E0,-4.083260964E0,-2.881119151E1,-1.673899674E0,2.914720769E1
2.902010458E0,-7.444732856E0,-3.548325984E1,-1.117772338E1,3.793978487E1
2.912014458E0,-1.087909088E1,-3.388627298E1,-1.346714454E1,3.805257017E1
2.922018458E0,-7.049448799E0,-2.760838650E1,-6.451837047E0,2.921547424E1
2.932022458E0,-9.380755314E-1,-2.525524707E1,-6.902339870E0,2.619827830E1
2.942026458E0,-9.373130545E-2,-2.618966721E1,-9.757746942E0,2.794854343E1
2.952031458E0,6.801937330E-1,-2.397849350E1,-7.797501808E0,2.522363670E1
2.962035458E0,2.575083075E-1,-1.914185447E1,-5.169998152E0,1.982941713E1
2.972039458E0,-1.231239429E-1,-1.438172274E1,-3.326806090E0,1.476200350E1
2.982042833E0,-1.000739411E0,-1.083517010E1,-2.028212291E0,1.106869620E1
2.992046833E0,-1.932824323E0,-7.576374146E0,-1.387925805E0,7.941258912E0
3.002050833E0,-2.251811426E0,-3.939242288E0,-3.076348794E-1,4.547848252E0
3.012054833E0,-2.141213096E0,-9.999867278E-1,4.866624431E-1,2.412800719E0
3.022059833E0,-1.798236330E0,1.064316625E0,7.936460888E-1,2.235240007E0
3.032063833E0,-1.105799112E0,3.159993213E0,4.323090653E-1,3.375683621E0
3.042067833E0,-3.839815356E-1,5.431111414E0,2.909654908E-1,5.452437430E0
3.052071833E0,1.442250824E-1,7.448365731E0,-3.501458913E-3,7.449762761E0
3.062075833E0,2.388758625E-1,9.038405516E0,-4.142870696E-1,9.051047990E0
3.072079833E0,-1.396582608E-1,1.027543369E1,-3.084616026E-1,1.028101116E1
3.082083833E0,-3.020262301E-1,1.152170222E1,1.574047065E-1,1.152673493E1
3.092088833E0,2.498828074E-1,1.293543266E1,6.351900530E-1,1.295342912E1
3.102092833E0,1.106637895E0,1.411543703E1,5.985933535E-1,1.417139810E1
3.112096833E0,2.118158694E0,1.455394429E1,1.054277102E-1,1.470765126E1
3.122100833E0,3.664219669E0,1.324185951E1,-1.133731846E0,1.378617775E1
3.132104833E0,3.918101387E0,1.035432783E1,-2.381594324E0,1.132411651E1
3.142108833E0,3.543012151E0,8.698515640E0,-3.752314990E0,1.011419682E1
3.152112833E0,3.604570468E0,8.461704576E0,-4.713141160E0,1.033475071E1
3.162117833E0,3.903204144E0,8.970477242E0,-3.425479023E0,1.036524824E1
3.172121833E0,3.828357152E0,9.041035593E0,-5.433209395E-1,9.833200940E0
3.182125833E0,3.597297994E0,8.650024681E0,1.127219217E0,9.435788414E0
3.192129833E0,3.203566664E0,8.332996835E0,1.841129019E0,9.115450163E0
3.202133833E0,2.329562291E0,8.474628092E0,2.642785939E0,9.177717542E0
3.212137833E0,1.563041874E0,8.667469849E0,2.672526047E0,9.203832297E0
3.222141833E0,1.115536480E0,8.913008468E0,2.422605525E0,9.303502519E0
3.232146833E0,1.074658011E0,9.355866056E0,2.172042979E0,9.664620541E0
3.242150833E0,1.284682395E0,1.012511815E1,2.381280913E0,1.048040672E1
3.252154833E0,8.806922726E-1,1.060814494E1,2.829282590E0,1.101422707E1
3.262158833E0,-4.147512654E-1,1.029854422E1,2.649277225E0,1.064193129E1
3.272162833E0,-1.031526975E0,9.674372663E0,2.727649211E0,1.010433593E1
3.282166833E0,-5.607297085E-1,9.745561345E0,2.646905595E0,1.011417288E1
3.292170833E0,5.383638894E-1,1.016212634E1,2.873015378E0,1.057416024E1
3.302175833E0,1.472491600E0,1.005261033E1,3.132222447E0,1.063174602E1
3.312179833E0,2.039267476E0,9.935796998E0,3.463197073E0,1.071785463E1
3.322183833E0,1.770142797E0,8.961455573E0,3.867260724E0,9.919515967E0
3.332187833E0,1.221237767E0,7.348635621E0,4.412193156E0,8.658020306E0
3.342191833E0,1.269665138E0,4.805549387E0,3.182545632E0,5.902029411E0
3.352195833E0,1.535021724E0,1.295296846E0,1.782434522E0,2.685360020E0
3.362199833E0,7.525562426E-1,-4.366327012E0,2.693328979E0,5.185091461E0
3.372204833E0,-1.791910812E0,-1.559393825E1,2.906613771E0,1.596340372E1
3.382208833E0,-4.925005664E0,-3.003175333E1,2.007053264E0,3.049901887E1
3.392212833E0,-5.068264786E0,-3.888274682E1,-2.336090122E0,3.928119938E1
3.402216833E0,-3.317632978E0,-4.304822139E1,-1.086495465E1,4.452194170E1
3.412220833E0,-3.253130296E0,-3.935553163E1,-1.389225817E1,4.186210175E1
3.422224833E0,-1.999871714E0,-2.941541003E1,-1.265594745E1,3.208486933E1
3.432228833E0,-2.738302546E0,-2.368722731E1,-4.314866252E0,2.423223286E1
3.442233833E0,-3.801342723E0,-1.993448197E1,1.144687481E-1,2.029401096E1
3.452237833E0,-3.819151880E0,-1.657832520E1,-1.440380884E0,1.707341455E1
3.462241833E0,-5.331832125E0,-1.282481036E1,-1.839129271E0,1.401023165E1
3.472245833E0,-4.204021754E0,-9.632582613E0,-1.668154492E0,1.064157818E1
3.482249833E0,-2.339541003E0,-6.338184716E0,-2.890430725E-1,6.762365230E0
3.492253833E0,-1.262608133E0,-4.032552155E0,-2.351001692E-1,4.232130465E0
3.502257833E0,-4.738102631E-1,-1.563214513E0,-7.878736445E-1,1.813527132E0
3.512262833E0,9.067495121E-1,9.200693232E-1,-1.408749933E0,1.911360408E0
3.522266833E0,2.542243066E0,3.363414922E0,-1.069463929E0,4.349633644E0
3.532270833E0,3.839270395E0,5.718665201E0,-1.989152598E-1,6.890768907E0
3.542274833E0,4.128091274E0,7.820446283E0,2.966715693E-1,8.848080676E0
3.552278833E0,3.614306667E0,9.480839181E0,7.123173125E-1,1.017137750E1
3.562282833E0,3.085651714E0,1.047078682E1,9.713746206E-1,1.095911456E1
3.572286833E0,2.539298993E0,1.106016277E1,1.639392039E0,1.146572484E1
3.582291833E0,2.156436176E0,1.148100559E1,2.062135205E0,1.186238206E1
3.592295833E0,2.325590423E0,1.215201686E1,2.272267764E0,1.257947079E1
3.602299833E0,2.771070927E0,1.289030736E1,2.056095178E0,1.334415172E1
3.612303833E0,3.081681162E0,1.340220419E1,1.761466699E0,1.386429230E1
3.622307833E0,3.350487021E0,1.398576918E1,1.360890326E0,1.444574419E1
3.632311833E0,3.167736096E0,1.423045644E1,5.241140056E-1,1.458818488E1
3.642315833E0,1.813512911E0,1.274864219E1,2.399637370E-1,1.287921928E1
3.652320833E0,3.201069903E-1,1.031300088E1,-3.287991688E-2,1.031802000E1
3.662324833E0,-4.826363428E-1,8.948681746E0,-8.645071797E-1,9.003289148E0
3.672328833E0,-7.750390792E-1,8.344885978E0,-1.521322721E0,8.517759705E0
3.682332833E0,-2.651339538E-1,7.997926235E0,-1.756131699E0,8.192747928E0
3.692336833E0,1.011986822E0,8.193450109E0,-1.411440675E0,8.375494421E0
3.702340833E0,2.633492374E0,8.486058814E0,-8.453739206E-1,8.925420626E0
3.712344833E0,3.983624116E0,8.907258316E0,-3.989028990E-1,9.765635429E0
3.722349833E0,4.554377561E0,9.367129548E0,8.576937117E-2,1.041598902E1
3.732353833E0,3.973654906E0,9.812434781E0,5.338403372E-1,1.059994317E1
3.742357833E0,2.729005180E0,9.685419223E0,8.324315473E-2,1.006288946E1
3.752361833E0,1.900978633E0,8.805553601E0,-7.099445124E-1,9.036344127E0
3.762365833E0,1.986287024E0,7.418775312E0,-1.182274261E0,7.770542819E0
3.772369833E0,2.578734954E0,5.437949733E0,-1.673108253E0,6.246636094E0
3.782373833E0,3.113828569E0,2.389096887E0,-1.335923739E0,4.145890076E0
3.792377833E0,4.372145284E0,-3.611874225E0,-1.153259499E-1,5.672264969E0
3.802382833E0,5.053067873E0,-9.255940064E0,3.683025484E0,1.117007601E1
3.812386833E0,1.267946787E0,-1.592038246E1,7.338863754E0,1.757626774E1
3.822390833E0,-4.248409138E0,-2.389534609E1,8.047241067E0,2.556940816E1
3.832394833E0,-8.253931954E0,-2.619592841E1,5.563749654E0,2.802337182E1
3.842398833E0,-8.689613839E0,-2.260742668E1,-9.516763743E-1,2.423862243E1
3.852402833E0,-7.360928807E0,-1.559816579E1,-6.831397941E0,1.855138935E1
3.862406833E0,-5.440627758E0,-8.540399913E0,-8.033185530E0,1.292559209E1
3.872411833E0,-5.057400659E0,-6.249431584E0,-4.981344756E0,9.457615562E0
3.882415833E0,-3.487699830E0,-6.107017969E0,-1.792570378E0,7.257618558E0
3.892419833E0,-2.023815770E0,-4.966371791E0,3.918815625E-1,5.377197243E0
3.902423833E0,-8.516974651E-1,-2.977321519E0,2.063111690E0,3.721056549E0
3.912427833E0,1.533091705E-1,-5.129779834E-1,2.789263369E0,2.840183137E0
3.922431833E0,7.526363495E-1,2.153027834E0,2.705585035E0,3.538669342E0
3.932435833E0,1.056594938E0,4.797956192E0,1.897028546E0,5.266449828E0
3.942440833E0,5.418777005E-1,6.471808797E0,7.864844191E-1,6.541903261E0
3.952444833E0,4.263532376E-1,7.437504528E0,-1.186400056E-1,7.450659443E0
3.962448833E0,5.305041352E-1,7.626294165E0,-1.301683760E-1,7.645831618E0
3.972452833E0,1.071064312E0,6.714727862E0,3.249718372E-1,6.807375098E0
3.982457208E0,1.704973532E0,4.807421665E0,1.031832418E0,5.204124898E0
3.992461208E0,2.054362355E0,2.484866678E0,1.395920995E0,3.513340649E0
4.002465208E0,2.525101368E0,1.915816820E-1,1.291183330E0,2.842533175E0
4.012470208E0,2.887786321E0,-1.924998702E0,5.159325814E-1,3.508720033E0
4.022474208E0,2.762558550E0,-3.738129644E0,-2.853476139E-1,4.656905222E0
4.032478208E0,2.335794838E0,-4.704983125E0,-9.582112956E-1,5.339566707E0
4.042482208E0,1.142146866E0,-4.826839099E0,-1.760184989E0,5.263185950E0
4.052486208E0,-9.978617035E-1,-4.274974208E0,-2.583366534E0,5.093615131E0
4.062490208E0,-3.099612526E0,-4.066799882E0,-2.967927382E0,5.912279766E0
4.072494208E0,-4.220829283E0,-3.806524526E0,-3.110424027E0,6.479179457E0
4.082499208E0,-4.533365591E0,-3.234696071E0,-2.942667410E0,6.298726359E0
4.092503208E0,-3.464669402E0,-2.160411698E0,-2.430598669E0,4.751749431E0
4.102507208E0,-1.842111643E0,-1.234809739E0,-1.902816120E0,2.922129290E0
4.112511208E0,-5.234835295E-1,-5.103677863E-1,-1.426936966E0,1.603327599E0
4.122515208E0,4.045562795E-1,2.858540010E-1,-6.326723150E-1,8.035250782E-1
4.132519208E0,7.912086770E-1,1.030260687E0,2.485440874E-1,1.322581724E0
4.142523208E0,1.116087434E0,1.509549937E0,7.247916162E-1,2.012390385E0
4.152528208E0,1.386281568E0,2.047076286E0,8.744593600E-1,2.622399108E0
4.162532208E0,1.566538948E0,2.339187977E0,8.744324628E-1,2.947961465E0
4.172536208E0,2.052349013E0,2.454812574E0,7.314341263E-1,3.282260977E0
4.182540208E0,2.283578179E0,2.316448740E0,6.974909663E-1,3.326733791E0
4.192544208E0,1.760102397E0,1.738969536E0,3.143276755E-1,2.494148629E0
4.202548208E0,1.336759306E0,1.166393808E0,-3.317394412E-1,1.804840994E0
4.212552208E0,1.006014769E0,4.742676616E-1,-9.488088997E-1,1.461928130E0
4.222557208E0,4.990829524E-1,-3.411341625E-1,-1.766061587E0,1.866662754E0
4.232561208E0,3.144556564E-1,-7.307505137E-1,-2.036274286E0,2.186159107E0
4.242565208E0,6.735729307E-2,-8.740891582E-1,-1.831841447E0,2.030815587E0
4.252569208E0,-1.359211591E-1,-7.628944123E-1,-1.247566463E0,1.468640366E0
4.262573208E0,-3.605773240E-1,-5.764951175E-1,-5.468596745E-1,8.725927634E-1
4.272577208E0,-5.605021057E-1,-2.580417198E-1,-7.152665019E-2,6.211796852E-1
4.282581208E0,-7.237192369E-1,2.148512614E-1,3.181807713E-1,8.192494135E-1
4.292586208E0,-8.240153575E-1,6.360338062E-1,6.651922627E-1,1.235322249E0
4.302590208E0,-1.034467466E0,8.891363829E-1,9.557190661E-1,1.665558579E0
4.312594208E0,-1.375529269E0,1.127651911E0,9.585339157E-1,2.020511537E0
4.322598208E0,-1.846096667E0,1.272987379E0,4.580207343E-1,2.288744801E0
4.332602208E0,-2.140268332E0,1.137048386E0,-4.900083661E-1,2.472596968E0
4.342606208E0,-2.007875237E0,7.432436746E-1,-1.509086838E0,2.619411615E0
4.352610208E0,-1.854950228E0,-2.113943875E-2,-2.195650527E0,2.874398800E0
4.362614208E0,-1.192983875E0,-4.777648813E-1,-1.971648374E0,2.353479789E0
4.372619208E0,-1.198565188E-1,-7.586388087E-1,-1.197589580E0,1.422715442E0
4.382623208E0,5.468454950E-1,-1.144846233E0,-8.600461927E-1,1.532772764E0
4.392627208E0,6.151781036E-1,-1.303895761E0,-7.092742753E-1,1.606753949E0
4.402631208E0,7.716998805E-1,-1.322134396E0,1.020362520E-1,1.534265774E0
4.412635208E0,1.051546452E0,-1.567076014E0,4.933741696E-1,1.950614069E0
4.422639208E0,1.416499394E0,-1.801815410E0,1.253363539E0,2.612265198E0
4.432643208E0,1.618546130E0,-2.007132787E0,1.342099422E0,2.906803133E0
4.442648208E0,1.193117776E0,-2.379899801E0,6.166774759E-1,2.732717365E0
4.452652208E0,8.372815204E-1,-2.680760681E0,-3.369706526E-2,2.808674717E0
4.462656208E0,8.001144250E-1,-3.318952110E0,-3.488643278E-1,3.431811842E0
4.472660208E0,9.309569849E-1,-4.220106275E0,4.156083941E-2,4.321771070E0
4.482664208E0,1.397849115E0,-5.017512708E0,8.494367123E-1,5.277400748E0
4.492668208E0,1.888760876E0,-5.658523080E0,1.181679160E0,6.081337577E0
4.502672208E0,2.309164425E0,-6.100049842E0,2.105551220E0,6.853918176E0
4.512677208E0,2.692670582E0,-6.444543230E0,3.113483291E0,7.646985714E0
4.522681208E0,2.809106480E0,-6.791312354E0,4.094516269E0,8.412970117E0
4.532685208E0,2.383743468E0,-7.289506238E0,4.942023400E0,9.123745360E0
4.542689208E0,1.420398902E0,-7.459275466E0,4.825722281E0,8.996995001E0
4.552693208E0,3.455752690E-1,-6.675780728E0,4.048780518E0,7.815247551E0
4.562697208E0,-1.211723031E0,-5.663466901E0,2.851839101E0,6.455704168E0
4.572701208E0,-2.246477157E0,-4.395318677E0,1.948862944E0,5.306934394E0
4.582706208E0,-2.960142399E0,-3.230662662E0,9.186829484E-1,4.477008222E0
4.592710208E0,-2.847230911E0,-1.784966074E0,-3.663748384E-2,3.360679998E0
4.602714208E0,-2.273584995E0,-2.465525258E-1,-6.884582607E-1,2.388294717E0
4.612718208E0,-2.157760424E0,1.075766643E0,-9.448188329E-1,2.589572657E0
4.622722208E0,-2.253681512E0,2.006429951E0,-1.195553287E0,3.245641565E0
4.632726208E0,-2.629268346E0,2.898391709E0,-2.330032407E0,4.554423954E0
4.642730208E0,-2.767245094E0,4.462512540E0,-3.727743820E0,6.439544826E0
4.652735208E0,-3.001315860E0,6.187614235E0,-5.288983144E0,8.675702249E0
4.662739208E0,-3.779853621E0,7.783845636E0,-6.267020009E0,1.068415116E1
4.672743208E0,-3.299984619E0,9.546766537E0,-6.407502873E0,1.196188710E1
4.682747208E0,-7.941410556E-1,1.026911402E1,-5.330752144E0,1.159751185E1
4.692751208E0,1.539263294E0,1.032865855E1,-3.947118487E0,1.116379252E1
4.702755208E0,2.952878988E0,1.019920237E1,-3.620578390E0,1.121836936E1
4.712759208E0,4.038790550E0,1.112456751E1,-1.747226390E0,1.196330354E1
4.722764208E0,4.309620715E0,1.231392509E1,4.662686706E-1,1.305461560E1
4.732768208E0,4.913156866E0,1.268102499E1,1.225890835E0,1.365468101E1
4.742772208E0,5.164473118E0,1.255016898E1,2.070798440E0,1.372831855E1
4.752776208E0,5.166446553E0,1.190039597E1,2.142687764E0,1.314924732E1
4.762780208E0,5.222720157E0,1.112048265E1,2.022685211E0,1.245123270E1
4.772784208E0,6.677534308E0,1.103155586E1,5.855497649E0,1.416232826E1
4.782788208E0,7.131309233E0,1.083288384E1,4.087827054E0,1.359842909E1
4.792792208E0,5.979933999E0,1.008738256E1,5.048639191E0,1.276728848E1
4.802797208E0,5.179771773E0,8.021039693E0,3.242440124E0,1.008367648E1
4.812801208E0,4.023948855E0,4.839078491E0,1.640863198E0,6.503943193E0
4.822805208E0,3.181304853E0,8.050657010E-1,1.076269942E0,3.453576166E0
4.832809208E0,1.600005048E0,-5.395051051E0,-6.000880480E-1,5.659213519E0
4.842813208E0,-8.244025894E-1,-1.356890129E1,-2.878912879E0,1.389542591E1
4.852817208E0,-4.790289616E0,-1.837538974E1,-1.316068933E0,1.903506922E1
4.862821208E0,-9.131042368E0,-1.772514194E1,-5.502089596E-1,1.994641124E1
4.872826208E0,-8.976630267E0,-1.295643235E1,-2.776997080E0,1.600502243E1
4.882830208E0,-5.864662575E0,-7.385626861E0,-6.765474824E-1,9.455129177E0
4.892834208E0,-6.293759326E0,-6.224320716E0,3.472157346E0,9.508388479E0
4.902838208E0,-6.333539103E0,-6.105910506E0,4.598288981E0,9.926737744E0
4.912842208E0,-4.367249118E0,-6.005054807E0,3.628583229E0,8.264391347E0
4.922846208E0,-1.291283902E0,-6.472750783E0,2.479607692E0,7.050700045E0
4.932850208E0,1.536488937E-1,-6.126300332E0,1.535766513E0,6.317732388E0
4.942855208E0,1.866188138E0,-5.796722606E0,5.868159648E-1,6.117924821E0
4.952859208E0,3.251483427E0,-5.873189569E0,-6.969658133E-1,6.749241553E0
4.962863208E0,1.293343876E0,-5.013043097E0,-1.680214959E0,5.443019546E0
4.972867208E0,-6.251089416E-1,-3.054902961E0,-1.467970387E0,3.446466356E0
4.982871083E0,-1.366279705E0,-9.803792596E-1,-9.496766265E-1,1.931255918E0
4.992875083E0,-1.606945547E0,9.967748523E-1,-5.979970837E-1,1.983288836E0
5.002879083E0,-1.856980966E0,2.595774910E0,8.241526209E-2,3.192681940E0
5.012884083E0,-2.397395547E0,3.740615296E0,6.154544576E-1,4.485364243E0
5.022888083E0,-2.566584732E0,4.567540228E0,9.988119491E-1,5.333610993E0
5.032892083E0,-2.527061063E0,5.170885175E0,9.549695992E-1,5.834043027E0
5.042896083E0,-2.071031452E0,5.091771178E0,1.322705669E0,5.653747013E0
5.052900083E0,-1.689876021E0,4.176670818E0,1.935630695E0,4.903766540E0
5.062904083E0,-6.791608223E-1,2.789658641E0,2.417089262E0,3.753102084E0
5.072908083E0,5.462923484E-1,1.596521423E0,2.259035515E0,2.819673286E0
5.082912083E0,1.546088895E0,9.488931727E-1,1.325680733E0,2.246824099E0
5.092917083E0,2.224178654E0,5.561193252E-1,2.982079983E-4,2.292649009E0
5.102921083E0,2.193423908E0,2.781906402E-1,-1.302703514E0,2.566229709E0
5.112925083E0,1.659666382E0,1.702896309E-1,-2.261630509E0,2.810420541E0
5.122929083E0,1.352006652E0,-1.929657179E-1,-2.562218324E0,2.903466978E0
5.132933083E0,1.294874677E0,-9.127690744E-1,-2.287630738E0,2.782643025E0
5.142937083E0,1.496116690E0,-1.629665195E0,-1.398015468E0,2.616987017E0
5.152941083E0,1.867885439E0,-2.348897279E0,-5.795024136E-1,3.056491041E0
5.162946083E0,1.782889581E0,-3.087278409E0,-3.455903987E-1,3.581817410E0
5.172950083E0,1.499061494E0,-3.577849277E0,-5.761144638E-1,3.921746893E0
5.182954083E0,1.029552004E0,-3.327518865E0,-1.167276152E0,3.673539539E0
5.192958083E0,-1.776970299E-1,-2.272839037E0,-2.031049068E0,3.053282469E0
5.202962083E0,-1.026562469E0,-1.110966296E0,-2.471000590E0,2.897226351E0
5.212966083E0,-1.430798614E0,-1.173571265E-1,-1.853965996E0,2.344812846E0
5.222970083E0,-1.464138560E0,6.656768507E-1,-6.586396535E-1,1.737997004E0
5.232975083E0,-1.109397927E0,1.014454494E0,4.525242785E-1,1.569923534E0
5.242979083E0,-5.797645882E-1,8.696727562E-1,1.097543428E0,1.515605244E0
5.252983083E0,-1.514661281E-1,4.642332548E-1,1.073214333E0,1.179085878E0
5.262987083E0,1.173527411E-1,-9.463250756E-2,5.299717462E-1,5.509963966E-1
5.272991083E0,3.165802422E-1,-5.739428079E-1,-1.249257624E-1,6.672629486E-1
5.282995083E0,4.024471888E-1,-8.164233327E-1,-5.708801094E-1,1.074437014E0
5.292999083E0,4.057608059E-1,-7.206278139E-1,-9.314545099E-1,1.245613817E0
5.303004083E0,3.595539151E-1,-2.811423147E-1,-1.288829241E0,1.367260338E0
5.313008083E0,2.194477576E-1,1.234019780E-1,-1.468847469E0,1.490267846E0
5.323012083E0,-1.890273258E-2,3.733213305E-1,-1.445657412E0,1.493201755E0
5.333016083E0,-9.444539666E-2,7.206196278E-1,-1.390618740E0,1.569086697E0
5.343020083E0,2.394908434E-1,1.151347167E0,-1.165525496E0,1.655719133E0
5.353024083E0,5.799076988E-1,1.160399242E0,-5.927229682E-1,1.426232750E0
5.363028083E0,7.485441756E-1,8.056030601E-1,-1.965214097E-1,1.117110262E0
5.373032083E0,9.604405466E-1,5.069068193E-1,-8.685103297E-2,1.089469444E0
5.383037083E0,9.815782312E-1,3.516620743E-1,-1.417606272E-2,1.042766992E0
5.393041083E0,8.061731637E-1,3.490688342E-1,5.452177763E-2,8.801913684E-1
5.403045083E0,6.991882668E-1,4.918549168E-1,1.327317953E-1,8.651030119E-1
5.413049083E0,4.902440089E-1,6.890709758E-1,1.894006705E-1,8.666202236E-1
5.423053083E0,1.999977256E-1,9.093566394E-1,2.521400519E-1,9.646259346E-1
5.433057083E0,-3.827675074E-2,1.143632936E0,2.794231602E-1,1.177895880E0
5.443061083E0,-2.381234720E-1,1.235082219E0,6.500342332E-2,1.259506380E0
5.453066083E0,-3.573822592E-1,1.347181529E0,-2.273853528E-1,1.412205456E0
5.463070083E0,-4.489458556E-1,1.385476699E0,-5.948009956E-1,1.573177132E0
5.473074083E0,-7.194911152E-1,1.015463138E0,-1.175064644E0,1.711610285E0
5.483078083E0,-1.071946072E0,2.312187874E-1,-2.177575322E0,2.438106805E0
5.493082083E0,-1.203455507E0,-6.352941334E-1,-2.959488680E0,3.257372721E0
5.503086083E0,-1.069705857E0,-1.221983287E0,-2.768491720E0,3.209682255E0
5.513090083E0,-9.370065142E-1,-1.255294874E0,-1.308858001E0,2.041287754E0
5.523095083E0,-7.455154641E-1,-6.993778628E-1,3.409243937E-1,1.077567698E0
5.533099083E0,-7.918136445E-1,3.910746467E-1,1.559493491E0,1.792185307E0
5.543103083E0,-6.773386107E-1,1.752887079E0,1.964492843E0,2.718571838E0
5.553107083E0,-3.701049965E-1,3.180308779E0,1.805593296E0,3.675800429E0
5.563111083E0,-4.276197445E-1,4.009069737E0,1.152722140E0,4.193359886E0
5.573115083E0,-6.302097601E-1,4.145113980E0,3.099161705E-1,4.204186281E0
5.583119083E0,-3.488589922E-1,3.875069096E0,-8.458055913E-1,3.981614019E0
5.593123083E0,8.192399365E-1,2.885271142E0,-1.207608199E0,3.233304996E0
5.603128083E0,2.927433075E0,1.777948245E0,-4.732335815E-1,3.457587944E0
5.613132083E0,3.076003515E0,6.175554353E-1,4.949413696E-1,3.176183134E0
5.623136083E0,1.455282513E0,4.244371051E-1,4.203823534E-1,1.573122809E0
5.633140083E0,3.093681403E-1,5.445090938E-1,-4.118749470E-2,6.276107146E-1
5.643144083E0,-1.795135405E-1,-5.977345437E-1,-1.187142652E-1,6.352989632E-1
5.653148083E0,-1.204584750E0,-2.077547881E0,-2.079442379E-1,2.410491739E0
5.663152083E0,-1.994341125E0,-3.021698377E0,-4.793041608E-1,3.652093932E0
5.673157083E0,-2.583023887E0,-3.468189425E0,-1.913513017E-1,4.328621676E0
5.683161083E0,-2.445433640E0,-3.849339593E0,-1.401861474E0,4.771035169E0
5.693165083E0,-1.044485062E0,-4.270576517E0,-4.350290439E-1,4.417920676E0
5.703169083E0,8.551292691E-1,-4.851879215E0,9.362947619E-1,5.014840562E0
5.713173083E0,1.932724336E0,-6.260588071E0,2.482526037E-1,6.556829700E0
5.723177083E0,1.633066375E0,-7.801701863E0,-1.215477090E0,8.062930131E0
5.733181083E0,6.338576187E-1,-9.681869963E0,-2.063689395E0,9.919636858E0
5.743186083E0,8.303806365E-2,-1.194569201E1,-1.701644712E0,1.206656735E1
5.753190083E0,-8.194040971E-1,-1.414906203E1,-1.344697340E0,1.423641775E1
5.763194083E0,-1.299131158E0,-1.561551799E1,-1.208486159E0,1.571599766E1
5.773198083E0,-1.600181780E0,-1.594109329E1,-9.243863225E-1,1.604785117E1
5.783202083E0,-1.660395822E0,-1.479315622E1,-8.807064521E-1,1.491207662E1
5.793206083E0,-1.657590328E0,-1.246182456E1,-1.289438228E-1,1.257224338E1
5.803210083E0,-1.591534625E0,-9.857408055E0,5.528403528E-1,1.000035542E1
5.813215083E0,-1.106341587E0,-7.462812447E0,1.399625937E0,7.673103289E0
5.823219083E0,-1.088445014E0,-5.318395808E0,2.169397699E0,5.846052762E0
5.833223083E0,-1.420191180E0,-2.998651577E0,1.699055711E0,3.727686223E0
5.843227083E0,-2.366380161E0,-7.173656523E-1,1.152679017E0,2.728193077E0
5.853231083E0,-3.618485672E0,1.162187321E0,-4.283564937E-1,3.824605497E0
5.863235083E0,-2.620964715E0,2.785879585E0,-1.328537682E0,4.049147253E0
5.873239083E0,-1.717909620E0,3.907496585E0,-1.340506933E0,4.474002890E0
5.883243083E0,-1.515353299E0,5.639840641E0,-2.501369859E0,6.353026778E0
5.893248083E0,-1.091344502E0,7.749479796E0,-3.274355396E0,8.483329133E0
5.903252083E0,-1.446224007E-1,9.214435943E0,-3.490972517E0,9.854625031E0
5.913256083E0,9.058918718E-1,1.036669937E1,-4.286268690E0,1.125438560E1
5.923260083E0,1.984365629E0,1.144233094E1,-5.132800505E0,1.269686124E1
5.933264083E0,3.473376783E0,1.205080974E1,-5.422575649E0,1.366348010E1
5.943268083E0,4.805773043E0,1.173884442E1,-4.148032326E0,1.334548969E1
5.953272083E0,5.321874316E0,1.064919707E1,-1.706580055E0,1.202664375E1
5.963277083E0,5.295053723E0,9.577728129E0,9.486464202E-1,1.098500797E1
5.973281083E0,4.663990635E0,8.240608488E0,2.415361995E0,9.772124153E0
5.983285708E0,3.129526004E0,7.462486757E0,1.960558544E0,8.326249541E0
5.993289708E0,1.918736042E0,8.006265534E0,1.279701737E0,8.331834872E0
6.003293708E0,1.344853753E0,8.871152344E0,8.071812236E-1,9.008746697E0
6.013297708E0,8.277998216E-1,9.514882840E0,3.558768205E-1,9.557452397E0
6.023301708E0,5.173778670E-1,9.808577957E0,-1.077630150E-1,9.822804806E0
6.033306708E0,2.797664648E-1,9.839088728E0,4.473704696E-2,9.843167056E0
6.043310708E0,2.512873086E-1,9.769354835E0,2.347364724E-1,9.775404872E0
6.053314708E0,3.988973442E-1,9.671647861E0,3.077800365E-1,9.684762258E0
6.063318708E0,7.853230159E-1,9.634056696E0,2.862574589E-1,9.670249428E0
6.073322708E0,1.155287314E0,9.454267679E0,3.150221054E-1,9.529800892E0
6.083326708E0,1.560897554E0,9.078164243E0,6.528426509E-1,9.234482699E0
6.093330708E0,2.031959918E0,8.917945856E0,1.183032060E0,9.222699402E0
6.103335708E0,2.460790182E0,8.876366306E0,2.134658221E0,9.455270109E0
6.113339708E0,2.758953742E0,8.984643291E0,3.423248018E0,1.000271302E1
6.123343708E0,2.723964296E0,9.065044845E0,4.222644551E0,1.036463924E1
6.133347708E0,1.879051574E0,8.904592570E0,4.381464869E0,1.010048702E1
6.143351708E0,9.119500257E-1,8.611694428E0,4.354778177E0,9.693143285E0
6.153355708E0,1.470947497E-1,7.650465385E0,1.790972918E0,7.858679371E0
6.163359708E0,-1.585842361E0,4.971237259E0,-4.295602600E0,6.758720114E0
6.173363708E0,-2.326243557E0,7.577821916E-1,-5.320853977E0,5.856375158E0
6.183368708E0,-6.153868492E-1,-4.215910313E0,-3.059317024E0,5.245190311E0
6.193372708E0,-7.325480939E-1,-1.097167803E1,-3.965806773E0,1.168939557E1
6.203376708E0,-2.019174981E0,-1.769835234E1,-3.547650455E0,1.816299994E1
6.213380708E0,-2.687629405E0,-2.391440100E1,-2.763893177E0,2.422315075E1
6.223384708E0,-6.216980122E0,-2.884415109E1,-8.703893909E0,3.076351188E1
6.233388708E0,-6.023357177E0,-2.600159035E1,-9.596775434E0,2.836303283E1
6.243392708E0,-1.141904572E0,-1.937417370E1,-4.808799269E0,1.999467687E1
6.253397708E0,-6.717553968E-1,-1.707860595E1,-2.744390082E0,1.731073983E1
6.263401708E0,-2.316047914E0,-1.737807461E1,-5.293517659E0,1.831346183E1
6.273405708E0,-2.366684801E0,-1.911958593E1,-5.137537919E0,1.993875771E1
6.283409708E0,-3.609729759E0,-2.113978724E1,-5.206557283E0,2.206873336E1
6.293413708E0,-4.892524673E0,-2.241518894E1,-4.298917094E0,2.334219743E1
6.303417708E0,-5.040813863E0,-2.232037049E1,-2.234621635E0,2.299135222E1
6.313421708E0,-4.472353404E0,-1.913328946E1,-7.519785377E-1,1.966342245E1
6.323425708E0,-3.762641757E0,-1.484248567E1,1.427165008E-1,1.531264908E1
6.333430708E0,-3.357126242E0,-1.106836408E1,1.788865289E0,1.170380361E1
6.343434708E0,-2.949657172E0,-7.323145854E0,3.379842090E0,8.587914484E0
6.353438708E0,-1.962126621E0,-3.341136446E0,1.996501379E0,4.358801600E0
6.363442708E0,-1.047947491E0,2.489317578E-1,4.209504104E-1,1.156442913E0
6.373446708E0,-1.188388986E0,2.704852379E0,-5.844992249E-1,3.011666336E0
6.383450708E0,-1.369123937E0,4.529705234E0,-1.849774858E0,5.080787034E0
6.393454708E0,-6.565015461E-1,6.734276274E0,-3.038402703E0,7.417099312E0
6.403459708E0,4.665785730E-2,9.361018038E0,-3.116316851E0,9.866218444E0
6.413463708E0,6.257424143E-1,1.190403527E1,-2.539080892E0,1.218788502E1
6.423467708E0,1.262818633E0,1.247825992E1,-1.504531857E0,1.263191583E1
6.433471708E0,1.741905862E0,1.192450521E1,-2.980548012E-1,1.205474583E1
6.443475708E0,2.111601188E0,1.119049253E1,2.008343891E-1,1.138974614E1
6.453479708E0,2.920007696E0,1.111840806E1,2.464029101E-1,1.149809363E1
6.463483708E0,3.722866657E0,1.153340834E1,2.795963109E-1,1.212259948E1
6.473488708E0,4.503089293E0,1.129815498E1,-4.530398568E-1,1.217092290E1
6.483492708E0,4.231069804E0,9.389133790E0,-1.723637552E0,1.044168145E1
6.493496708E0,2.597203677E0,7.695536892E0,-3.443254559E0,8.821720748E0
6.503500708E0,1.174346606E0,6.751301612E0,-8.526842558E0,1.093920506E1
6.513504708E0,9.603743269E-1,7.584115275E0,-7.383621851E0,1.062821692E1
6.523508708E0,3.385209249E0,9.488201995E0,-1.756360764E0,1.022596802E1
6.533512708E0,6.669419543E0,1.039481746E1,2.159120632E0,1.253775055E1
6.543517708E0,7.379093767E0,1.036076795E1,3.662378966E0,1.323667470E1
6.553521708E0,5.057914630E0,9.565425587E0,3.039784985E0,1.123922416E1
6.563525708E0,3.437283967E0,9.278167670E0,2.104537898E0,1.011574991E1
6.573529708E0,2.202790563E0,9.330986153E0,1.320563103E0,9.677989242E0
6.583533708E0,1.348312966E0,8.958280535E0,1.080331710E0,9.123368599E0
6.593537708E0,1.250692531E0,8.626635818E0,1.293989993E0,8.812348578E0
6.603541708E0,1.479057585E0,8.843135410E0,1.651680693E0,9.116836311E0
6.613545708E0,1.414344403E0,9.251164643E0,1.880892716E0,9.545793563E0
6.623550708E0,1.165278744E0,9.392463194E0,1.640275114E0,9.605557863E0
6.633554708E0,9.978358296E-1,9.578137434E0,1.715756675E0,9.781626348E0
6.643558708E0,1.003420067E0,9.759589400E0,1.999578184E0,1.001272940E1
6.653562708E0,1.026087383E0,9.699001721E0,2.282466477E0,1.001664330E1
6.663566708E0,1.239043415E0,9.565529668E0,2.727426724E0,1.002364419E1
6.673570708E0,1.566782338E0,9.423689665E0,3.286041934E0,1.010241582E1
6.683574708E0,1.674112513E0,9.229780206E0,3.669248567E0,1.007248134E1
6.693579708E0,1.566015622E0,9.064154314E0,4.115979059E0,1.007733010E1
6.703583708E0,1.347640243E0,8.726245476E0,4.533115915E0,9.925353104E0
6.713587708E0,1.174071933E0,7.976828896E0,4.517835679E0,9.242244498E0
6.723591708E0,7.149463668E-1,6.806865948E0,4.486061032E0,8.183478229E0
6.733595708E0,2.442118853E-2,5.163210704E0,3.593878250E0,6.290890402E0
6.743599708E0,-1.169844980E0,1.283552129E0,-2.126616838E0,2.745640639E0
6.753603708E0,-3.521186834E0,-5.785401227E0,-6.767321813E0,9.574250289E0
6.763608708E0,-5.789044043E0,-1.611712489E1,-4.331508889E0,1.766456099E1
6.773612708E0,-6.107618478E0,-3.407910245E1,-5.554673606E0,3.506483461E1
6.783616708E0,-7.571529143E0,-4.788650700E1,-1.607009574E1,5.107537159E1
6.793620708E0,-6.361489964E0,-4.328274151E1,-1.568416547E1,4.647426507E1
6.803624708E0,-2.075323162E0,-3.205912100E1,-5.491796157E0,3.259223880E1
6.813628708E0,3.487031786E0,-2.559681100E1,-8.096466436E0,2.707229013E1
6.823632708E0,4.391648964E0,-2.123154409E1,-9.720670917E0,2.376039747E1
6.833636708E0,5.227677426E0,-1.907729185E1,-5.415889943E0,2.050862110E1
6.843641708E0,3.469088727E0,-1.788009199E1,-1.114237521E0,1.824756946E1
6.853645708E0,4.630487551E-1,-1.656289556E1,-4.950720549E-2,1.656944098E1
6.863649708E0,-1.672343584E0,-1.461751288E1,-5.902945465E-1,1.472470249E1
6.873653708E0,-2.736072710E0,-1.265297589E1,-1.297474788E0,1.301027800E1
6.883657708E0,-3.805710593E0,-9.991088269E0,-5.012641101E-1,1.070310906E1
6.893661708E0,-4.548935557E0,-6.252786716E0,5.652409816E-1,7.753041583E0
6.903665708E0,-4.126583569E0,-2.780252810E0,-1.806824720E-1,4.979070575E0
6.913670708E0,-2.807942884E0,-2.459046543E-1,-1.165927784E0,3.050311449E0
6.923674708E0,-1.436545988E0,1.860078821E0,-2.046224931E0,3.116182611E0
6.933678708E0,-1.557092624E0,3.552461836E0,-2.816041278E0,4.793183808E0
6.943682708E0,-2.686376932E0,5.813174332E0,-2.357924795E0,6.824179524E0
6.953686708E0,-3.630799616E0,7.786092137E0,-2.509775816E0,8.950134706E0
6.963690708E0,-2.463555331E0,9.783254836E0,-3.636970475E0,1.072421252E1
6.973694708E0,-1.298851222E0,1.159856971E1,-2.574096358E0,1.195156082E1
6.983699375E0,2.489965157E-1,1.272583571E1,-1.278418858E0,1.279231209E1
6.993703375E0,2.296429190E0,1.347891498E1,-7.599789906E-1,1.369424347E1
7.003707375E0,4.500504239E0,1.393454055E1,-4.483539712E-1,1.465015290E1
7.013711375E0,6.268025145E0,1.420055729E1,6.862277672E-2,1.552252156E1
7.023715375E0,7.757983401E0,1.326256450E1,4.825530200E-1,1.537253333E1
7.033719375E0,7.776114448E0,1.088812599E1,5.159186943E-1,1.338975040E1
7.043723375E0,7.641593989E0,9.982545487E0,5.092878056E-1,1.258191349E1
7.053727375E0,7.399632112E0,9.872955801E0,1.406322023E0,1.241803339E1
7.063732375E0,6.545877231E0,9.491913807E0,1.744734306E0,1.166143363E1
7.073736375E0,5.034415839E0,9.041446652E0,1.224210345E0,1.042073852E1
7.083740375E0,3.631217984E0,8.258401566E0,4.618223016E-1,9.033284026E0
7.093744375E0,2.371977847E0,7.180252182E0,-3.960621755E-1,7.572262909E0
7.103748375E0,1.297861581E0,6.225984834E0,-1.067033680E0,6.448712485E0
7.113752375E0,5.387937328E-1,5.731177073E0,-1.352093775E0,5.913108058E0
7.123756375E0,8.064903751E-2,5.831981317E0,-1.430976223E0,6.005514407E0
7.133761375E0,-3.259775949E-1,6.577896000E0,-8.262829077E-1,6.637599010E0
7.143765375E0,-6.508532819E-1,7.617070767E0,7.145075333E-1,7.678144182E0
7.153769375E0,-7.862796204E-1,8.691239950E0,2.770519534E0,9.155963412E0
7.163773375E0,-8.554318625E-1,9.558122415E0,4.269866080E0,1.050339108E1
7.173777375E0,-8.923427036E-1,1.013492510E1,4.719962522E0,1.121565996E1
7.183781375E0,-5.710966757E-1,1.047632998E1,4.880289667E0,1.157138145E1
7.193785375E0,1.273754534E-1,1.091309594E1,5.438254373E0,1.219370732E1
7.203790375E0,3.779412156E-1,1.140587823E1,6.326028939E0,1.304820064E1
7.213794375E0,-3.321447263E-1,1.073550431E1,6.165559123E0,1.238448595E1
7.223798375E0,-9.336072354E-1,8.810794460E0,5.798068635E0,1.058864115E1
7.233802375E0,-1.060038437E0,7.765167875E0,7.125511719E0,1.059218726E1
7.243806375E0,-1.485476804E0,7.615956872E0,7.871811733E0,1.105327374E1
7.253810375E0,-1.838578755E0,6.417725560E0,5.742716553E0,8.806041484E0
7.263814375E0,-1.413419519E0,4.290457635E0,2.038737864E0,4.956030017E0
7.273818375E0,-2.483597247E0,-1.048071306E0,-1.086665970E1,1.119602616E1
7.283823375E0,-4.266098427E0,-6.778571271E0,-1.185243477E1,1.430485352E1
7.293827375E0,-3.701699152E0,-1.403460278E1,-1.298175313E1,1.947302150E1
7.303831375E0,-3.921131122E0,-3.067843434E1,-1.168336253E1,3.306119421E1
7.313835375E0,-1.124814842E0,-4.160155942E1,-6.768374897E0,4.216356073E1
7.323839375E0,-1.738158528E0,-3.440598052E1,-1.220121182E1,3.654671340E1
7.333843375E0,-4.113005457E0,-2.292254482E1,-6.936026264E0,2.429955422E1
7.343847375E0,-2.197680096E0,-1.854495900E1,-1.524939458E1,2.410994270E1
7.353852375E0,2.877732326E0,-1.866254416E1,-1.515043279E1,2.420965741E1
7.363856375E0,5.259502652E0,-1.993334527E1,-9.323572469E0,2.262586187E1
7.373860375E0,4.024116085E0,-1.857565220E1,-7.444553931E0,2.041249000E1
7.383864375E0,1.914744586E0,-1.530716156E1,-6.581524197E0,1.677175908E1
7.393868375E0,1.550609378E0,-1.171673025E1,-4.278544810E0,1.256949095E1
7.403872375E0,1.853797304E0,-8.486277500E0,-1.940649652E0,8.900538822E0
7.413876375E0,1.403491824E0,-6.359096113E0,4.045831767E-1,6.524690048E0
7.423881375E0,6.639245863E-1,-4.418417518E0,1.740008002E0,4.794876126E0
7.433885375E0,-7.594338108E-1,-2.542896200E0,2.634153987E0,3.739228266E0
7.443889375E0,-2.019108469E0,-8.871465755E-1,3.298217591E0,3.967627418E0
7.453893375E0,-2.189809744E0,1.889855182E-1,3.656076837E0,4.265897335E0
7.463897375E0,-1.850359579E0,1.598619404E0,3.853893989E0,4.564199103E0
7.473901375E0,-2.028942316E0,3.947020839E0,3.827869202E0,5.860730590E0
7.483905375E0,-3.309250994E0,5.913386838E0,2.882051665E0,7.363797107E0
7.493909375E0,-4.821015857E0,7.543898125E0,1.019228160E0,9.010628106E0
7.503914375E0,-5.750861725E0,9.231641375E0,-1.068444028E0,1.092873212E1
7.513918375E0,-5.257746148E0,1.081859792E1,-2.786641477E0,1.234711814E1
7.523922375E0,-4.004258648E0,1.145082461E1,-3.216093739E0,1.254984982E1
7.533926375E0,-1.956200907E0,1.183996382E1,-2.799664396E0,1.232272641E1
7.543930375E0,-5.641774461E-1,1.171905510E1,-1.619188593E0,1.184383047E1
7.553934375E0,2.066492989E-1,1.128024729E1,-1.902637196E-1,1.128374420E1
7.563938375E0,1.588342338E0,1.152098184E1,1.180490860E0,1.168971396E1
7.573943375E0,3.187411100E0,1.175058212E1,1.651391695E0,1.228669460E1
7.583947375E0,3.846918846E0,1.139976672E1,2.336718113E0,1.225617058E1
7.593951375E0,4.113794831E0,1.109028997E1,3.468599900E0,1.232676051E1
7.603955375E0,4.376429247E0,1.056754187E1,4.509304883E0,1.229471043E1
7.613959375E0,4.128534493E0,9.943136423E0,4.782033055E0,1.178043289E1
7.623963375E0,2.939125459E0,9.257324685E0,4.164813834E0,1.056797961E1
7.633967375E0,1.984483304E0,8.859506444E0,3.160911519E0,9.613552416E0
7.643971375E0,1.284834131E0,8.843276328E0,2.059396369E0,9.170357047E0
7.653976375E0,7.372372685E-1,8.918990754E0,9.574523270E-1,9.000479421E0
7.663980375E0,1.848171113E-1,9.084134250E0,-4.944079573E-1,9.099455570E0
7.673984375E0,-1.834200653E-1,9.348309699E0,-2.655590172E0,9.719912361E0
7.683988375E0,-3.101407036E-2,9.702762065E0,-4.238247846E0,1.058807340E1
7.693992375E0,5.583123234E-1,1.009117389E1,-3.401312481E0,1.066360304E1
7.703996375E0,1.025313358E0,1.038658692E1,-1.011130936E0,1.048593539E1
7.714000375E0,1.389430732E0,1.071758610E1,4.396886900E-1,1.081621448E1
7.724005375E0,1.708493410E0,1.113295827E1,7.322550023E-1,1.128706813E1
7.734009375E0,1.807405348E0,1.145779449E1,7.693918383E-1,1.162496161E1
7.744013375E0,1.625929409E0,1.146303125E1,7.023698831E-1,1.159905407E1
7.754017375E0,1.249914705E0,1.078236857E1,2.233022422E-2,1.085459615E1
7.764021375E0,8.401035328E-1,9.160806450E0,-5.767146805E-1,9.217307014E0
7.774025375E0,6.742026027E-1,7.557122773E0,9.362164092E-1,7.644681479E0
7.784029375E0,3.051096862E-1,5.598356400E0,2.978057098E-1,5.614568064E0
7.794034375E0,2.978975842E-1,1.475764725E0,-2.280437786E0,2.732585038E0
7.804038375E0,-4.050638178E-1,-7.389992393E0,-1.958396244E-1,7.403675940E0
7.814042375E0,-3.288404209E0,-2.565705603E1,-5.554100579E0,2.645649561E1
7.824046375E0,-3.979536620E0,-5.334276845E1,1.338045255E0,5.350773798E1
7.834050375E0,3.152675423E0,-6.672812565E1,-3.624900945E0,6.690083723E1
7.844054375E0,-3.837885775E-1,-5.381308106E1,-1.922856750E1,5.714659041E1
7.854058375E0,-8.426159352E0,-3.387814301E1,-7.964390699E0,3.580726538E1
7.864062375E0,-7.048626680E0,-2.293292480E1,-5.292595553E-1,2.399754766E1
7.874067375E0,-6.708670732E0,-1.934049491E1,-2.077514260E-1,2.047203377E1
7.884071375E0,-4.959105456E0,-1.781455288E1,-5.637630978E-1,1.850050946E1
7.894075375E0,-2.938304510E0,-1.507120536E1,6.977014661E-2,1.535512072E1
7.904079375E0,-1.166676082E0,-1.128867898E1,-1.421706632E-2,1.134881528E1
7.914083375E0,1.075881833E-1,-7.041067985E0,-7.042199421E-1,7.077014859E0
7.924087375E0,1.036600677E0,-3.609578024E0,-1.528121571E-1,3.758582981E0
7.934091375E0,2.676684002E0,-8.173232192E-1,7.538392679E-1,2.898435463E0
7.944096375E0,4.593098115E0,1.793695967E0,9.542489299E-1,5.022398484E0
7.954100375E0,5.273288632E0,4.391691649E0,9.358153633E-1,6.926057965E0
7.964104375E0,4.325508477E0,6.977922149E0,8.041545586E-1,8.249126357E0
7.974108375E0,2.980920480E0,9.043678535E0,8.289096963E-1,9.558300039E0
7.984111958E0,2.052192746E0,1.057709154E1,1.013548175E0,1.082190559E1
7.994115958E0,1.746027418E0,1.187509624E1,1.058555437E0,1.204935940E1
8.004119958E0,1.945919748E0,1.302930503E1,8.460184300E-1,1.320095225E1
8.014124958E0,1.864411608E0,1.402858015E1,2.354498327E-1,1.415388739E1
8.024128958E0,1.462337179E0,1.486973136E1,-7.741128802E-1,1.496150365E1
8.034132958E0,4.515580992E-1,1.510684765E1,-2.508522173E0,1.532036012E1
8.044136958E0,-1.481129107E0,1.402129569E1,-4.936013632E0,1.493836359E1
8.054140958E0,-2.960613685E0,1.202703496E1,-6.903096499E0,1.417982880E1
8.064144958E0,-2.952720528E0,1.008455133E1,-4.780813326E0,1.154438869E1
8.074148958E0,-2.713861184E0,8.727047129E0,-8.504297157E-1,9.178759438E0
8.084152958E0,-1.513615214E0,8.611283369E0,2.329261744E0,9.048242512E0
8.094157958E0,3.357964440E0,1.067359633E1,4.009979564E0,1.188619030E1
8.104161958E0,4.662702201E0,9.309040968E0,2.625288731E0,1.073737289E1
8.114165958E0,4.730203628E0,6.441396258E0,4.440470291E0,9.142438872E0
8.124169958E0,3.749097267E0,7.125572530E0,2.561511980E0,8.449311086E0
8.134173958E0,3.185451698E0,9.372413676E0,2.950550334E-1,9.903347824E0
8.144177958E0,4.287710613E0,1.073060434E1,-5.861529636E-1,1.157038924E1
8.154181958E0,3.658180957E0,1.018362889E1,-3.529577004E0,1.138184955E1
8.164186958E0,1.864256364E0,9.228344715E0,-4.852633506E0,1.059178219E1
8.174190958E0,-1.077231809E-1,8.507881207E0,-3.892227166E0,9.356552743E0
8.184194958E0,-8.182047600E-1,8.264752811E0,-2.404217055E0,8.646146986E0
8.194198958E0,-4.038573179E-1,8.824458234E0,-6.351011753E-1,8.856495772E0
8.204202958E0,-5.149340963E-1,8.990548394E0,1.466382429E0,9.123891439E0
8.214206958E0,-4.920468517E-1,8.968907264E0,4.321122773E0,9.967723393E0
8.224210958E0,2.760704398E-1,9.695999175E0,7.026473919E0,1.197747681E1
8.234214958E0,1.068801951E0,1.038580807E1,7.642578660E0,1.293894723E1
8.244219958E0,1.489512699E0,1.044935561E1,7.201269414E0,1.277755696E1
8.254223958E0,1.170183461E0,9.630378213E0,6.159283891E0,1.149131376E1
8.264227958E0,7.361540718E-1,8.491091512E0,5.629688120E0,1.021439897E1
8.274231958E0,1.934386115E-1,7.603677719E0,5.937372701E0,9.649130943E0
8.284235958E0,2.129581522E-2,6.599358205E0,5.163367994E0,8.379281071E0
8.294239958E0,-1.793260641E0,2.561221958E0,5.951608917E-1,3.182743806E0
8.304243958E0,-7.143641596E0,-1.412412716E1,-1.007755105E1,1.876378476E1
8.314248958E0,-1.164444931E1,-5.132506273E1,-1.365751935E1,5.437263189E1
8.324252958E0,-3.963428126E0,-7.600125302E1,-1.308953252E1,7.722198576E1
8.334256958E0,4.195589777E0,-6.394336814E1,-1.387846341E1,6.556652385E1
8.344260958E0,1.500024531E0,-3.508641633E1,-8.750437746E0,3.619222078E1
8.354264958E0,-9.722446132E-1,-2.436988506E1,-5.609651467E0,2.502608134E1
8.364268958E0,-1.647890967E0,-2.103288377E1,-1.941935163E0,2.118652535E1
8.374272958E0,-4.596406323E-1,-1.992995155E1,-2.140400187E0,2.004982671E1
8.384277958E0,1.199629747E-1,-1.630652088E1,-2.635462886E0,1.651855560E1
8.394281958E0,-8.255065437E-1,-1.123403324E1,-7.272532940E-1,1.128777486E1
8.404285958E0,-1.420565986E0,-6.071475669E0,2.055112699E0,6.565387477E0
8.414289958E0,-1.677701680E0,-2.483975562E0,2.643659221E0,3.996717602E0
8.424293958E0,-1.499269217E0,5.090147406E-1,1.444433151E0,2.143196519E0
8.434297958E0,-3.190616544E-1,3.466842812E0,2.681205654E-1,3.491802981E0
8.444301958E0,6.402457749E-1,6.492481627E0,5.267358971E-1,6.545203056E0
8.454305958E0,5.938213677E-1,8.845491838E0,1.698461781E0,9.026634040E0
8.464310958E0,2.702614503E-1,1.082358326E1,2.367061654E0,1.108268815E1
8.474314958E0,2.409739897E-2,1.200382854E1,2.177132249E0,1.219968791E1
8.484318958E0,-9.509801902E-2,1.288443091E1,1.985706249E0,1.303689506E1
8.494322958E0,-1.348743248E-1,1.363483099E1,1.311609993E0,1.369843524E1
8.504326958E0,-3.946483187E-1,1.388609754E1,8.514377756E-1,1.391777276E1
8.514330958E0,-4.966028559E-1,1.402175177E1,1.385755757E-1,1.403122733E1
8.524334958E0,-9.852682628E-1,1.375988539E1,-1.394060411E0,1.386537428E1
8.534339958E0,-2.346634260E0,1.240618480E1,-3.414280436E0,1.307965690E1
8.544343958E0,-3.187806664E0,1.049550184E1,-5.105291694E0,1.209882942E1
8.554347958E0,-2.586958478E0,9.070894985E0,-5.722515593E0,1.103270931E1
8.564351958E0,-6.968305233E-1,8.770434639E0,-3.843213465E0,9.600853414E0
8.574355958E0,1.419902766E0,8.857799642E0,-1.205103033E0,9.051464615E0
8.584359958E0,2.660458271E0,8.767069566E0,5.889676671E-1,9.180764124E0
8.594363958E0,3.355557142E0,8.643492756E0,2.837116982E0,9.696337635E0
8.604367958E0,3.477090057E0,8.851960028E0,3.614655161E0,1.017413797E1
8.614372958E0,2.272192773E0,9.109452694E0,2.692868510E0,9.767114681E0
8.624376958E0,9.882621834E-1,9.408943571E0,1.645264836E0,9.602696374E0
8.634380958E0,4.567162571E-1,9.773584126E0,5.855167866E-1,9.801753226E0
8.644384958E0,8.643840227E-2,9.957812934E0,-3.587558433E-1,9.964648302E0
8.654388958E0,-1.961034435E-1,1.009476876E1,-1.166321741E0,1.016381421E1
8.664392958E0,-2.479975189E-1,1.030028669E1,-1.725082984E0,1.044668943E1
8.674396958E0,-6.861835476E-2,1.056517258E1,-1.703286903E0,1.070181136E1
8.684401958E0,2.076776779E-1,1.068668825E1,-1.030243145E0,1.073824178E1
8.694405958E0,5.280303244E-1,1.069489891E1,-1.999630809E-2,1.070794464E1
8.704409958E0,8.725699054E-1,1.072524595E1,6.265760811E-1,1.077890888E1
8.714413958E0,1.004393774E0,1.068683209E1,9.500639315E-1,1.077589014E1
8.724417958E0,1.151716273E0,1.067873019E1,1.036817755E0,1.079058478E1
8.734421958E0,1.312810719E0,1.048021371E1,1.405105656E0,1.065517120E1
8.744425958E0,1.366648518E0,9.865644443E0,2.111892525E0,1.018129454E1
8.754429958E0,1.605330984E0,9.010186268E0,2.909746417E0,9.603497715E0
8.764434958E0,1.735385193E0,7.980226713E0,3.541464393E0,8.901547630E0
8.774438958E0,1.512111018E0,5.471902760E0,2.654709581E0,6.267031395E0
8.784442958E0,-5.131409014E-1,-3.888465067E0,5.014632078E-1,3.954104135E0
8.794446958E0,-4.783868788E0,-2.658052317E1,-4.836149036E0,2.743716367E1
8.804450958E0,-5.411223280E0,-5.491917779E1,-8.147463512E0,5.578331819E1
8.814454958E0,2.199505889E0,-6.853590697E1,-1.371340470E1,6.992900571E1
8.824458958E0,3.410636159E0,-4.844188957E1,-1.241983220E1,5.012485747E1
8.834463958E0,-3.514283904E0,-2.986817865E1,-7.618299267E-1,3.008386065E1
8.844467958E0,-2.807506682E0,-2.123789183E1,4.952217436E-1,2.142837809E1
8.854471958E0,-2.603983231E0,-1.977892732E1,-1.575444549E0,2.001171457E1
8.864475958E0,-9.032563855E-1,-2.181586103E1,-3.925518873E0,2.218461996E1
8.874479958E0,1.040992813E0,-1.978656379E1,-2.648674085E0,1.999017876E1
8.884483958E0,8.286417476E-1,-1.476063167E1,-8.116311009E-1,1.480613520E1
8.894487958E0,-8.487809470E-1,-9.746294001E0,-3.319557150E-1,9.788813536E0
8.904492958E0,-2.098410746E0,-5.683600034E0,-4.473573133E-2,6.058765410E0
8.914496958E0,-1.928793838E0,-2.573679451E0,-1.063550055E-1,3.217978088E0
8.924500958E0,-1.362266176E0,3.135756505E-1,-2.126058575E-1,1.413966080E0
8.934504958E0,-1.376794168E0,3.382430068E0,-1.055574453E-1,3.653428215E0
8.944508958E0,-1.463564510E0,6.201587911E0,2.247376605E-1,6.375909403E0
8.954512958E0,-1.065058344E0,8.676597937E0,7.709623273E-1,8.775652908E0
8.964516958E0,-7.916287263E-1,1.056958723E1,9.501246694E-1,1.064169099E1
8.974520958E0,-4.134569842E-1,1.189095622E1,8.526843289E-1,1.192865697E1
8.984526083E0,-1.267675623E-1,1.277020672E1,8.725682974E-1,1.280061034E1
8.994530083E0,1.288203004E-1,1.331355806E1,9.353849351E-1,1.334699846E1
9.004534083E0,4.436841656E-1,1.368850960E1,8.637846100E-1,1.372291057E1
9.014538083E0,7.578530891E-1,1.413822480E1,6.351374280E-1,1.417276054E1
9.024542083E0,9.233607940E-1,1.457474050E1,5.411880215E-1,1.461398441E1
9.034546083E0,9.750620209E-1,1.386422428E1,7.361457396E-1,1.391795140E1
9.044550083E0,1.027192653E0,1.118841326E1,1.592251786E0,1.134773025E1
9.054555083E0,1.622265105E0,9.813599546E0,1.880800184E0,1.012303756E1
9.064559083E0,1.944139270E0,9.172103856E0,1.259175671E0,9.460057611E0
9.074563083E0,1.695560538E0,8.906864213E0,3.666167669E-1,9.074225229E0
9.084567083E0,1.413188116E0,9.206918178E0,-1.323248291E-1,9.315683165E0
9.094571083E0,8.949424488E-1,9.257541032E0,-1.375452232E-1,9.301715252E0
9.104575083E0,-2.140958011E-3,9.015597281E0,4.338765576E-2,9.015701937E0
9.114579083E0,-5.968921061E-1,8.742592537E0,2.256406899E-1,8.765849541E0
9.124583083E0,-6.246130977E-1,8.540035631E0,1.993128705E-1,8.565166415E0
9.134588083E0,-4.235946675E-1,8.435820122E0,-1.057131274E-1,8.447110088E0
9.144592083E0,-1.978573523E-1,8.480149033E0,-6.436860573E-1,8.506844709E0
9.154596083E0,2.612791769E-1,8.728149329E0,-1.274190152E0,8.824535006E0
9.164600083E0,8.853838592E-1,9.203720335E0,-1.980930244E0,9.456027560E0
9.174604083E0,1.609739931E0,9.830507355E0,-2.631530049E0,1.030315912E1
9.184608083E0,2.105605891E0,1.010347877E1,-3.488717830E0,1.089426508E1
9.194612083E0,2.402265401E0,1.016572355E1,-3.136002088E0,1.090629742E1
9.204617083E0,2.529663074E0,1.029217894E1,3.375083041E-1,1.060386979E1
9.214621083E0,3.098582246E0,1.065796204E1,4.554887145E0,1.199751490E1
9.224625083E0,3.888070965E0,1.079419866E1,6.004340862E0,1.294928298E1
9.234629083E0,3.999464808E0,1.056298104E1,6.146284361E0,1.285881405E1
9.244633083E0,3.430457051E0,1.012926031E1,7.161822928E0,1.287096180E1
9.254637083E0,3.068695958E0,8.683946718E0,6.679065109E0,1.137707063E1
9.264641083E0,1.815869193E0,5.274533504E0,5.067456116E0,7.536391451E0
9.274645083E0,-1.362346576E0,-1.374861079E0,-2.950841233E-1,1.957882994E0
9.284650083E0,-2.801579652E0,-1.559589005E1,-1.053378706E1,1.902738303E1
9.294654083E0,-3.331063155E0,-3.994195590E1,-1.115028591E1,4.160270062E1
9.304658083E0,-1.900794738E0,-6.273842540E1,-5.053207036E0,6.297029413E1
9.314662083E0,1.277174424E-1,-5.725581872E1,-2.029331624E1,6.074589512E1
9.324666083E0,-6.411265556E0,-3.590340333E1,-1.186442156E1,3.835261654E1
9.334670083E0,-5.883988207E0,-2.411394074E1,-1.225191362E0,2.485165083E1
9.344674083E0,-3.414442989E0,-2.126601927E1,-1.985224731E0,2.162968132E1
9.354679083E0,-1.790741076E0,-2.100872073E1,-2.218394735E0,2.120128241E1
9.364683083E0,6.210664690E-1,-1.738365519E1,-1.540572632E0,1.746283354E1
9.374687083E0,1.366715907E0,-1.308032433E1,-1.198910320E0,1.320606614E1
9.384691083E0,3.619249611E-1,-9.171503347E0,3.653340340E-3,9.178642419E0
9.394695083E0,-1.144863848E0,-5.506776139E0,1.599307183E0,5.847484941E0
9.404699083E0,-1.396053581E0,-2.375776929E0,2.026704587E0,3.420645129E0
9.414703083E0,-1.182399829E0,4.484042573E-1,2.005978546E0,2.371304633E0
9.424707083E0,-1.362453141E0,2.875396364E0,2.140865625E0,3.835034346E0
9.434712083E0,-1.508851780E0,4.864979317E0,1.819000962E0,5.408643263E0
9.444716083E0,-1.490392851E0,6.905313764E0,1.246337671E0,7.173422239E0
9.454720083E0,-1.668908637E0,8.932926423E0,7.131731987E-1,9.115429037E0
9.464724083E0,-1.772074133E0,1.065314511E1,4.971314442E-1,1.081096143E1
9.474728083E0,-1.886234440E0,1.175119607E1,5.138392782E-1,1.191270416E1
9.484732083E0,-1.884854643E0,1.232114523E1,4.535708570E-1,1.247273119E1
9.494736083E0,-1.471280642E0,1.261601564E1,-1.862937525E-2,1.270153000E1
9.504741083E0,-5.978359563E-1,1.296383843E1,-9.576488665E-1,1.301290153E1
9.514745083E0,3.855004960E-1,1.319696692E1,-2.004480489E0,1.335389414E1
9.524749083E0,1.409497207E0,1.302318533E1,-2.623520533E0,1.335937493E1
9.534753083E0,2.093986305E0,1.160350008E1,-2.448630459E0,1.204249908E1
9.544757083E0,2.245322186E0,9.644313882E0,-1.650462864E0,1.003883906E1
9.554761083E0,2.391662937E0,8.722437184E0,-4.546642864E-1,9.055809277E0
9.564765083E0,2.298266239E0,8.307606470E0,-2.086190797E-1,8.622173443E0
9.574770083E0,1.874178066E0,8.246593698E0,-2.483522987E-1,8.460527756E0
9.584774083E0,1.736302329E0,9.151477802E0,5.496980591E-1,9.330940987E0
9.594778083E0,1.588257992E0,9.830340124E0,8.383025904E-1,9.993042662E0
9.604782083E0,6.575898591E-1,9.689973620E0,1.022012604E0,9.765885671E0
9.614786083E0,-4.116509620E-1,9.578692920E0,1.086481519E0,9.648899246E0
9.624790083E0,-6.955779035E-1,9.590039442E0,6.489916746E-1,9.637109282E0
9.634794083E0,-8.406343869E-1,9.450224329E0,4.770788567E-1,9.499526845E0
9.644798083E0,-5.414987279E-1,9.298033585E0,6.270122834E-1,9.334869781E0
9.654803083E0,6.956176646E-2,9.184480072E0,8.333929758E-1,9.222475638E0
9.664807083E0,5.989157178E-1,9.185361248E0,1.022133057E0,9.261442505E0
9.674811083E0,1.003796481E0,9.354200184E0,1.085327425E0,9.470301161E0
9.684815083E0,1.212919372E0,9.650664543E0,1.382024503E0,9.824280699E0
9.694819083E0,1.219164636E0,9.995083086E0,2.065463148E0,1.027882222E1
9.704823083E0,9.932812140E-1,1.018030885E1,2.766369181E0,1.059613581E1
9.714827083E0,7.850930741E-1,1.018207470E1,3.026298966E0,1.065126762E1
9.724832083E0,6.377379041E-1,9.755916764E0,3.161723697E0,1.027526731E1
9.734836083E0,6.673731279E-1,9.293611336E0,4.194613584E0,1.021818877E1
9.744840083E0,1.069389450E0,8.294026896E0,4.461974012E0,9.478591036E0
9.754844083E0,6.644806565E-1,3.783541460E0,5.980880079E-1,3.887728101E0
9.764848083E0,2.729036244E-1,-2.984011318E0,-4.055089371E-1,3.023778668E0
9.774852083E0,3.789155810E-1,-1.115425383E1,2.475381909E0,1.143190584E1
9.784856083E0,8.363676006E-1,-2.368935336E1,1.807997671E0,2.377296425E1
9.794861083E0,2.440763176E0,-4.268001520E1,-3.389495258E0,4.288390958E1
9.804865083E0,4.131741106E0,-5.291872838E1,-1.056669052E1,5.412132709E1
9.814869083E0,-1.348409445E0,-4.740282064E1,-1.274918364E1,4.910587843E1
9.824873083E0,-5.131447459E0,-3.306725114E1,-9.049636847E0,3.466512337E1
9.834877083E0,-5.180457652E0,-2.347104640E1,-7.695779552E0,2.523791163E1
9.844881083E0,-4.050066320E0,-2.091654757E1,-5.839941716E0,2.209094653E1
9.854885083E0,-2.132785212E0,-1.860954266E1,-4.222756526E0,1.920144587E1
9.864889083E0,-1.280116743E0,-1.540005511E1,-1.900433965E0,1.556958720E1
9.874894083E0,-1.037323904E0,-1.123295267E1,-2.351947917E0,1.152332095E1
9.884898083E0,-2.168310555E-1,-7.636118072E0,-2.439812711E0,8.019351656E0
9.894902083E0,1.960921145E-1,-5.083558763E0,4.727732594E-1,5.109259865E0
9.904906083E0,3.692968747E-1,-2.644275225E0,1.830415019E0,3.237126934E0
9.914910083E0,2.517299429E-1,-2.260644668E-1,1.506073037E0,1.543609115E0
9.924914083E0,6.455840635E-1,2.380003881E0,1.576289180E0,2.926753293E0
9.934918083E0,5.756184737E-1,4.838715379E0,2.745355457E0,5.592984868E0
9.944923083E0,-2.830693377E-1,6.792969455E0,3.538743099E0,7.664676444E0
9.954927083E0,-1.196578743E0,8.095394642E0,3.389211084E0,8.857424392E0
9.964931083E0,-1.464984506E0,9.139509721E0,2.983228376E0,9.725043398E0
9.974935083E0,-1.316634505E0,1.009564350E1,2.221419353E0,1.042066447E1
9.984938958E0,-1.139363884E0,1.082454922E1,1.265539927E0,1.095767344E1
9.994942958E0,-1.079550010E0,1.120972519E1,1.597046503E0,1.137426590E1
1.000494696E1,-7.337442881E-1,1.205867074E1,2.514047792E0,1.233978756E1
1.001495096E1,-8.513304792E-2,1.305974914E1,2.249134863E0,1.325227916E1
1.002495596E1,4.138012391E-1,1.356987895E1,1.092563939E0,1.362007864E1
1.003495996E1,1.092981869E0,1.380911895E1,7.957022622E-2,1.385253431E1
1.004496396E1,1.820260891E0,1.318847910E1,-6.008049166E-1,1.332705134E1
1.005496796E1,2.763809854E0,1.152425394E1,-1.813876316E0,1.198904588E1
1.006497196E1,3.116566235E0,1.019162905E1,-3.481458804E0,1.121172794E1
1.007497596E1,2.633557863E0,9.777297108E0,-4.214598198E0,1.096786231E1
1.008497996E1,1.583371912E0,9.506126634E0,-3.237791587E0,1.016645487E1
1.009498496E1,9.921439306E-1,8.991266432E0,-7.519226968E-1,9.077037478E0
1.010498896E1,7.870477983E-1,8.574559931E0,1.297654590E0,8.707837256E0
1.011499296E1,5.595420294E-1,8.450827001E0,2.215439990E0,8.754298295E0
1.012499696E1,3.580846195E-1,8.278690234E0,2.380891196E0,8.621692379E0
1.013500096E1,-8.856949311E-2,8.098200136E0,2.233636087E0,8.401060657E0
1.014500496E1,-5.097063931E-1,8.155626810E0,1.846760033E0,8.377623284E0
1.015500896E1,-6.136933494E-1,8.245131894E0,1.100411780E0,8.340846814E0
1.016501296E1,-3.670432847E-1,8.409421113E0,2.392820978E-1,8.420827759E0
1.017501796E1,3.172825294E-1,8.712674088E0,-6.716521204E-1,8.744282392E0
1.018502196E1,1.193751906E0,9.129009876E0,-2.553926387E-1,9.210270915E0
1.019502596E1,1.608638608E0,9.681945392E0,2.944924436E0,1.024696856E1
1.020502996E1,1.895761309E0,1.055825883E1,6.636985037E0,1.261428995E1
1.021503396E1,1.576078826E0,1.028504183E1,6.931137407E0,1.250227082E1
1.022503796E1,1.142152713E0,9.040401755E0,3.899824161E0,9.911710508E0
1.023504196E1,9.357086516E-1,7.750703033E0,2.521018842E0,8.203931021E0
1.024504696E1,1.172759598E0,6.206090267E0,1.986058544E0,6.620826989E0
1.025505096E1,1.311487494E0,3.736398869E0,1.368415985E0,4.189658490E0
1.026505496E1,2.231837045E0,-2.639649493E-1,1.155265971E0,2.526937584E0
1.027505896E1,3.947130474E0,-7.778315924E0,-6.536225232E-1,8.746957185E0
1.028506296E1,2.941416983E0,-2.282087344E1,-3.679542882E0,2.330200065E1
1.029506696E1,2.316110479E0,-4.305474220E1,-2.872033045E0,4.321254179E1
1.030507096E1,3.518036354E0,-5.307792701E1,-7.610691454E0,5.373607298E1
1.031507596E1,-5.736468219E0,-5.331100170E1,-1.145706826E1,5.482913809E1
1.032507996E1,-1.504589393E1,-3.784833227E1,-1.588722641E1,4.371817863E1
1.033508396E1,-1.306992564E1,-2.075925980E1,-1.743562758E1,3.009602852E1
1.034508796E1,-9.432330680E0,-1.574396144E1,-8.343687884E0,2.016081127E1
1.035509196E1,-2.703567161E0,-1.544791574E1,-5.452309325E0,1.660346509E1
1.036509596E1,9.551964712E-1,-1.419621632E1,-3.779184700E0,1.472165735E1
1.037509996E1,2.168905655E0,-1.078759365E1,-7.897670460E-1,1.103177503E1
1.038510396E1,3.052772820E0,-7.152365642E0,-5.112265961E-1,7.793401619E0
1.039510896E1,1.957704226E0,-4.172480704E0,1.136970618E-1,4.610328414E0
1.040511296E1,2.165245737E0,-1.230822523E0,8.662452646E-1,2.636966826E0
1.041511696E1,3.000992802E0,1.062536148E0,1.688696053E0,3.603697438E0
1.042512096E1,3.473046415E0,3.365243347E0,2.650903336E0,5.514907314E0
1.043512496E1,2.723404425E0,5.307777849E0,3.722081084E0,7.031594766E0
1.044512896E1,1.503910444E-1,7.023652053E0,4.266642803E0,8.219400613E0
1.045513296E1,-1.611704888E0,8.372566112E0,3.695841119E0,9.292830437E0
1.046513796E1,-2.397845491E0,9.350664373E0,3.060815957E0,1.012685447E1
1.047514196E1,-2.315891793E0,1.041420449E1,2.426560582E0,1.094107884E1
1.048514596E1,-1.719286639E0,1.164738578E1,1.970184231E0,1.193730153E1
1.049514996E1,-1.349535618E0,1.252440264E1,2.643598702E0,1.287130614E1
1.050515396E1,-9.736980117E-1,1.317251387E1,2.503071399E0,1.344353286E1
1.051515796E1,-2.997862714E-1,1.383483266E1,9.819429512E-1,1.387287564E1
1.052516196E1,5.764867487E-1,1.416327544E1,8.287755758E-2,1.417524522E1
1.053516596E1,1.803334955E0,1.282548045E1,-1.335382433E0,1.302029999E1
1.054517096E1,3.154780128E0,1.064087531E1,-4.126670108E0,1.184104181E1
1.055517496E1,3.973197946E0,9.194837245E0,-7.006944219E0,1.222409920E1
1.056517896E1,4.364948531E0,8.843259371E0,-7.901633703E0,1.263692317E1
1.057518296E1,4.514419151E0,9.662550178E0,-3.967183208E0,1.137907724E1
1.058518696E1,3.703056875E0,1.053752694E1,3.734608159E0,1.177707105E1
1.059519096E1,1.618932339E0,9.880674126E0,6.291140943E0,1.182485169E1
1.060519496E1,1.497279994E0,9.478864576E0,4.389924620E0,1.055282707E1
1.061519996E1,6.823871697E-1,9.389737807E0,4.271823728E0,1.033834156E1
1.062520396E1,-6.109525036E-1,9.121225478E0,3.840426682E0,9.915588449E0
1.063520796E1,-1.495338280E0,9.001196174E0,2.856385896E0,9.561198122E0
1.064521196E1,-2.321090260E0,8.897848976E0,2.410968397E0,9.506415992E0
1.065521596E1,-2.905354573E0,8.886249855E0,2.518796901E0,9.682502750E0
1.066521996E1,-3.019641034E0,9.088535450E0,3.182768995E0,1.009206258E1
1.067522396E1,-1.954888792E0,9.811031449E0,3.398661354E0,1.056545443E1
1.068522796E1,-7.052493444E-1,9.934066222E0,2.797296274E0,1.034446300E1
1.069523296E1,-3.008229097E-1,8.949171157E0,2.561524844E0,9.313407988E0
1.070523696E1,1.493291169E-2,7.823795568E0,2.562698965E0,8.232826129E0
1.071524096E1,5.770897428E-1,6.128928071E0,1.647821531E0,6.372762954E0
1.072524496E1,9.703393710E-1,-7.837455833E-1,-1.564047157E0,2.000514719E0
1.073524896E1,3.368510186E0,-1.576464421E1,-5.640780873E0,1.707891322E1
1.074525296E1,7.606902459E0,-2.402289491E1,-1.345139097E0,2.523437822E1
1.075525696E1,7.173786331E0,-2.742628316E1,4.097595413E0,2.864357705E1
1.076526196E1,1.777636004E0,-2.602206964E1,4.643354349E0,2.649280728E1
1.077526596E1,-2.435963489E0,-1.406857628E1,-2.280884513E0,1.445894847E1
1.078526996E1,-4.001874738E0,-7.083602970E0,-6.808700219E0,1.060899765E1
1.079527396E1,-2.747871514E0,-6.396756860E0,-4.029844894E0,8.044187097E0
1.080527796E1,-1.737424848E0,-1.275636285E1,-2.120952348E0,1.304767708E1
1.081528196E1,-3.388731027E0,-2.363676116E1,-3.799941730E0,2.417890679E1
1.082528596E1,-4.161558105E0,-2.314914782E1,-5.792517289E0,2.422302349E1
1.083528996E1,-2.880640731E0,-1.159705178E1,-7.860120810E0,1.430283888E1
1.084529496E1,-3.307146581E0,-4.355119654E0,-5.532916117E0,7.779296014E0
1.085529896E1,-2.077602552E0,-9.500906825E-1,1.548396499E0,2.759825427E0
1.086530296E1,1.223346419E0,1.970735623E0,6.504657869E0,6.905863404E0
1.087530696E1,1.664764423E0,5.190800791E0,1.609386613E0,5.683834859E0
1.088531096E1,5.279013568E-1,7.738588772E0,8.976434970E-1,7.808341685E0
1.089531496E1,-6.389661849E-1,9.091237448E0,1.687753482E0,9.268623843E0
1.090531896E1,-2.142056411E0,9.942600818E0,2.590013648E0,1.049532693E1
1.091532396E1,-2.515934981E0,1.024602921E1,2.846892357E0,1.092775546E1
1.092532796E1,-1.657976975E0,9.226504011E0,2.516079115E0,9.706076346E0
1.093533196E1,-4.089992863E-1,8.373406942E0,2.776814647E0,8.831303630E0
1.094533596E1,-6.259113988E-1,7.126444935E0,2.681200976E0,7.639818137E0
1.095533996E1,-3.793475441E-1,4.605493920E0,1.975164012E0,5.025510091E0
1.096534396E1,7.202927685E-1,1.654873127E0,1.772201163E0,2.529451265E0
1.097534796E1,1.550130783E0,-8.645348078E-1,1.309390390E0,2.205635752E0
1.098535283E1,2.522011700E0,-4.037630462E0,2.357772768E-1,4.766402594E0
1.099535683E1,3.260032349E0,-8.211243187E0,-1.029386017E0,8.894490494E0
1.100536083E1,4.610685370E0,-1.118162114E1,-2.771934561E0,1.240849274E1
1.101536483E1,4.874845032E0,-1.010363548E1,-5.223709506E0,1.237476080E1
1.102536883E1,1.830363271E0,-5.804915725E0,-6.677686336E0,9.035417593E0
1.103537283E1,-9.425256280E-1,-2.570399163E0,-5.588780415E0,6.223324911E0
1.104537683E1,-2.009513773E0,1.149170834E-1,-3.432176424E0,3.978842363E0
1.105538083E1,-1.198148428E0,2.707302947E0,-1.246384302E0,3.212245746E0
1.106538583E1,-9.535527823E-2,4.487580138E0,1.159766062E0,4.636003176E0
1.107538983E1,6.755430038E-1,4.915761800E0,2.862005070E0,5.728188671E0
1.108539383E1,1.586050375E0,4.186701132E0,3.401761547E0,5.622811022E0
1.109539783E1,2.172016520E0,2.557774440E0,3.355467972E0,4.745422127E0
1.110540183E1,2.179138137E0,1.552991241E-1,3.475305487E0,4.104937157E0
1.111540583E1,2.182701722E0,-1.334608846E0,2.818467872E0,3.806458817E0
1.112540983E1,1.596131706E0,-1.650966017E0,1.158003711E0,2.571827717E0
1.113541483E1,3.999206800E-1,-1.353671939E0,-4.779443908E-1,1.490233240E0
1.114541883E1,-4.589656444E-1,-9.186449414E-1,-1.690978514E0,1.978374668E0
1.115542283E1,-9.861886145E-1,-5.648919028E-1,-2.604996554E0,2.842125594E0
1.116542683E1,-1.094995869E0,-1.909145147E-1,-3.255046721E0,3.439592048E0
1.117543083E1,-5.875567339E-1,9.061196208E-2,-3.494244618E0,3.544457490E0
1.118543483E1,2.010093670E-1,2.594356960E-1,-2.923778565E0,2.942140843E0
1.119543883E1,9.591224380E-1,4.717030728E-1,-1.835228155E0,2.123789542E0
1.120544283E1,1.490227228E0,8.173664886E-1,-8.883908629E-1,1.917838235E0
1.121544783E1,1.742214595E0,1.039973497E0,-2.113662478E-1,2.039983397E0
1.122545183E1,1.678577154E0,1.039265399E0,3.139932147E-1,1.999071177E0
1.123545583E1,1.512943076E0,6.616603982E-1,5.326895320E-1,1.735093477E0
1.124545983E1,1.256343572E0,1.182862490E-1,4.704704066E-1,1.346749127E0
1.125546383E1,8.982018330E-1,-3.296198255E-1,2.275495134E-2,9.570441735E-1
1.126546783E1,5.841321659E-1,-6.517932218E-1,-4.875653263E-1,1.001880601E0
1.127547183E1,5.073900552E-1,-9.076849204E-1,-1.089985244E0,1.506454252E0
1.128547683E1,5.115260101E-1,-7.211686814E-1,-1.577661667E0,1.808524112E0
1.129548083E1,3.186127709E-1,-2.824082369E-1,-1.431066270E0,1.493056991E0
1.130548483E1,1.031545686E-1,4.856346488E-2,-6.756995630E-1,6.852511763E-1
1.131548883E1,2.166840346E-1,4.016645390E-1,4.068960428E-2,4.581943001E-1
1.132549283E1,3.788227565E-1,7.191970003E-1,7.317088723E-1,1.093685915E0
1.133549683E1,5.021394382E-1,9.374992883E-1,1.252598723E0,1.643183645E0
1.134550083E1,5.188825748E-1,9.361140829E-1,1.361849270E0,1.732103385E0
1.135550483E1,4.476650961E-1,8.521714550E-1,1.238464833E0,1.568564749E0
1.136550983E1,3.410611454E-1,6.481030440E-1,1.173550142E0,1.383322159E0
1.137551383E1,2.188416937E-1,2.488949203E-1,1.139193145E0,1.186423782E0
1.138551783E1,-1.472651229E-1,-1.877166724E-1,9.485283065E-1,9.780749019E-1
1.139552183E1,-6.503675245E-1,-4.645495892E-1,5.624939962E-1,9.773350160E-1
1.140552583E1,-1.124383610E0,-5.874849594E-1,1.532462398E-1,1.277834688E0
1.141552983E1,-1.476060741E0,-7.343260860E-1,-1.703329003E-1,1.657408642E0
1.142553383E1,-1.543949107E0,-7.873293418E-1,-4.301761472E-1,1.785698142E0
1.143553883E1,-1.365705655E0,-6.671281296E-1,-5.723616843E-1,1.624133546E0
1.144554283E1,-1.066100464E0,-4.162895948E-1,-5.389273417E-1,1.265033559E0
1.145554683E1,-7.757850377E-1,-6.388960183E-2,-4.344212258E-1,8.914292498E-1
1.146555083E1,-4.576262666E-1,2.160628045E-1,-4.141781287E-1,6.539483600E-1
1.147555483E1,-1.298724338E-1,4.182846648E-1,-4.860954094E-1,6.543070050E-1
1.148555883E1,1.297748584E-1,5.317083693E-1,-5.598907793E-1,7.829642319E-1
1.149556283E1,3.667813660E-1,6.421353757E-1,-5.502943289E-1,9.217864502E-1
1.150556683E1,6.166116947E-1,7.843917006E-1,-5.200724101E-1,1.125146939E0
1.151557183E1,8.937599956E-1,9.932904965E-1,-4.644161996E-1,1.414607842E0
1.152557583E1,1.202281386E0,1.093268529E0,-2.730894927E-1,1.647815062E0
1.153557983E1,1.510305982E0,7.095479250E-1,-1.246275910E-1,1.673324372E0
1.154558383E1,1.778622429E0,-2.563846189E-1,-2.883074927E-1,1.819986821E0
1.155558783E1,1.835757328E0,-1.176538142E0,-6.319004095E-1,2.270142087E0
1.156559183E1,1.626077636E0,-1.513617260E0,-8.480661249E-1,2.377894414E0
1.157559583E1,1.122527265E0,-1.405588197E0,-9.810306394E-1,2.048942839E0
1.158560083E1,5.359476737E-1,-1.000778441E0,-1.042042826E0,1.540990152E0
1.159560483E1,-5.883154102E-2,-3.531595463E-1,-9.070025504E-1,9.751084256E-1
1.160560883E1,-3.334903168E-1,2.123404670E-1,-4.247510640E-1,5.802738420E-1
1.161561283E1,-2.237681922E-1,5.660116446E-1,9.930329997E-2,6.166867365E-1
1.162561683E1,8.320412457E-2,7.989115065E-1,4.328600923E-1,9.124419878E-1
1.163562083E1,2.997924475E-1,8.904362190E-1,4.615371402E-1,1.046789713E0
1.164562483E1,2.341122090E-1,7.646187562E-1,1.542623762E-1,8.143999321E-1
1.165562883E1,3.578686014E-2,5.214289641E-1,-2.727971685E-1,5.895652289E-1
1.166563383E1,-1.421135797E-1,2.875245506E-1,-5.811874716E-1,6.638113541E-1
1.167563783E1,-2.380337173E-1,1.114520234E-1,-7.503392708E-1,7.950412728E-1
1.168564183E1,-2.265339252E-1,-1.489461243E-2,-7.943173492E-1,8.261231869E-1
1.169564583E1,-2.256744576E-1,-8.764508486E-2,-7.111828796E-1,7.512600814E-1
1.170564983E1,-2.088075793E-1,-1.044371188E-1,-6.019591204E-1,6.456488981E-1
1.171565383E1,-1.755151413E-1,-7.687159002E-2,-4.160329020E-1,4.580373148E-1
1.172565783E1,-1.423917245E-1,-1.853567362E-2,-2.990534326E-1,3.317407571E-1
1.173566283E1,-1.013577923E-1,7.364568114E-2,-3.797801650E-1,3.999125681E-1
1.174566683E1,6.995937712E-3,1.958127272E-1,-6.439106635E-1,6.730620401E-1
1.175567083E1,1.163798740E-1,3.941105211E-1,-7.989471745E-1,8.984341743E-1
1.176567483E1,1.540062317E-1,6.876284677E-1,-7.356125466E-1,1.018664149E0
1.177567883E1,1.355661235E-1,1.056207706E0,-4.689325889E-1,1.163550887E0
1.178568283E1,1.920740906E-2,1.492464373E0,-3.489431921E-1,1.532834036E0
1.179568683E1,-2.494134953E-1,1.993719274E0,-4.219131544E-2,2.009702401E0
1.180569183E1,-6.496098715E-1,2.693759626E0,9.761784737E-1,2.937900325E0
1.181569583E1,-8.997293450E-1,3.590866933E0,1.493024390E0,3.991611211E0
1.182569983E1,-8.046730605E-1,4.470851254E0,8.721648395E-1,4.625654676E0
1.183570383E1,5.046714653E-1,4.779067932E0,-8.149792166E-1,4.874256324E0
1.184570783E1,1.163682161E0,4.103075423E0,-2.660999139E-1,4.273194738E0
1.185571183E1,-1.006629384E0,2.691742921E0,6.961844060E-1,2.956933445E0
1.186571583E1,-1.694779204E0,2.703001735E0,2.011755595E0,3.771691332E0
1.187572083E1,-4.947382519E-1,4.066467760E0,3.030945164E0,5.095836984E0
1.188572483E1,-3.919133567E-1,4.230226636E0,2.254396334E0,4.809440331E0
1.189572883E1,-1.330417708E0,2.316483239E0,4.541567481E-1,2.709679728E0
1.190573283E1,-1.170758754E-2,-4.566336286E-1,-5.929053283E-1,7.484571241E-1
1.191573683E1,2.834159460E0,-3.308168675E0,-7.350520179E-1,4.417775605E0
1.192574083E1,3.802191154E0,-5.452256116E0,-1.052813105E0,6.729945747E0
1.193574483E1,2.327572191E0,-6.048078035E0,-1.819649710E0,6.731119171E0
1.194574883E1,3.169971121E-2,-5.704545345E0,-2.431864884E0,6.201355438E0
1.195575383E1,-1.419459108E0,-5.802459894E0,-4.664456950E0,7.578955312E0
1.196575783E1,-2.459484499E0,-7.002536588E0,-4.925784513E0,8.907745828E0
1.197576183E1,-2.903562986E0,-9.019040122E0,-2.421813228E0,9.779516453E0
1.198576583E1,-2.768833782E0,-1.118557502E1,-1.674186188E0,1.164415856E1
1.199576983E1,-2.597711800E0,-1.245256491E1,-2.900941387E0,1.304721965E1
1.200577383E1,-2.665752340E0,-1.309385829E1,-3.589346073E0,1.383613984E1
1.201577783E1,-2.265938591E0,-1.405909443E1,-2.736444300E0,1.450106001E1
1.202578283E1,-1.462482629E0,-1.536387371E1,-2.528512634E0,1.563908076E1
1.203578683E1,-4.408932895E-1,-1.606233180E1,-1.975866555E0,1.618940822E1
1.204579083E1,7.245191360E-1,-1.504129334E1,-1.340783798E0,1.511830462E1
1.205579483E1,1.603694202E0,-1.258642639E1,-5.352561674E-1,1.269946706E1
1.206579883E1,1.378956907E0,-1.023593458E1,1.620169902E-1,1.032967223E1
1.207580283E1,1.158616426E0,-7.611745123E0,4.682482454E-1,7.713644551E0
1.208580683E1,1.110694254E0,-4.190210046E0,1.343208346E0,4.538249731E0
1.209581083E1,6.905580689E-1,-1.221755245E0,1.931956012E0,2.387888263E0
1.210581583E1,2.594428223E-1,1.437757823E0,2.053549300E0,2.520222781E0
1.211581983E1,-7.400382310E-4,3.752098058E0,1.963006627E0,4.234576177E0
1.212582383E1,-3.353601833E-1,5.689515662E0,1.676768903E0,5.940926600E0
1.213582783E1,-5.730801243E-1,7.911908430E0,9.849028118E-1,7.993544231E0
1.214583183E1,-5.781799196E-1,9.875661893E0,5.925606349E-1,9.910303625E0
1.215583583E1,-3.328420068E-1,1.158616894E1,-1.673424880E-1,1.159215674E1
1.216583983E1,-8.232043487E-1,1.232625804E1,-2.943485436E-1,1.235722233E1
1.217584483E1,-6.880947831E-1,1.336903294E1,-3.265893598E-1,1.339071233E1
1.218584883E1,2.900148797E-1,1.425643328E1,-2.650114547E-1,1.426184524E1
1.219585283E1,7.605036320E-1,1.410428756E1,5.234997556E-2,1.412487288E1
1.220585683E1,1.125058086E0,1.320009986E1,-1.590933824E-1,1.324891327E1
1.221586083E1,2.115024148E0,1.129730596E1,-4.971311519E-1,1.150432912E1
1.222586483E1,2.656064089E0,8.879526726E0,-1.413482377E0,9.375425524E0
1.223586883E1,2.874235984E0,7.685156330E0,-1.921749405E0,8.427098023E0
1.224587283E1,2.917133497E0,7.413343833E0,-1.722635339E0,8.150755004E0
1.225587783E1,2.691411384E0,7.584523995E0,-9.704154579E-1,8.106195509E0
1.226588183E1,2.039246133E0,8.411871096E0,4.748944831E-1,8.668542259E0
1.227588583E1,1.123858310E0,9.485586535E0,1.928115853E0,9.744590303E0
1.228588983E1,1.245657384E-1,1.032236812E1,3.261346218E0,1.082604172E1
1.229589383E1,-6.572647539E-1,1.051769553E1,3.901989677E0,1.123741250E1
1.230589783E1,-1.239592323E0,1.034996581E1,3.817484255E0,1.110097146E1
1.231590183E1,-1.367224177E0,1.004929496E1,3.653950497E0,1.078002715E1
1.232590683E1,-1.312359167E0,9.728817258E0,3.384609325E0,1.038401426E1
1.233591083E1,-9.467044137E-1,9.641662170E0,3.199839357E0,1.020278739E1
1.234591483E1,-6.116761331E-1,9.645452920E0,3.500109376E0,1.027908923E1
1.235591883E1,-1.757238869E-1,9.682927725E0,3.548628694E0,1.031420059E1
1.236592283E1,8.402820922E-1,9.933438231E0,3.606513498E0,1.060123619E1
1.237592683E1,1.289462787E0,9.567595489E0,3.616823308E0,1.030936509E1
1.238593083E1,7.537780184E-1,8.768008044E0,3.083005556E0,9.324755741E0
1.239593583E1,1.330972463E-4,7.303652406E0,1.782913993E0,7.518119499E0
1.240593983E1,-6.690440429E-1,3.931030458E0,-1.223523443E0,4.171046633E0
1.241594383E1,-3.733832014E-1,-1.957695163E0,-3.417569495E0,3.956231366E0
1.242594783E1,8.291396380E-1,-1.083191086E1,-2.795291556E0,1.121746051E1
1.243595183E1,-7.138719410E-1,-2.614940796E1,-5.979260985E0,2.683379794E1
1.244595583E1,-4.342690228E0,-5.007252365E1,-1.128850005E1,5.151258891E1
1.245595983E1,-3.372741524E0,-5.412577612E1,-1.221804830E1,5.559006863E1
1.246596383E1,1.107466299E-1,-2.624752892E1,-9.153710854E0,2.779811975E1
1.247596883E1,-1.723736663E0,-1.541846565E1,-3.076546429E0,1.581662066E1
1.248597283E1,-1.425620758E0,-1.585484569E1,-4.835722481E0,1.663708924E1
1.249597683E1,4.727744289E-1,-1.818323620E1,-4.331915856E0,1.869810390E1
1.250598083E1,2.437067005E0,-1.929826982E1,-2.491175238E0,1.961041733E1
1.251598483E1,2.138380851E0,-1.794442422E1,-2.567522626E0,1.825286842E1
1.252598883E1,-1.691117458E-1,-1.488606848E1,-1.591705656E0,1.497187899E1
1.253599283E1,-1.618663805E0,-1.147233184E1,-1.296456349E-1,1.158668539E1
1.254599783E1,-2.440225525E0,-8.160254297E0,1.023073436E0,8.578527266E0
1.255600183E1,-2.971530729E0,-4.616157487E0,1.986938989E0,5.838392875E0
1.256600583E1,-3.551120485E0,-1.507787002E0,7.285608776E-1,3.926153244E0
1.257600983E1,-3.072623532E0,9.022019863E-1,-1.233208187E0,3.431586547E0
1.258601383E1,-1.606262884E0,3.623344123E0,-1.586899099E0,4.269303437E0
1.259601783E1,-1.687544444E-1,6.183430552E0,-1.210778121E0,6.303116302E0
1.260602183E1,2.176180907E-1,7.753957009E0,-1.455687726E0,7.892416213E0
1.261602683E1,2.676584161E-1,1.001620323E1,-1.345693267E0,1.010974077E1
1.262603083E1,1.019100618E0,1.270436590E1,-1.301280302E0,1.281143276E1
1.263603483E1,2.003717428E0,1.465295286E1,-7.010132559E-1,1.480592214E1
1.264603883E1,2.106676078E0,1.529168866E1,-1.373885179E-1,1.543673223E1
1.265604283E1,2.041819932E0,1.513426524E1,4.087297297E-1,1.527684762E1
1.266604683E1,2.145378799E0,1.465406850E1,7.760904817E-1,1.483059980E1
1.267605083E1,2.490284123E0,1.343687116E1,2.448182416E-1,1.366788051E1
1.268605483E1,2.687475039E0,1.084327902E1,-6.219696446E-1,1.118865802E1
1.269605983E1,1.647767152E0,8.225214524E0,-9.308043726E-1,8.440123656E0
1.270606383E1,6.837537371E-1,6.830205109E0,-2.071783111E0,7.170181746E0
1.271606783E1,6.346427536E-1,6.209441307E0,-4.427767800E0,7.652781224E0
1.272607183E1,2.311733253E-3,6.525062313E0,-5.259032536E0,8.380564822E0
1.273607583E1,-1.190621015E0,7.838404836E0,-2.476144971E0,8.305989567E0
1.274607983E1,-8.081212366E-1,9.542965263E0,7.401978600E-1,9.605682631E0
1.275608383E1,-3.272558327E-1,1.028526403E1,1.544847093E0,1.040578229E1
1.276608883E1,3.722450774E-2,1.036489141E1,1.668920331E0,1.049845963E1
1.277609283E1,3.014857646E-1,1.021519567E1,1.904159811E0,1.039552504E1
1.278609683E1,3.804348704E-1,9.852036803E0,2.027681072E0,1.006572652E1
1.279610083E1,6.028678508E-1,9.588503963E0,2.464037726E0,9.918383931E0
1.280610483E1,1.214556300E0,9.540662629E0,3.173423098E0,1.012768505E1
1.281610883E1,1.782936505E0,9.687085680E0,3.690510797E0,1.051847715E1
1.282611283E1,1.893111789E0,9.638697631E0,3.606359131E0,1.046394717E1
1.283611783E1,1.592662845E0,9.456255732E0,3.087069079E0,1.007409266E1
1.284612183E1,1.555859593E0,9.798586820E0,3.183264255E0,1.041950930E1
1.285612583E1,1.453241835E0,9.933014892E0,3.610655958E0,1.066834257E1
1.286612983E1,1.106581615E0,9.718026221E0,3.637222782E0,1.043522621E1
1.287613383E1,5.730179977E-1,9.329607965E0,3.638662367E0,1.003044357E1
1.288613783E1,1.975476326E-1,9.145575038E0,3.764228399E0,9.891915046E0
1.289614183E1,-5.697467729E-1,7.641760050E0,9.425033355E-1,7.720713735E0
1.290614583E1,-2.714643834E0,2.792931327E0,-5.275691253E0,6.557642468E0
1.291615083E1,-2.706832539E0,-3.922230399E0,-3.384817778E0,5.845325062E0
1.292615483E1,-2.236356650E0,-1.584287995E1,9.927481672E-1,1.603071069E1
1.293615883E1,-2.272889323E0,-3.750993051E1,-2.149368646E0,3.764014743E1
1.294616283E1,1.423999910E0,-5.861376673E1,-8.642873536E0,5.926466645E1
1.295616683E1,1.584842779E0,-4.807791209E1,-1.607527871E1,5.071895053E1
1.296617083E1,-3.378872037E0,-2.601134819E1,-6.722447941E0,2.707763500E1
1.297617483E1,-3.496408381E0,-2.091410577E1,-4.004973178E0,2.157926092E1
1.298618025E1,-1.973711856E0,-2.111094644E1,-8.074325370E0,2.268837429E1
1.299618425E1,-1.987453690E0,-2.116629384E1,-7.652971501E0,2.259490960E1
1.300618825E1,-1.034720724E0,-1.956659387E1,-5.797506133E0,2.043363208E1
1.301619225E1,4.289294478E-2,-1.693704252E1,-3.566588709E0,1.730854714E1
1.302619625E1,8.165091406E-1,-1.454919635E1,-2.402806853E0,1.476886192E1
1.303620025E1,1.147753030E0,-1.139886508E1,-5.203147772E-1,1.146831241E1
1.304620425E1,4.422593818E-1,-7.635771917E0,5.045245175E-1,7.665190872E0
1.305620925E1,2.286851889E-1,-3.951868181E0,4.032836330E-1,3.978969304E0
1.306621325E1,4.670117786E-1,-8.630098540E-1,-4.127574380E-1,1.064544368E0
1.307621725E1,6.451251302E-1,2.789072165E0,-3.669442841E-1,2.886132028E0
1.308622125E1,6.077894888E-1,5.855124596E0,-4.198077913E-1,5.901536299E0
1.309622525E1,4.649323625E-1,8.224618108E0,-4.306624163E-1,8.248998438E0
1.310622925E1,2.645453585E-1,1.033310244E1,-2.878888321E-1,1.034049661E1
1.311623325E1,-2.843530208E-2,1.157643683E1,-1.419325061E0,1.166315489E1
1.312623725E1,-7.819123350E-2,1.303770514E1,-1.582672877E0,1.313364849E1
1.313624225E1,1.987099495E-1,1.413137303E1,-1.115437004E0,1.417671997E1
1.314624625E1,4.284451887E-1,1.429128970E1,-1.164204025E0,1.434503042E1
1.315625025E1,7.911848496E-1,1.436858405E1,-1.097971371E0,1.443217662E1
1.316625425E1,1.097051458E0,1.360595978E1,-1.593152257E0,1.374277255E1
1.317625825E1,5.763275583E-1,1.109133311E1,-2.619406432E0,1.141100844E1
1.318626225E1,-2.333534962E-1,8.539477222E0,-2.747844032E0,8.973726757E0
1.319626625E1,-2.072903365E-1,7.331450654E0,-2.419069129E0,7.723019709E0
1.320627125E1,4.884891498E-1,7.150992131E0,-1.563626157E0,7.336227700E0
1.321627525E1,1.142212647E0,7.473005898E0,-1.503669246E-1,7.561288058E0
1.322627925E1,1.060841552E0,8.189044817E0,1.085561314E0,8.328522269E0
1.323628325E1,6.397297581E-1,9.033855212E0,1.321199427E0,9.152341891E0
1.324628725E1,1.191700557E-1,9.527280691E0,9.312358240E-1,9.573425669E0
1.325629125E1,7.744575005E-2,9.666596451E0,8.104615847E-1,9.700821242E0
1.326629525E1,3.107781232E-1,9.356671218E0,1.218450838E0,9.440789255E0
1.327630025E1,3.544021892E-1,9.032608001E0,1.472630764E0,9.158725325E0
1.328630425E1,4.333449361E-1,8.930081168E0,1.404184281E0,9.050186241E0
1.329630825E1,9.198493217E-1,9.082407568E0,1.275343369E0,9.217524109E0
1.330631225E1,1.323589184E0,9.342667721E0,9.323854597E-1,9.481912841E0
1.331631625E1,1.241465478E0,9.615851975E0,3.814337575E-1,9.703161209E0
1.332632025E1,1.140910984E0,9.974699693E0,-2.084472446E-1,1.004190032E1
1.333632425E1,9.468253049E-1,1.016101069E1,-3.688739383E-1,1.021169352E1
1.334632825E1,8.198162527E-1,1.033530216E1,5.513325021E-2,1.036791248E1
1.335633325E1,9.174591261E-1,1.069100466E1,8.384041858E-1,1.076300299E1
1.336633725E1,1.068728130E0,1.087620235E1,1.639305646E0,1.105084976E1
1.337634125E1,1.232681645E0,1.068445344E1,2.756867748E0,1.110303423E1
1.338634525E1,1.171340406E0,1.011770738E1,4.221902540E0,1.102562933E1
1.339634925E1,6.475266548E-1,8.868110622E0,5.107249342E0,1.025410516E1
1.340635325E1,5.803314026E-2,7.102639166E0,5.046389183E0,8.713030170E0
1.341635725E1,-6.052421493E-1,4.531910804E0,4.544599847E0,6.446543365E0
1.342636225E1,-3.384354971E0,-2.704090487E0,-1.080257889E0,4.464630000E0
1.343636625E1,-7.469114576E0,-1.692805769E1,-1.133751141E1,2.169990725E1
1.344637025E1,-8.500454659E0,-3.784275636E1,-4.802479306E0,3.908191073E1
1.345637425E1,8.948388069E-1,-5.260811025E1,-2.982967590E0,5.270020964E1
1.346637825E1,1.114329732E1,-4.396216926E1,-1.518267902E1,4.782634361E1
1.347638225E1,2.870198189E0,-3.260627303E1,-1.365322282E1,3.546572390E1
1.348638625E1,7.369788582E-2,-2.586016024E1,-4.734180611E0,2.629003205E1
1.349639125E1,3.472646466E0,-2.476436162E1,-3.185112852E0,2.520868548E1
1.350639525E1,5.584368691E0,-2.610011126E1,-3.160986071E0,2.687736621E1
1.351639925E1,4.125860268E0,-2.356481468E1,-3.499792457E0,2.417791888E1
1.352640325E1,7.714949356E-1,-1.724735309E1,-3.326182777E0,1.758208989E1
1.353640725E1,-2.008187624E0,-1.205038173E1,-9.500390808E-1,1.225345223E1
1.354641125E1,-3.326372226E0,-8.244188154E0,5.438789101E-1,8.906581542E0
1.355641525E1,-4.108139112E0,-4.600302762E0,6.644927895E-1,6.203317107E0
1.356641925E1,-4.282443149E0,-1.410576457E0,9.020278124E-1,4.598119120E0
1.357642425E1,-4.048883429E0,1.500490261E0,1.265814600E0,4.499690505E0
1.358642825E1,-2.687974391E0,4.564911904E0,7.784854281E-1,5.354406277E0
1.359643225E1,-1.429126456E0,7.700067315E0,2.252721691E-1,7.834806101E0
1.360643625E1,-1.115273209E0,1.030876866E1,4.725007061E-1,1.037968220E1
1.361644025E1,-1.186302700E0,1.208553285E1,1.017351277E0,1.218615698E1
1.362644425E1,-1.287698535E0,1.284402665E1,1.440150504E0,1.298850344E1
1.363644825E1,-9.119703448E-1,1.340612417E1,1.223538061E0,1.349269804E1
1.364645325E1,-3.091168927E-1,1.404224860E1,7.546182632E-2,1.404585325E1
1.365645725E1,4.004883716E-1,1.431615440E1,-2.166419127E0,1.448468293E1
1.366646125E1,5.658457664E-1,1.165148468E1,-4.692928505E0,1.257381623E1
1.367646525E1,7.238578159E-1,8.681762198E0,-4.991223042E0,1.004038209E1
1.368646925E1,2.254388148E0,7.429727147E0,-3.260451887E0,8.421024753E0
1.369647325E1,3.899306974E0,7.480279834E0,-7.305546319E-1,8.467165485E0
1.370647725E1,4.223606711E0,8.249506196E0,-2.221169385E-1,9.270520054E0
1.371648225E1,3.350601334E0,9.266773785E0,-2.076110928E-1,9.856101057E0
1.372648625E1,2.278241133E0,9.763794717E0,2.227679528E-2,1.002609426E1
1.373649025E1,9.701247051E-1,9.784328384E0,1.193931270E-1,9.833029980E0
1.374649425E1,2.293658048E-1,9.319216293E0,4.413478374E-3,9.322039502E0
1.375649825E1,6.383752506E-2,8.807622346E0,-2.058885761E-1,8.810259742E0
1.376650225E1,5.530128457E-2,8.666323210E0,-6.372054420E-2,8.666733902E0
1.377650625E1,3.121349331E-1,8.993421716E0,3.627156508E-1,9.006143738E0
1.378651025E1,7.976476309E-1,9.408514971E0,9.081145446E-1,9.485835109E0
1.379651525E1,1.313039783E0,9.904248930E0,1.466127344E0,1.009790819E1
1.380651925E1,1.571033995E0,1.032053677E1,2.041566893E0,1.063718113E1
1.381652325E1,1.560234626E0,1.068489315E1,2.589364607E0,1.110432721E1
1.382652725E1,1.422214024E0,1.085672177E1,2.734122956E0,1.128567803E1
1.383653125E1,1.183840437E0,1.076771779E1,2.442775057E0,1.110461051E1
1.384653525E1,9.756725433E-1,1.051110221E1,1.866063885E0,1.071995340E1
1.385653925E1,9.367185389E-1,1.021033079E1,1.155940594E0,1.031816336E1
1.386654425E1,9.976278149E-1,9.837383680E0,6.187979686E-1,9.907183750E0
1.387654825E1,9.888281938E-1,9.465200803E0,4.814762552E-1,9.528883818E0
1.388655225E1,1.097852015E0,9.197481356E0,7.322012079E-1,9.291666210E0
1.389655625E1,1.098310436E0,8.695239446E0,1.316719436E0,8.862687228E0
1.390656025E1,5.009827128E-1,7.274835573E0,1.569240654E0,7.459003454E0
1.391656425E1,-6.807706339E-1,5.532091659E0,2.203328799E0,5.993508537E0
1.392656825E1,-1.657620002E0,3.254496498E0,3.039326563E0,4.751521596E0
1.393657325E1,-3.254267287E0,-2.865885283E0,-7.439424169E-1,4.399659572E0
1.394657725E1,-5.680932534E0,-1.591818624E1,-9.153846509E0,1.922120063E1
1.395658125E1,-6.702589043E0,-3.924341477E1,-1.360120014E1,4.207092759E1
1.396658525E1,1.153184655E0,-5.066411686E1,-4.725921712E0,5.089712083E1
1.397658925E1,6.942644727E0,-4.027836727E1,-8.514283909E0,4.174973312E1
1.398659321E1,3.181962664E0,-2.974056667E1,-8.326658453E0,3.104769611E1
1.399659721E1,5.447114074E0,-2.501208476E1,-2.748761168E0,2.574550686E1
1.400660121E1,6.401945094E0,-2.670458004E1,-3.230122379E0,2.765055491E1
1.401660621E1,5.228287876E0,-2.523567995E1,-2.492346728E0,2.589181972E1
1.402661021E1,2.220036487E0,-2.036686719E1,-2.064145478E0,2.059122478E1
1.403661421E1,-1.915379448E0,-1.564172053E1,-2.566681211E0,1.596621283E1
1.404661821E1,-3.748559031E0,-1.190004630E1,9.650946379E-2,1.247686302E1
1.405662221E1,-4.787451085E0,-8.495378691E0,2.356616334E0,1.003218758E1
1.406662621E1,-4.290333382E0,-5.019236467E0,9.074739821E-1,6.665073463E0
1.407663121E1,-3.865011008E0,-2.732495676E0,-5.967608361E-1,4.770845439E0
1.408663521E1,-3.274855333E0,1.382293475E-1,-5.011272852E-1,3.315857862E0
1.409663921E1,-1.787630504E0,3.607418062E0,-3.173188917E-1,4.038536761E0
1.410664321E1,-7.701855978E-1,6.262677281E0,5.108010650E-2,6.310065116E0
1.411664721E1,-6.046652849E-1,8.234754841E0,2.828472166E-1,8.261767967E0
1.412665121E1,-9.654377232E-1,9.614373214E0,9.891209201E-1,9.713217927E0
1.413665521E1,-9.891731065E-1,1.084597576E1,1.860379368E0,1.104874042E1
1.414665921E1,-7.941469759E-1,1.221207127E1,2.619397076E0,1.251505474E1
1.415666421E1,-6.412891375E-1,1.300759666E1,2.862875136E0,1.333434950E1
1.416666821E1,-3.467229313E-1,1.331242136E1,1.477055790E0,1.339859967E1
1.417667221E1,5.029076527E-1,1.349768221E1,-8.489736859E-1,1.353370228E1
1.418667621E1,6.933501144E-1,1.145942469E1,-2.238145752E0,1.169651423E1
1.419668021E1,1.986669724E-1,8.906885848E0,-1.772390467E0,9.083691543E0
1.420668421E1,4.517214558E-1,7.254466213E0,-3.070660622E0,7.890518929E0
1.421668821E1,9.738569829E-1,7.370450998E0,-3.934920026E0,8.411631289E0
1.422669321E1,1.481862494E0,8.660360804E0,-3.168339529E0,9.340028966E0
1.423669721E1,1.957225778E0,9.422945314E0,-2.320235982E0,9.899804349E0
1.424670121E1,1.971141128E0,9.552693860E0,-1.398279762E0,9.853656358E0
1.425670521E1,2.050388588E0,9.399306775E0,-5.565697069E-1,9.636432486E0
1.426670921E1,1.983068570E0,9.224298441E0,2.445820141E-1,9.438223512E0
1.427671321E1,1.830631220E0,9.173568583E0,6.550987990E-1,9.377351740E0
1.428671721E1,1.880810563E0,9.120411546E0,8.512776350E-1,9.351151199E0
1.429672121E1,1.743406988E0,9.242175134E0,1.175534906E0,9.478351726E0
1.430672621E1,1.539207161E0,9.641942251E0,1.656412260E0,9.903530211E0
1.431673021E1,1.384372452E0,1.005815349E1,2.027632248E0,1.035346470E1
1.432673421E1,9.985979410E-1,1.031928079E1,2.345928501E0,1.062958769E1
1.433673821E1,6.672551604E-1,1.079535173E1,3.039059930E0,1.123480012E1
1.434674221E1,-5.280556502E-2,1.038598232E1,3.034537693E0,1.082034362E1
1.435674621E1,-8.745762312E-1,9.417201594E0,2.052502502E0,9.677878692E0
1.436675021E1,-1.150658877E0,8.845983589E0,7.363291959E-1,8.950844775E0
1.437675521E1,-1.172240146E0,8.526273624E0,-6.693730219E-1,8.632470627E0
1.438675921E1,-6.745011762E-1,8.123907419E0,-2.137295169E0,8.427387154E0
1.439676321E1,-1.233045031E-1,7.380137495E0,-2.005891861E0,7.648871525E0
1.440676721E1,2.701478042E-2,6.933045938E0,3.228481650E-1,6.940611408E0
1.441677121E1,4.120312138E-1,6.734904850E0,1.077643014E0,6.833010136E0
1.442677521E1,7.474906535E-1,5.563302927E0,2.652232116E0,6.208334473E0
1.443677921E1,-7.081624272E-1,7.147133553E-1,4.797533146E0,4.901901008E0
1.444678421E1,-2.464804881E0,-7.134465560E0,3.430254152E0,8.291110027E0
1.445678821E1,4.861698152E-1,-1.382053505E1,1.476566086E0,1.390768843E1
1.446679221E1,1.005667809E0,-2.591313601E1,6.958742112E-2,2.593273661E1
1.447679621E1,1.108852382E0,-4.019556602E1,-4.159891648E0,4.042545954E1
1.448680021E1,3.318844813E0,-4.336002299E1,-1.500969148E1,4.600431679E1
1.449680421E1,4.250817240E-1,-3.693499251E1,-1.256403273E1,3.901575687E1
1.450680821E1,2.133894136E0,-2.722882736E1,-1.079517339E0,2.733364047E1
1.451681321E1,3.047412093E0,-2.639400635E1,-4.600703296E-1,2.657333168E1
1.452681721E1,3.328622235E0,-2.672738418E1,-2.458329674E0,2.704581624E1
1.453682121E1,1.886185177E0,-2.324559179E1,-5.451422303E0,2.395064169E1
1.454682521E1,-3.033107172E0,-1.762041597E1,-5.510821828E0,1.870956855E1
1.455682921E1,-5.043770800E0,-1.271280226E1,-2.263285271E0,1.386280727E1
1.456683321E1,-5.052525836E0,-9.800860217E0,1.125306885E0,1.108382578E1
1.457683721E1,-4.561253302E0,-7.005985860E0,2.396736274E0,8.696735843E0
1.458684121E1,-4.004490783E0,-2.830607277E0,2.413021500E0,5.465432896E0
1.459684621E1,-3.454550795E0,1.695011923E0,1.376031107E0,4.086618189E0
1.460685021E1,-2.884552519E0,4.617729803E0,-1.933114345E-1,5.448067646E0
1.461685421E1,-1.335646435E0,6.524943615E0,-5.073183171E-1,6.679536844E0
1.462685821E1,1.174282140E0,8.646024016E0,3.343918844E-1,8.731808963E0
1.463686221E1,2.657247273E0,1.071059517E1,6.955780497E-1,1.105719860E1
1.464686621E1,3.161535709E0,1.220205382E1,1.011942530E0,1.264553096E1
1.465687021E1,3.107249574E0,1.363128056E1,1.958287486E0,1.411742538E1
1.466687521E1,2.708622956E0,1.473398942E1,2.686143043E0,1.521980443E1
1.467687921E1,2.245548181E0,1.527277760E1,2.349384352E0,1.561473115E1
1.468688321E1,1.850369666E0,1.539305716E1,1.036562962E0,1.553848575E1
1.469688721E1,6.755425653E-1,1.253078195E1,-4.695046659E-1,1.255775811E1
1.470689121E1,-1.947488263E-3,9.083101632E0,-1.723807122E0,9.245228501E0
1.471689521E1,6.352456015E-1,7.376589990E0,-4.751712026E0,8.797521471E0
1.472689921E1,1.192902379E0,6.468883435E0,-7.528511177E0,9.997397137E0
1.473690421E1,1.234966298E0,6.260625494E0,-6.082081933E0,8.815457672E0
1.474690821E1,1.512576164E0,7.068470961E0,-1.973226099E0,7.492982691E0
1.475691221E1,3.097572725E0,9.388905163E0,3.573633435E0,1.051272338E1
1.476691621E1,4.478085137E0,1.110520855E1,4.644242249E0,1.284320402E1
1.477692021E1,2.386012188E0,1.055056857E1,2.089474593E0,1.101696217E1
1.478692421E1,-1.061168776E0,9.745293542E0,1.576132474E0,9.928797458E0
1.479692821E1,-2.756862193E0,9.415952044E0,1.272789013E0,9.893454094E0
1.480693321E1,-2.263542402E0,9.925938592E0,1.741908786E0,1.032870405E1
1.481693721E1,-9.851229595E-1,1.026610153E1,2.037354705E0,1.051256972E1
1.482694121E1,-3.293349564E-1,1.016916405E1,1.880859679E0,1.034688321E1
1.483694521E1,-1.517951619E-1,9.861194712E0,1.604877094E0,9.992088541E0
1.484694921E1,-3.634665795E-2,9.552492716E0,1.045827291E0,9.609640622E0
1.485695321E1,1.116737882E-1,9.289886075E0,7.207889047E-1,9.318475785E0
1.486695721E1,1.594388432E-1,9.128862526E0,9.895735677E-1,9.183725149E0
1.487696121E1,1.894243518E-1,9.221542064E0,1.417973331E0,9.331846976E0
1.488696621E1,5.218172193E-2,9.401518777E0,1.876891028E0,9.587178844E0
1.489697021E1,-1.692357982E-1,9.598300388E0,2.188340338E0,9.846057309E0
1.490697421E1,-2.666441983E-1,9.543572788E0,2.688725758E0,9.918675662E0
1.491697821E1,-3.731164587E-1,8.638023271E0,2.359643584E0,8.962286526E0
1.492698221E1,4.379268508E-1,6.791823986E0,2.784208743E0,7.353398623E0
1.493698621E1,1.103373248E0,2.973714956E0,3.254736526E0,4.544636731E0
1.494699021E1,8.229900482E-1,-6.327281413E0,2.896738993E0,7.007346109E0
1.495699521E1,2.566667470E0,-2.066359936E1,1.524579620E-1,2.082295281E1
1.496699921E1,3.271943420E0,-4.127708573E1,-6.264122128E0,4.187771062E1
1.497700321E1,4.790230851E0,-5.102262135E1,-1.039530863E1,5.229069365E1
1.498700733E1,6.531402449E0,-4.034244339E1,-9.720842825E0,4.200793666E1
1.499701133E1,1.258199917E0,-3.006041873E1,-5.259958735E0,3.054306807E1
1.500701533E1,-5.833218149E-1,-2.209333012E1,-7.930754006E0,2.348089349E1
1.501701933E1,-1.327336957E0,-1.913923491E1,-1.053404317E1,2.188694136E1
1.502702433E1,-3.573426443E0,-2.079494419E1,-1.044224890E1,2.354229476E1
1.503702833E1,-5.285956625E0,-2.071769779E1,-6.254388853E0,2.227738134E1
1.504703233E1,-5.798901864E0,-1.767978158E1,-4.859966792E0,1.923073625E1
1.505703633E1,-3.562967236E0,-1.280682081E1,-2.839447682E0,1.359308126E1
1.506704033E1,-1.369502837E0,-8.998410560E0,5.348354602E-1,9.117728862E0
1.507704433E1,-2.832438223E-1,-6.472573028E0,2.015724539E0,6.785099415E0
1.508704833E1,5.185788485E-1,-3.791048700E0,1.939180101E0,4.289684573E0
1.509705333E1,1.437162869E0,-2.897131634E-1,1.861731391E0,2.369686604E0
1.510705733E1,2.261398521E0,3.518619322E0,2.754146161E0,5.007986250E0
1.511706133E1,1.767939859E0,6.283784561E0,3.185336215E0,7.263465189E0
1.512706533E1,7.260536646E-1,8.389144138E0,1.697482810E0,8.589897624E0
1.513706933E1,4.699330475E-1,1.019699212E1,3.042642519E-2,1.020786026E1
1.514707333E1,6.979802321E-1,1.140347268E1,-4.185458891E-1,1.143247770E1
1.515707733E1,1.136069782E0,1.255956662E1,3.453588489E-1,1.261557137E1
1.516708233E1,7.798589391E-1,1.403389644E1,1.945178175E0,1.418950836E1
1.517708633E1,-3.367518206E-1,1.508044162E1,2.355522759E0,1.526701047E1
1.518709033E1,-9.013359406E-1,1.517308491E1,1.222955679E0,1.524895186E1
1.519709433E1,-3.386359762E-1,1.386186200E1,-1.059089799E0,1.390638571E1
1.520709833E1,-2.098027023E-1,1.025021816E1,-2.804013555E0,1.062889841E1
1.521710233E1,-6.818617974E-1,7.872232148E0,-4.106950958E0,8.905280494E0
1.522710633E1,-7.407833856E-1,6.960965808E0,-5.368304132E0,8.821705859E0
1.523711033E1,-3.966891797E-1,7.012487964E0,-4.410699778E0,8.293770088E0
1.524711533E1,-1.241066223E-1,7.359669902E0,-5.226510322E-1,7.379248445E0
1.525711933E1,7.660391179E-1,8.403957474E0,1.558204765E0,8.581452048E0
1.526712333E1,3.694536313E0,1.006332243E1,8.031343657E0,1.339486983E1
1.527712733E1,6.105850865E0,1.080598665E1,8.992790802E0,1.532713439E1
1.528713133E1,2.771361826E0,1.017764368E1,-3.690553482E-1,1.055467097E1
1.529713533E1,3.497085561E-1,9.983489227E0,-4.771249620E0,1.107055446E1
1.530713933E1,-3.117571956E0,9.910920603E0,-3.507814837E0,1.096587284E1
1.531714433E1,-2.704938041E0,1.008750885E1,-3.456955755E-1,1.044959474E1
1.532714833E1,-8.240914444E-1,1.026995602E1,6.056779861E-2,1.030314475E1
1.533715233E1,-5.401317585E-1,1.012485619E1,2.294739783E-1,1.014184961E1
1.534715633E1,-9.208439331E-1,9.972358468E0,3.207573469E-1,1.001991877E1
1.535716033E1,-1.480928548E0,9.626775743E0,8.475751050E-1,9.776826895E0
1.536716433E1,-1.568998433E0,9.265269297E0,1.516806478E0,9.518806286E0
1.537716833E1,-1.524534304E0,9.173450469E0,2.400470452E0,9.604095832E0
1.538717333E1,-1.289803533E0,9.147470706E0,2.464345289E0,9.561004715E0
1.539717733E1,-8.051480006E-1,9.149910749E0,2.116721448E0,9.426008683E0
1.540718133E1,-8.452210160E-1,8.552074463E0,1.251481905E0,8.684387322E0
1.541718533E1,-6.620170053E-1,6.179368492E0,-1.484158988E0,6.389490541E0
1.542718933E1,-1.337448254E-1,1.579044680E0,-1.281824569E0,2.038220794E0
1.543719333E1,-1.134269643E0,-6.655655197E0,1.548742362E0,6.926970234E0
1.544719733E1,-1.964606572E0,-1.933352152E1,2.425325942E0,1.958384383E1
1.545720233E1,-1.376008156E0,-3.838763968E1,-1.799749443E0,3.845443247E1
1.546720633E1,2.019270144E-1,-5.161505656E1,-7.288136820E0,5.212745703E1
1.547721033E1,4.111038162E0,-3.990826190E1,-8.183124511E0,4.094549462E1
1.548721433E1,6.429018288E0,-2.894760003E1,-6.490398849E0,3.035491889E1
1.549721833E1,6.649885164E0,-2.435404145E1,-5.844006701E0,2.591317661E1
1.550722233E1,6.611147946E0,-2.220907225E1,-6.089029010E0,2.395884892E1
1.551722633E1,4.339057353E0,-2.233093992E1,-6.265611999E0,2.359568159E1
1.552723033E1,1.852766001E0,-1.914142528E1,-4.433623202E0,1.973534693E1
1.553723533E1,-9.396697017E-1,-1.419224606E1,-3.888576164E0,1.474529931E1
1.554723933E1,-3.521929430E0,-1.022694741E1,-2.599696637E0,1.112442640E1
1.555724333E1,-4.541397327E0,-7.883803203E0,1.194397000E0,9.176340601E0
1.556724733E1,-2.991094927E0,-3.579054388E0,6.557675743E-1,4.710234632E0
1.557725133E1,-3.028193464E0,-7.287735701E-2,3.223789260E-2,3.029241827E0
1.558725533E1,-3.715762583E0,3.568809482E0,-1.355865376E0,5.327444378E0
1.559725933E1,-4.142353510E0,6.336115971E0,5.110394852E-1,7.587266936E0
1.560726433E1,-4.035802038E0,8.842985721E0,2.280202435E0,9.984258495E0
1.561726833E1,-2.444188037E0,1.130317773E1,3.033836027E0,1.195575356E1
1.562727233E1,-2.005015217E0,1.258849397E1,3.737371845E0,1.328375755E1
1.563727633E1,-2.531147682E0,1.328401559E1,3.976365091E0,1.409550489E1
1.564728033E1,-2.287733503E0,1.415054956E1,2.932710772E0,1.463121902E1
1.565728433E1,-1.120905393E0,1.390871106E1,9.377985927E-1,1.398528293E1
1.566728833E1,2.561912222E-1,1.115911170E1,-8.579256999E-1,1.119497406E1
1.567729333E1,2.231818918E0,9.482267656E0,-3.555863746E0,1.037008113E1
1.568729733E1,3.711229236E0,8.786006359E0,-4.321714511E0,1.047111964E1
1.569730133E1,3.390208619E0,8.490613795E0,-1.851408570E0,9.328008940E0
1.570730533E1,3.447924730E0,9.215663273E0,1.240056446E0,9.917377400E0
1.571730933E1,1.613251476E0,1.066664633E1,-1.126996950E0,1.084666061E1
1.572731333E1,4.579276174E-1,9.915378520E0,-1.689259871E-1,9.927384595E0
1.573731733E1,1.252240874E0,1.042650820E1,-1.636283659E0,1.062815152E1
1.574732233E1,2.156697254E-1,9.818907648E0,-2.581219436E0,1.015480943E1
1.575732633E1,-2.433978798E-1,9.416553138E0,-3.208270165E0,9.951065922E0
1.576733033E1,-8.051527514E-1,8.987251149E0,-2.901367357E0,9.478232257E0
1.577733433E1,-1.428852222E0,8.025234486E0,-2.523638395E0,8.533156390E0
1.578733833E1,-1.754122596E0,7.263211309E0,-1.942420335E0,7.720374431E0
1.579734233E1,-9.113269318E-1,9.110670084E0,8.944077940E-1,9.199716923E0
1.580734633E1,-8.156585169E-1,9.925186640E0,2.752850418E0,1.033212534E1
1.581735033E1,-2.660435613E-1,9.970439411E0,2.266628855E0,1.022829642E1
1.582735533E1,-5.391446389E-1,9.909481019E0,9.312089999E-1,9.967729993E0
1.583735933E1,-1.403484954E0,9.411199427E0,4.130614932E-1,9.524235637E0
1.584736333E1,-1.563832564E0,9.383201789E0,9.028122894E-1,9.555371167E0
1.585736733E1,-1.757622593E0,9.839257128E0,2.077963910E0,1.020872921E1
1.586737133E1,-1.381735066E0,1.042799690E1,3.355252794E0,1.104128763E1
1.587737533E1,-5.330909434E-1,1.078320356E1,4.848221197E0,1.183498685E1
1.588737933E1,-1.893200520E-1,9.529769851E0,4.570444540E0,1.057077664E1
1.589738433E1,-1.115392273E0,6.572935222E0,2.706892473E0,7.195473870E0
1.590738833E1,-2.647495871E0,7.869521964E-1,-2.215343365E-1,2.770849258E0
1.591739233E1,-2.977909164E0,-1.034045707E1,-1.908716692E0,1.092868678E1
1.592739633E1,-7.805030829E-1,-2.510558641E1,-2.078612659E0,2.520357683E1
1.593740033E1,2.997160244E0,-4.142680252E1,-9.979488562E0,4.271712922E1
1.594740433E1,6.726464978E0,-4.283854491E1,-1.506805254E1,4.590678020E1
1.595740833E1,8.543474379E0,-3.244537871E1,-7.975582269E0,3.448627939E1
1.596741333E1,8.768964649E0,-2.760972201E1,-3.686062236E0,2.920237225E1
1.597741733E1,6.907155052E0,-2.593356618E1,-9.971341637E-1,2.685615241E1
1.598742133E1,5.964805498E0,-2.532358465E1,-3.886050167E0,2.630521298E1
1.599742525E1,3.810296272E0,-2.328570837E1,-3.849081731E0,2.390727927E1
1.600742925E1,1.274538061E0,-1.933998386E1,-1.531810141E0,1.944237293E1
1.601743325E1,-1.697860102E0,-1.588835843E1,6.221416989E-1,1.599092626E1
1.602743725E1,-4.919347313E0,-1.272929141E1,2.474615339E0,1.386933881E1
1.603744225E1,-6.218623774E0,-8.935793898E0,3.186561792E0,1.134345055E1
1.604744625E1,-5.262402286E0,-4.818428464E0,1.577099458E0,7.307350640E0
1.605745025E1,-4.371143071E0,-9.976080805E-1,1.191157497E0,4.639069930E0
1.606745425E1,-2.680337343E0,3.547786987E0,1.288031681E0,4.629257650E0
1.607745825E1,-1.062081161E0,7.688554732E0,1.274395828E0,7.865492673E0
1.608746225E1,-3.814045580E-1,1.052518581E1,1.654663650E0,1.066128124E1
1.609746625E1,-7.954477622E-1,1.199694519E1,2.397011093E0,1.225989777E1
1.610747125E1,-1.878431477E0,1.280266110E1,2.869288362E0,1.325403531E1
1.611747525E1,-2.302228897E0,1.411968211E1,1.292651127E0,1.436442229E1
1.612747925E1,-2.360471111E0,1.437093580E1,-1.976876808E0,1.469706302E1
1.613748325E1,-2.166254382E0,1.175917402E1,-4.989413913E0,1.295627581E1
1.614748725E1,-2.802271341E-1,1.045388720E1,-6.719092809E0,1.243014453E1
1.615749125E1,2.774443601E0,1.086688891E1,-4.753192248E0,1.218111852E1
1.616749525E1,4.912453446E0,1.131515049E1,-1.267966375E0,1.240050677E1
1.617750025E1,5.027096295E0,1.136323565E1,6.688140281E-1,1.244355793E1
1.618750425E1,4.749538323E0,1.117713281E1,9.830736566E-1,1.218412270E1
1.619750825E1,3.466134422E0,1.041342564E1,7.891522112E-1,1.100346684E1
1.620751225E1,2.125009730E0,9.101692269E0,3.225103422E-1,9.352030873E0
1.621751625E1,1.259162515E0,8.205010055E0,3.590950549E-1,8.308828407E0
1.622752025E1,5.855657205E-1,7.742667205E0,7.517227221E-1,7.801081317E0
1.623752425E1,1.212920468E-1,7.906436605E0,1.273558214E0,8.009269760E0
1.624752825E1,-2.286866872E-1,8.741963376E0,1.554382879E0,8.882022709E0
1.625753325E1,-4.822035027E-1,9.819132181E0,1.636740911E0,9.966283050E0
1.626753725E1,-6.661659703E-1,1.073752277E1,1.871824708E0,1.091979396E1
1.627754125E1,-9.292512059E-1,1.096924091E1,2.155626483E0,1.121759687E1
1.628754525E1,-1.272964868E0,1.086294321E1,2.065082202E0,1.113052286E1
1.629754925E1,-1.608640801E0,1.076706758E1,2.115808260E0,1.109027115E1
1.630755325E1,-1.877231482E0,1.044406505E1,2.459324870E0,1.089269350E1
1.631755725E1,-1.927562999E0,9.812956352E0,2.762016513E0,1.037489020E1
1.632756225E1,-1.704141766E0,9.173262189E0,3.176946630E0,9.856258329E0
1.633756625E1,-1.373263327E0,8.636239285E0,3.685701170E0,9.489724668E0
1.634757025E1,-1.011432652E0,8.457383484E0,3.723549027E0,9.295974869E0
1.635757425E1,-8.264299652E-1,8.818741996E0,3.442623060E0,9.502886425E0
1.636757825E1,-7.181865283E-1,9.168581493E0,3.428508466E0,9.814955363E0
1.637758225E1,-1.053901418E0,8.632485958E0,3.427795690E0,9.347743327E0
1.638758625E1,-1.822493650E0,6.944849128E0,2.878747111E0,7.735605822E0
1.639759125E1,-2.479481977E0,3.100872016E0,-1.318509707E0,4.183504031E0
1.640759525E1,-2.041690416E0,-5.416752407E0,-9.560713901E0,1.117662546E1
1.641759925E1,-2.230896228E-1,-1.800543056E1,-5.891916447E0,1.894623915E1
1.642760325E1,1.417535228E0,-3.636724658E1,-4.443982129E0,3.666517431E1
1.643760725E1,6.326094428E0,-5.149586692E1,-8.949440714E0,5.264918109E1
1.644761125E1,1.368573919E1,-4.443850684E1,-8.349487152E0,4.724187002E1
1.645761525E1,9.438045748E0,-3.418343549E1,-1.540223144E1,3.866280775E1
1.646762025E1,4.371963143E0,-2.915904470E1,-8.421939417E0,3.066419758E1
1.647762425E1,3.527141054E0,-2.676020811E1,-3.333914842E0,2.719677279E1
1.648762825E1,3.812890755E-1,-2.567967306E1,-3.374223793E0,2.590321170E1
1.649763225E1,-2.738070996E0,-2.286133617E1,-2.445497521E0,2.315422601E1
1.650763625E1,-5.939739069E0,-1.808532925E1,1.594325209E-1,1.903641387E1
1.651764025E1,-6.307808431E0,-1.305659516E1,2.040465424E0,1.464331327E1
1.652764425E1,-5.577305839E0,-8.644205532E0,3.018789972E0,1.072108775E1
1.653764925E1,-4.017836468E0,-4.536698504E0,4.245642235E0,7.399332483E0
1.654765325E1,-2.711001311E0,-6.581047064E-1,4.690335265E0,5.457277234E0
1.655765725E1,-1.452307012E0,2.964375783E0,4.789375988E0,5.816772455E0
