"Time (s)","Linear Acceleration x (m/s^2)","Linear Acceleration y (m/s^2)","Linear Acceleration z (m/s^2)","Absolute acceleration (m/s^2)"
5.830416660E-3,-6.213920859E-1,1.434857020E-1,-9.360784149E-1,1.132677831E0
1.588541668E-2,-7.387611991E-1,-2.329092175E-1,-2.502442238E0,2.619586221E0
2.594041667E-2,-8.196495339E-1,-2.341698772E-1,-3.199025717E0,3.310653474E0
3.599541666E-2,-9.213586342E-1,3.210910767E-2,-3.075255364E0,3.210471660E0
4.605041665E-2,-1.056766993E0,3.863673458E-1,-2.240624971E0,2.507276703E0
5.610641668E-2,-8.769744667E-1,6.441038409E-1,-1.187086519E0,1.610319340E0
6.616141667E-2,-4.841804463E-1,6.544232994E-1,-1.212069333E-1,8.230380793E-1
7.621641667E-2,-4.990730122E-1,5.338121974E-1,7.134059179E-1,1.021262619E0
8.627141666E-2,-6.549659210E-1,2.340938634E-1,1.390729837E0,1.554962950E0
9.632641668E-2,-4.995975074E-1,1.299549526E-1,8.733793062E-1,1.014533081E0
1.063824167E-1,-5.227346474E-1,-1.037512404E0,-1.381265534E0,1.804876166E0
1.164374167E-1,-3.981641033E-1,-1.026743587E0,-2.339579156E0,2.585801167E0
1.264924167E-1,-5.367624101E-1,-5.855390060E-1,-2.558044581E0,2.678537267E0
1.365474167E-1,-5.715106586E-1,-8.048473075E-1,-2.474325317E0,2.663961223E0
1.466024167E-1,-9.598996791E-1,-8.778933567E-1,-1.788776704E0,2.211747327E0
1.566574167E-1,-1.233760456E0,-1.040159438E0,-7.128989643E-1,1.764177274E0
1.667134167E-1,-7.046497124E-1,-1.241890571E0,1.452511518E0,2.036814453E0
1.767684167E-1,3.454798132E-1,-1.224536181E0,3.249673714E0,3.489874555E0
1.868234167E-1,1.222363648E0,-1.119293681E0,3.300958473E0,3.693686245E0
1.968784167E-1,1.778759985E0,-7.899599310E-1,3.009840809E0,3.584294278E0
2.069334167E-1,1.926306725E0,-3.057168830E-1,2.896198418E0,3.491716725E0
2.169894167E-1,1.844507101E0,2.710740306E-1,2.958919162E0,3.497268960E0
2.270444167E-1,1.567228627E0,7.257185461E-1,3.090680319E0,3.540505304E0
2.370994167E-1,1.300656989E0,1.042622285E0,2.659541720E0,3.138778742E0
2.471544167E-1,1.122692595E0,1.315055903E0,1.697609257E0,2.423156594E0
2.572094167E-1,1.075442415E0,1.541871591E0,7.348312855E-1,2.018395751E0
2.672644167E-1,1.232396008E0,1.547359934E0,-2.812803090E-2,1.978361411E0
2.773204167E-1,1.148535826E0,1.381572805E0,5.705713034E-3,1.796638671E0
2.873754167E-1,9.544085589E-1,7.762205822E-1,-4.444234729E-2,1.231011459E0
2.974304167E-1,5.245440683E-1,2.219331166E-1,-4.793097156E-1,7.444048571E-1
3.074854167E-1,9.319877028E-3,2.115635913E-1,-6.832573231E0,6.835854224E0
3.175404167E-1,7.433272898E-1,6.504040696E-1,-1.494260872E1,1.497521673E1
3.275964167E-1,6.458126897E-1,1.974542307E0,-2.243707039E0,3.057795387E0
3.376507083E-1,-5.793096748E-1,2.019448631E0,6.925810593E-1,2.212112338E0
3.477057083E-1,-1.457562343E0,1.149187206E0,1.109197513E0,2.162276195E0
3.577607083E-1,-8.853709222E-1,8.110488644E-1,1.633126162E0,2.027013318E0
3.678157083E-1,-2.857258008E-1,2.716183698E-1,3.439262080E-1,5.231644184E-1
3.778707083E-1,7.352493614E-2,-1.587445959E-1,1.925476420E-1,2.601544876E-1
3.879267083E-1,3.529673921E-1,-8.492121792E-1,-1.994098758E0,2.195945619E0
3.979817083E-1,9.236475268E-1,-1.309310283E0,-4.816737449E-1,1.673149057E0
4.080367083E-1,1.224117301E0,-7.941037796E-1,5.255611914E-1,1.550896046E0
4.180917083E-1,9.106268739E-1,-4.703395021E-1,-1.445616481E0,1.772080010E0
4.281467083E-1,8.548806893E-1,-1.678852558E-1,-3.494232339E0,3.601203423E0
4.382017083E-1,2.427600071E0,7.525954190E-1,-3.802115141E0,4.573370913E0
4.482577083E-1,2.601987284E0,9.949448200E-1,-2.626425430E0,3.828624238E0
4.583127083E-1,2.704457400E0,3.169667432E-1,-1.821594787E0,3.276089942E0
4.683677083E-1,2.932248549E0,-4.539882021E-1,-1.751907086E0,3.445774990E0
4.784227083E-1,3.338482102E0,-7.498377259E-1,-9.170492363E-1,3.542414242E0
4.884777083E-1,3.458210275E0,-1.498949666E0,-1.164807458E0,3.944977164E0
4.985337083E-1,3.003499503E0,-2.392523793E0,-2.306434799E0,4.479377284E0
5.085887083E-1,2.494933536E0,-3.184022346E0,-4.018586081E0,5.701905448E0
5.186437083E-1,2.007539314E0,-3.323142225E0,-5.581760248E0,6.799230531E0
5.286987083E-1,1.526758878E0,-3.109786973E0,-6.879632208E0,7.702668823E0
5.387537083E-1,-1.634628604E-1,-3.221219116E0,-7.088122283E0,7.787454668E0
5.488087083E-1,-3.806755783E0,-4.312696058E0,-7.857842735E0,9.738399731E0
5.588647083E-1,-1.226359635E0,-5.108986550E0,-8.792074599E0,1.024237654E1
5.689197083E-1,5.032376915E-2,-5.621332449E0,-8.096311485E0,9.856580069E0
5.789747083E-1,-1.178830835E0,-6.228109127E0,-6.416546177E0,9.019481708E0
5.890297083E-1,-1.378092250E0,-6.794414302E0,-5.524048229E0,8.864440919E0
5.990847083E-1,-1.951369645E0,-7.370296631E0,-5.505689142E0,9.404346275E0
6.091397083E-1,-2.199890928E0,-7.719123391E0,-5.690424904E0,9.838969540E0
6.191957083E-1,-2.018709104E0,-7.906184006E0,-5.875562954E0,1.005510676E1
6.292507083E-1,-2.222082866E0,-7.925042446E0,-5.451076148E0,9.872091024E0
6.393057083E-1,-2.508736181E0,-7.665541846E0,-4.908656849E0,9.441885462E0
6.493607083E-1,-1.941868504E0,-7.040549337E0,-4.663777211E0,8.665506686E0
6.594157083E-1,-9.354042310E-1,-6.354283270E0,-4.215292847E0,7.682485974E0
6.694717083E-1,2.020312411E-1,-5.773671128E0,-3.052293933E0,6.533956931E0
6.795267083E-1,1.153392524E0,-5.324533045E0,-3.230995953E-2,5.448119896E0
6.895817083E-1,8.113251454E-1,-5.708403338E0,3.501128253E0,6.745518231E0
6.996367083E-1,7.983139211E-1,-6.426325645E0,5.309444890E0,8.374077349E0
7.096917083E-1,6.976289606E-1,-6.616351383E0,5.865068371E0,8.869149834E0
7.197467083E-1,9.702705932E-1,-5.926243696E0,5.613228793E0,8.220105039E0
7.298027083E-1,2.094731678E0,-4.610447681E0,5.161561790E0,7.230895431E0
7.398577083E-1,4.082240624E0,-2.877001717E0,5.753485370E0,7.618688949E0
7.499127083E-1,5.695833578E0,-1.910153645E0,6.558406060E0,8.894037168E0
7.599677083E-1,6.969557122E0,-1.382568294E0,7.682613376E0,1.046464380E1
7.700227083E-1,7.708501339E0,-1.283676674E0,9.500281173E0,1.230138858E1
7.800777083E-1,7.306067306E0,-1.585972169E0,1.128230200E1,1.353455820E1
7.901337083E-1,6.889190651E0,-1.493552248E0,1.194374956E1,1.386884277E1
8.001887083E-1,6.599999059E0,-7.488625565E-1,1.071642718E1,1.260803689E1
8.102437083E-1,6.344787977E0,5.328392208E-1,7.732355055E0,1.001646479E1
8.202987083E-1,6.651438770E0,1.571380442E0,4.845774137E0,8.378090546E0
8.303537083E-1,6.379921557E0,2.142074537E0,2.898745465E0,7.327660450E0
8.404087083E-1,5.769976857E0,2.012250270E0,1.300902279E0,6.247730054E0
8.504647083E-1,5.420039712E0,1.447295802E0,4.469532707E-1,5.627722705E0
8.605197083E-1,4.848158632E0,8.226237202E-1,1.863197726E-1,4.920982317E0
8.705747083E-1,4.656771662E0,4.710505235E-1,3.258626971E-1,4.691865024E0
8.806297083E-1,4.213131716E0,1.191282481E-1,9.276680723E-1,4.315696751E0
8.906847083E-1,3.820160818E0,-3.915441781E-1,1.422138010E0,4.095047257E0
9.007407083E-1,3.665527107E0,-4.812229246E-1,1.823259927E0,4.122128241E0
9.107957083E-1,3.545576155E0,-2.516945672E-1,2.547738864E0,4.373263512E0
9.208507083E-1,4.111660890E0,4.012944102E-2,2.901881912E0,5.032721359E0
9.309057083E-1,4.655422125E0,1.125606555E-1,3.741847012E0,5.973863417E0
9.409607083E-1,4.692554868E0,-3.225967348E-2,5.431426579E0,7.177848324E0
9.510157083E-1,4.960321092E0,-2.415888244E-1,7.691416944E0,9.155383395E0
9.610717083E-1,5.572647362E0,-8.346467650E-1,9.870323385E0,1.136548800E1
9.711267083E-1,5.411394019E0,-9.343271738E-1,6.862851868E0,8.789475994E0
9.811817083E-1,4.943196352E0,-1.128922511E0,5.789033518E0,7.695619876E0
9.912367083E-1,5.405664917E0,-1.620809003E0,6.227649536E0,8.404275921E0
1.001291708E0,5.606240786E0,-1.823310360E0,7.237305220E0,9.334504982E0
1.011346708E0,6.276076176E0,-2.177811257E0,8.038543918E0,1.042833555E1
1.021402708E0,6.076384406E0,-1.744403354E0,6.795094918E0,9.281093980E0
1.031457708E0,6.112704971E0,-9.692870915E-2,5.149643995E0,7.993334130E0
1.041512708E0,5.692382551E0,4.965543240E-1,4.272576265E0,7.134752501E0
1.051567708E0,4.722829704E0,6.144324374E-1,2.378185982E0,5.323383905E0
1.061622708E0,4.661683323E0,5.940812033E-1,-1.339798250E0,4.886643350E0
1.071677708E0,4.104682823E0,1.977785611E-1,-5.350856041E0,6.746791667E0
1.081733708E0,3.883721221E0,1.332059460E0,-4.239445356E0,5.901742951E0
1.091788708E0,4.834900070E0,3.894962493E0,-6.079552428E0,8.689531013E0
1.101843708E0,4.769490193E0,3.239238773E0,-6.100153338E0,8.393603235E0
1.111898708E0,3.851779344E0,1.881928697E0,-3.065540508E0,5.270237029E0
1.121953708E0,3.276407769E0,2.506613642E-1,-1.167455077E0,3.487209535E0
1.132008708E0,2.726566014E0,-5.731364769E-1,-1.552992118E0,3.189738574E0
1.142064708E0,1.890332900E0,-1.271905645E0,-2.317274952E-1,2.290152849E0
1.152119708E0,5.044702846E-1,-2.030145088E0,5.005532348E-1,2.150937677E0
1.162174708E0,-9.455444723E-2,-2.382348615E0,5.918434739E-1,2.456583840E0
1.172229708E0,5.080774319E-1,-1.740365852E0,8.899509001E-1,2.019660511E0
1.182284708E0,1.268063731E0,5.289478987E-1,-6.327880168E-1,1.512677157E0
1.192340708E0,1.739715056E0,2.885741258E-1,6.124607563E-2,1.764549400E0
1.202395708E0,1.875664575E0,-2.819463068E0,4.082197355E0,5.303944271E0
1.212450708E0,2.319160094E0,-3.784117411E0,6.440398139E0,7.821558432E0
1.222505708E0,2.995565416E0,-1.980893991E0,7.362491768E0,8.191681036E0
1.232560708E0,1.494019440E0,2.099529904E0,3.178621858E0,4.091913589E0
1.242615708E0,2.257260008E0,4.282734632E0,-4.936089646E0,6.913900467E0
1.252671708E0,9.306267634E-1,3.007874390E0,-4.016681643E0,5.103636540E0
1.262726708E0,-2.421431404E-1,1.460418123E0,-3.693035333E0,3.978688774E0
1.272781708E0,-2.025132270E0,-3.872793944E0,5.371479755E0,6.924773528E0
1.282836708E0,-2.383164009E0,-1.986526029E0,2.105063124E0,3.749272878E0
1.292891708E0,-1.680529832E0,4.399640354E0,-6.589048979E0,8.099171699E0
1.302946708E0,-2.375659108E0,1.488143281E0,-3.845020255E0,4.758414377E0
1.313002708E0,-3.102303707E0,-6.635779926E0,1.560290321E0,7.489483921E0
1.323057708E0,-2.626605816E0,-8.606023214E0,5.434196405E0,1.051157382E1
1.333112667E0,1.589293095E0,-1.093760864E0,8.410975887E0,8.629407902E0
1.343167667E0,3.495521650E0,2.212540795E0,6.447846322E0,7.660857039E0
1.353222667E0,2.400410664E0,7.475620188E0,-1.072451271E0,7.924457097E0
1.363277667E0,9.299853238E-1,1.125811909E1,-1.909061181E1,2.218246103E1
1.373333667E0,-3.079207205E0,7.100868044E0,-7.786996701E0,1.097912390E1
1.383388667E0,-1.594982728E0,-1.132614443E0,3.661070359E0,4.150930203E0
1.393443667E0,-1.832141994E0,-5.421940057E0,1.089527831E1,1.230696013E1
1.403498667E0,-1.062104331E0,-3.451776291E0,1.102170681E1,1.159831221E1
1.413553667E0,-1.229654249E0,7.753466427E-2,4.088070883E0,4.269705463E0
1.423608667E0,-1.186427245E0,4.577774609E0,-1.025632850E1,1.129406500E1
1.433664667E0,-1.686722910E0,7.174599094E0,-8.061686613E0,1.092294362E1
1.443719667E0,-1.401315052E0,6.274614372E0,-6.279183387E0,8.986802179E0
1.453774667E0,-8.810458830E-1,5.048927459E0,-5.104771292E0,7.233712759E0
1.463829667E0,-2.935565382E-1,4.526523764E0,-2.258251988E0,5.067079521E0
1.473884667E0,3.521915397E-1,4.303680528E0,-2.530541618E0,5.004932152E0
1.483939667E0,2.164756179E-1,4.276794446E0,-3.190239691E0,5.339987052E0
1.493995667E0,-4.617864874E-1,4.404078391E0,-3.016527684E0,5.358039987E0
1.504050667E0,-1.225804442E0,3.693444053E0,-1.761384253E0,4.271603913E0
1.514105667E0,-1.780835016E0,3.351484264E0,-2.395383228E0,4.487948410E0
1.524160667E0,-2.131857405E0,4.378455892E0,-3.709881746E0,6.122002496E0
1.534215667E0,-3.287806623E0,3.877427278E0,-4.343280212E0,6.686418899E0
1.544271667E0,-3.641800860E0,2.561211433E0,-3.569163238E0,5.706263552E0
1.554326667E0,-2.043013933E0,2.472889826E0,-1.702201075E0,3.631332885E0
1.564381667E0,-6.543084016E-1,2.001004320E0,-1.135604124E0,2.392014736E0
1.574436667E0,-6.330651748E-1,8.812537515E-1,1.106073931E-1,1.090694130E0
1.584491667E0,-1.028418522E0,-5.091427946E-1,2.847666821E0,3.070191747E0
1.594546667E0,-4.028933313E-1,-1.963533023E0,3.429976702E0,3.972722636E0
1.604602667E0,3.684090847E-1,-2.269735335E0,2.520929965E0,3.412112488E0
1.614657667E0,6.343962935E-1,-2.478261078E0,1.563085874E0,2.997911620E0
1.624712667E0,1.254227757E0,-2.818453839E0,-7.649298280E-1,3.178346575E0
1.634767667E0,1.928760801E0,-2.722915598E0,-1.921180178E0,3.850366327E0
1.644822667E0,1.464721966E0,-2.987752951E0,-1.752326916E0,3.760681821E0
1.654877667E0,9.622622466E-1,-2.881892036E0,-9.338582271E-1,3.178575392E0
1.664933667E0,4.539950725E-1,-2.731983460E0,-9.351422757E-1,2.923069658E0
1.674988667E0,-4.482686019E-1,-2.545469559E0,-8.860326809E-1,2.732290967E0
1.685043667E0,-1.274798262E0,-2.193613358E0,-1.670166519E-1,2.542625559E0
1.695098667E0,-1.518760033E0,-1.768485696E0,3.416317606E-1,2.356031824E0
1.705153667E0,-1.077891813E-1,-1.776106957E0,1.995146287E0,2.673346804E0
1.715208667E0,5.611226414E-1,-2.010994288E0,1.067314785E0,2.344806494E0
1.725264667E0,9.213897707E-1,-2.617064622E0,2.111273451E0,3.486468404E0
1.735319667E0,2.321706849E0,-2.829247799E0,3.483530765E0,5.052717328E0
1.745374667E0,2.810473559E0,-1.739150800E0,3.584654852E0,4.875772507E0
1.755429667E0,3.094681276E0,-2.311638236E-1,1.821455331E0,3.598359131E0
1.765484667E0,2.060681003E0,1.581942560E0,-4.756768405E-1,2.641063595E0
1.775539667E0,1.924638222E0,2.657834918E0,-1.054921319E0,3.446908430E0
1.785595667E0,1.329908854E0,2.780968509E0,-2.162069968E0,3.765234382E0
1.795650667E0,1.201978354E0,2.921725608E0,-2.402217454E0,3.968863966E0
1.805705667E0,8.224981512E-1,2.581665578E0,-2.958770642E0,4.011960130E0
1.815760667E0,5.400605321E-1,4.105090374E0,-4.426155138E0,6.060881261E0
1.825815667E0,-1.261703423E-1,6.013397030E0,-4.099192287E0,7.278752654E0
1.835870667E0,-8.041120201E-2,6.167479348E0,-4.101821195E0,7.407375014E0
1.845926667E0,-2.139569297E-1,6.298422480E0,-3.251605049E0,7.091462381E0
1.855981667E0,1.629117604E-1,5.746351182E0,-1.766950217E0,6.014083906E0
1.866036667E0,1.555982092E-1,2.799767307E0,-1.306691023E0,3.093598100E0
1.876091667E0,4.187784621E-1,-1.871346990E0,2.983857829E0,3.546931420E0
1.886146667E0,-6.277062017E-1,-6.483342429E0,1.150087560E1,1.321733270E1
1.896201667E0,-2.405917864E0,-8.474689488E0,1.388461586E1,1.644358112E1
1.906257667E0,-1.317750739E0,-5.041117333E0,8.349791207E0,9.842171721E0
1.916312667E0,3.957307553E0,6.581082147E-1,3.678652936E-1,4.028487851E0
1.926367667E0,2.590481718E0,1.670056592E0,6.506074065E-1,3.150075324E0
1.936422667E0,8.083258161E-1,-8.712667072E-1,5.795812780E0,5.916412940E0
1.946477667E0,1.576402031E0,-3.756996855E0,5.814343776E0,7.099764945E0
1.956533667E0,4.076865864E-1,-3.703045181E0,-2.591791787E0,4.538296666E0
1.966588667E0,-8.579774478E-1,-2.727284052E0,-3.446509119E0,4.478016158E0
1.976643667E0,7.251868880E-1,-2.384591607E0,-3.008467882E0,3.906795637E0
1.986698667E0,1.871149355E0,-2.695465844E0,-7.302096462E-1,3.361538658E0
1.996753667E0,2.283043597E0,-3.788324482E0,2.404648726E0,5.034483682E0
2.006808667E0,2.674302724E0,-4.338470292E0,3.841020175E0,6.381822272E0
2.016864667E0,2.462649597E0,-4.752844339E0,4.070621622E0,6.724889050E0
2.026919667E0,3.053960974E0,-5.390040572E0,5.595923958E0,8.348268081E0
2.036974667E0,1.572996320E0,-3.495676602E0,9.206873739E-1,3.942301050E0
2.047029667E0,1.124664861E0,-9.043332964E-1,-1.221817226E0,1.890906421E0
2.057084667E0,5.373070782E-1,4.479475898E-1,-5.730916287E0,5.773452817E0
2.067139667E0,2.503526312E-1,-1.664655519E-1,-4.775340332E0,4.784794928E0
2.077195667E0,-6.149949396E-1,-1.470966500E-1,-4.210995144E0,4.258208109E0
2.087250667E0,-1.174119295E0,8.852450609E-1,-5.011160878E0,5.222446580E0
2.097305667E0,-1.903288868E0,2.756867455E0,-5.965076224E0,6.841415134E0
2.107360667E0,-2.138349568E0,4.011218589E0,-5.200151074E0,6.906807123E0
2.117415667E0,-1.935950537E0,4.241900017E0,-3.514840266E0,5.839154248E0
2.127470667E0,-1.446192140E0,4.137594461E0,-1.943177111E0,4.794486095E0
2.137526667E0,-1.492097899E0,4.323890260E0,-1.525224568E0,4.821689860E0
2.147581667E0,-1.134275929E0,4.550688552E0,-9.673651117E-1,4.788647350E0
2.157636667E0,-2.925407307E-1,5.651871287E0,-4.751061523E-1,5.679344591E0
2.167691667E0,1.053206769E0,7.914065468E0,-1.198859303E0,8.073347531E0
2.177746667E0,2.731013991E0,9.837984774E0,-2.399741743E0,1.048823828E1
2.187801667E0,1.889859421E0,9.253638015E0,-4.142753459E0,1.031328228E1
2.197857667E0,1.439690328E0,7.743508034E0,-5.168219429E0,9.420462674E0
2.207912667E0,7.264121720E-1,4.995846435E0,-2.381760970E0,5.582019488E0
2.217967667E0,-5.404279711E0,-6.711251108E0,1.430324843E0,8.734584122E0
2.228022667E0,-6.344890888E0,-1.202328573E1,5.748751464E0,1.476025689E1
2.238077667E0,-3.882932139E0,-9.529362885E0,4.466765220E0,1.121774980E1
2.248132667E0,-5.167272180E-1,-5.473836434E0,2.446881995E0,6.018066453E0
2.258188667E0,8.637164900E-1,-3.179439299E0,2.784249966E0,4.313570250E0
2.268243667E0,1.136105815E0,-3.008119973E0,9.445557082E-1,3.351373999E0
2.278298667E0,6.936929074E-1,-2.459219036E0,-7.720587534E-1,2.669277586E0
2.288353667E0,-1.535274178E-2,-1.803934441E0,-1.278813837E0,2.211284696E0
2.298408667E0,-7.858619830E-1,-1.534278397E0,-1.712317343E0,2.429736598E0
2.308463667E0,-2.080458917E0,-1.972311448E0,-2.153817793E0,3.585701164E0
2.318519667E0,-3.342159416E0,-1.673280162E0,-2.203405397E0,4.338766116E0
2.328574667E0,-4.726004742E0,-2.105436176E0,-1.286318154E0,5.331284715E0
2.338633083E0,-5.779949284E0,-3.197457494E0,1.769038551E0,6.838204848E0
2.348688083E0,-5.899252363E0,-3.206156981E0,1.710770754E0,6.928734200E0
2.358743083E0,-4.553545502E0,-1.822885267E0,9.340780824E-1,4.993014039E0
2.368798083E0,-1.895758239E0,-8.289562547E-1,5.629626140E-1,2.144293515E0
2.378854083E0,-6.948281443E-1,-9.161955428E-1,2.312512687E0,2.582617926E0
2.388909083E0,-4.475227895E-1,4.113480543E0,1.699218410E0,4.473068526E0
2.398964083E0,-5.860345575E-1,-4.418021661E-1,2.705336236E0,2.803117872E0
2.409019083E0,-8.191773713E-2,2.447632778E-1,-6.456670940E-2,2.660609663E-1
2.419074083E0,3.456084227E0,4.057375925E0,2.912427365E0,6.073635710E0
2.429129083E0,6.888616455E-1,1.148101963E0,-1.126003581E0,1.749443496E0
2.439185083E0,-6.806506929E-1,-3.687350670E0,-2.377312993E0,4.439758709E0
2.449240083E0,2.414809433E0,-1.506673692E0,-1.480104529E0,3.208127121E0
2.459295083E0,8.294429770E0,3.497657638E0,-1.216706175E-1,9.002553965E0
2.469350083E0,9.401473169E0,8.769402021E0,1.043691157E0,1.289881393E1
2.479405083E0,5.731681688E0,5.754280592E0,-1.726252135E0,8.303244338E0
2.489460083E0,2.400657124E0,3.013704064E0,-2.787248126E0,4.755451496E0
2.499516083E0,1.020523611E0,1.646517456E0,-1.551113700E0,2.481620818E0
2.509571083E0,8.157851091E-1,1.272506154E0,-3.923850077E-1,1.561647607E0
2.519626083E0,4.704023597E-1,7.804869300E-1,6.684224108E-1,1.130144569E0
2.529681083E0,-2.537033781E-1,-3.263214111E-2,3.925437596E-1,4.685305368E-1
2.539736083E0,-6.391591430E-1,-5.056508374E-1,5.526159659E-1,9.846784171E-1
2.549791083E0,-9.102117947E-1,-1.324274477E0,6.216324064E-1,1.722966991E0
2.559847083E0,-1.161738547E0,-2.191558061E0,-5.039867198E-1,2.531119476E0
2.569902083E0,-1.802331135E-1,-2.377492502E0,-1.134326215E0,2.640388331E0
2.579957083E0,7.967015514E-1,-3.086014241E0,-2.466487125E-1,3.196725331E0
2.590012083E0,1.493584407E0,-2.940147260E0,8.544115233E-1,3.406652220E0
2.600067083E0,1.212088044E0,-2.481030319E0,7.360343501E-1,2.857694077E0
2.610122083E0,7.961627305E-2,-2.039794748E0,3.735786080E-3,2.041351347E0
2.620178083E0,-1.396800417E-1,-8.153556311E-1,1.007258910E-1,8.333432812E-1
2.630233083E0,-5.390694290E-2,-2.829216224E-1,4.517614362E-1,5.357602058E-1
2.640288083E0,1.166189155E-1,-4.186547935E-1,6.479878539E-1,7.802307776E-1
2.650343083E0,-2.189972296E-1,-1.583742918E0,1.308786373E0,2.066185661E0
2.660398083E0,-5.628243273E-1,-2.116906659E0,1.434917538E0,2.618597596E0
2.670453083E0,-3.179613546E-1,-2.127863756E0,8.086102831E-1,2.298424282E0
2.680509083E0,3.272470254E-1,-2.163275664E0,6.289142364E-1,2.276485302E0
2.690564083E0,1.423369434E0,-1.152584438E0,-1.525179545E0,2.383401786E0
2.700619083E0,-7.678554824E-1,-2.085191361E0,-1.139652736E0,2.497285209E0
2.710674083E0,-2.761934068E0,-2.463721976E0,-3.038600046E0,4.788663280E0
2.720729083E0,-4.303636674E0,-2.628914589E0,-2.894441037E0,5.814659875E0
2.730784083E0,-4.410472906E0,-3.935690689E-1,-3.446475205E0,5.611181623E0
2.740840083E0,1.525299705E0,4.351410180E0,1.160314457E0,4.754749140E0
2.750895083E0,6.358064957E-1,3.965117387E0,2.796597239E0,4.893604184E0
2.760950083E0,-2.776323481E0,-1.135136347E0,2.580429769E0,3.956655708E0
2.771005083E0,2.937850474E0,4.405440207E0,1.556019514E0,5.519063830E0
2.781060083E0,7.583956230E0,9.458791670E0,1.473151897E0,1.221291564E1
2.791115083E0,5.785145704E0,7.031614206E0,2.596627434E0,9.468578732E0
2.801171083E0,2.384231711E0,4.284160184E0,2.336011185E0,5.430979432E0
2.811226083E0,1.253841549E0,4.843029454E0,1.502389437E0,5.223430572E0
2.821281083E0,7.943766984E-1,4.885680215E0,1.409594417E0,5.146635981E0
2.831336083E0,1.464648291E0,3.798664114E0,7.301687157E-1,4.136204785E0
2.841391083E0,9.173878632E-1,1.742921085E0,-4.534983516E-1,2.021146990E0
2.851446083E0,-8.623258759E-1,3.783095902E-1,-1.238073947E0,1.555490650E0
2.861502083E0,-1.118113275E0,6.144640124E-1,-2.500189891E0,2.806900926E0
2.871557083E0,-8.382140051E-1,6.523112851E-1,-2.326566178E0,2.557542357E0
2.881612083E0,-8.202548669E-1,-1.060094351E0,-1.776237350E0,2.225227450E0
2.891667083E0,-8.024455637E-1,-3.707259854E0,-2.193026589E0,4.381444982E0
2.901722083E0,-8.433687642E-2,-6.256885030E0,-1.655163149E0,6.472656953E0
2.911777083E0,2.102530110E0,-7.521261215E0,-1.790791947E0,8.012299228E0
2.921833083E0,3.494932836E0,-7.249275055E0,-1.343788683E0,8.159185766E0
2.931888083E0,3.901144170E0,-5.097183945E0,-1.628891901E0,6.622197432E0
2.941943083E0,4.553521528E0,-2.196728169E0,-2.544430217E0,5.659884989E0
2.951998083E0,6.670183774E0,5.030628598E-1,-3.707561278E0,7.647903925E0
2.962053083E0,7.339685873E0,1.295502083E0,-4.205297617E0,8.557677395E0
2.972109083E0,7.818241882E0,2.047493193E0,-1.989020451E0,8.323060546E0
2.982164083E0,5.633816839E0,1.653286777E0,-3.918798083E-1,5.884455721E0
2.992219083E0,-3.103336617E-1,1.541555257E0,1.224985247E0,1.993310926E0
3.002274083E0,-1.207765548E1,-8.298894703E-1,4.252301629E0,1.283123328E1
3.012329083E0,-1.235766928E1,-5.166060637E0,4.782620115E0,1.422229334E1
3.022384083E0,-8.921041372E-1,-3.914687490E-1,4.918093085E0,5.013655071E0
3.032440083E0,-2.364951687E0,3.456616616E-1,2.922912008E-1,2.407885506E0
3.042495083E0,-5.570180422E0,7.796484393E-1,-1.679056918E0,5.869752444E0
3.052550083E0,-2.694064851E0,3.352074248E0,1.117042723E0,4.443216360E0
3.062605083E0,-2.903505684E0,3.927568907E0,7.924979880E-1,4.948150749E0
3.072660083E0,-4.690394906E0,2.696287962E0,1.075943229E-1,5.411224417E0
3.082715083E0,-3.972077327E0,1.307661953E0,2.488529081E0,4.866225957E0
3.092771083E0,-2.070088003E0,9.816510290E-1,3.076970353E0,3.836228569E0
3.102826083E0,-6.588228907E-1,8.924839139E-1,2.157832198E0,2.426275939E0
3.112881083E0,1.009215096E0,9.963708097E-1,-9.766215464E-1,1.721934826E0
3.122936083E0,1.628616205E0,1.586237340E0,-1.793474649E0,2.895702153E0
3.132991083E0,1.404140427E0,1.962713828E0,-1.106175965E0,2.654709245E0
3.143046083E0,2.059998560E-1,7.075230342E-1,-1.507933474E0,1.678358766E0
3.153102083E0,-1.066481118E0,-1.299051928E0,-8.269728792E-1,1.873179658E0
3.163157083E0,-7.941749695E-1,-1.976230837E0,3.800812966E-1,2.163484225E0
3.173212083E0,-3.333037175E-1,-2.253122225E0,2.649963981E-1,2.293005500E0
3.183267083E0,3.159700122E-1,-2.440069404E0,-3.674381545E-1,2.487727184E0
3.193322083E0,7.411049093E-1,-2.455258716E0,-4.035777479E-2,2.564987447E0
3.203377083E0,1.386721133E0,-3.258168549E0,1.144390150E0,3.721328608E0
3.213433083E0,1.195729946E0,-3.802983452E0,3.355661514E-1,4.000632185E0
3.223488083E0,3.244346974E-1,-3.258384311E0,-3.972960842E-1,3.298510326E0
3.233543083E0,-1.834704427E-1,-1.354874711E0,-7.794376472E-1,1.573807463E0
3.243598083E0,-1.678143949E-1,5.596019268E-2,-1.173079806E0,1.186342887E0
3.253653083E0,-1.830185077E-1,8.998233390E-1,-1.633331400E0,1.873752726E0
3.263708083E0,-4.853648363E-1,1.489222092E0,-1.880844330E0,2.447639038E0
3.273764083E0,-6.626883388E-1,1.389230611E0,7.615413666E-3,1.539212630E0
3.283819083E0,-4.406717531E-1,1.582909105E0,-9.801892251E-2,1.646025679E0
3.293874083E0,-1.221976343E-1,2.443778878E0,2.016333380E-1,2.455125958E0
3.303929083E0,-6.898283729E-2,5.461076640E0,8.840221158E-1,5.532595395E0
3.313984083E0,-3.091470790E-1,7.656295059E0,-3.059701771E-2,7.662594999E0
3.324039083E0,-3.735798506E-1,8.269732300E0,2.557542890E-1,8.282115942E0
3.334092083E0,2.543180301E-1,6.892119521E0,1.478326975E0,7.053470054E0
3.344147083E0,5.183273817E-1,5.031419141E0,9.756485698E-1,5.151284498E0
3.354202083E0,4.678441663E-1,3.460750598E0,-1.222436446E-1,3.494369238E0
3.364257083E0,3.955733117E-1,2.184839610E0,-1.073493538E0,2.466250341E0
3.374312083E0,1.527850772E-1,1.034806312E0,-4.316540310E-1,1.131588523E0
3.384367083E0,-3.760856017E-2,5.321521729E-1,6.909049550E-1,8.728974715E-1
3.394423083E0,-2.169263651E-1,-4.761247373E-1,3.733973444E-1,6.427887601E-1
3.404478083E0,-3.119004232E-1,-2.949284704E0,2.320654643E-1,2.974796887E0
3.414533083E0,-2.875699030E-1,-4.928959551E0,2.596017569E-1,4.944161382E0
3.424588083E0,-4.126414804E-1,-5.251797776E0,1.705667889E-1,5.270744340E0
3.434643083E0,-8.134593791E-1,-4.040771586E0,-8.225941917E-1,4.203119363E0
3.444698083E0,-9.505243997E-1,-2.603181578E0,3.327942789E-3,2.771292485E0
3.454754083E0,-5.691279182E-1,-1.346396833E0,1.517636636E0,2.107109864E0
3.464809083E0,8.276821464E-2,-9.312158704E-2,1.716958863E0,1.721473190E0
3.474864083E0,4.824077167E-1,-7.036188483E-2,4.421345803E-1,6.581420721E-1
3.484919083E0,6.901307836E-1,2.287109166E-1,-9.032135546E-1,1.159475704E0
3.494974083E0,8.237824190E-1,2.079667497E-1,-5.888994008E-1,1.033765035E0
3.505029083E0,5.840525707E-1,-2.681936556E-1,-1.051250437E0,1.232141519E0
3.515085083E0,1.465145049E-1,-5.190175724E-1,-7.048710296E-1,8.875183992E-1
3.525140083E0,8.225311880E-1,-2.464458725E0,-1.548645006E0,3.024634807E0
3.535195083E0,1.149472623E0,-2.925734459E0,-1.448943547E0,3.461307099E0
3.545250083E0,1.026055150E0,-2.409830528E0,-7.628511429E-1,2.728005538E0
3.555305083E0,1.140851562E0,-1.858595383E0,-1.263028109E0,2.520150608E0
3.565360083E0,1.234962498E0,-9.428453976E-1,-1.935276646E0,2.481810933E0
3.575416083E0,7.178804997E-1,-1.076454275E0,-1.132576728E0,1.719545365E0
3.585471083E0,-1.682064872E-1,-1.780495293E0,1.623073337E0,2.415124006E0
3.595526083E0,-9.137331524E-2,-1.550131953E0,3.379598261E0,3.719266401E0
3.605581083E0,7.564804552E-1,-3.977585989E-1,3.157965984E0,3.271578172E0
3.615636083E0,8.511112086E-1,4.809685707E-1,1.827518308E0,2.072569474E0
3.625691083E0,1.810693201E-1,6.626573485E-1,5.520625269E-1,8.812910381E-1
3.635747083E0,-2.896813326E-1,9.269175822E-1,1.680212036E-1,9.855570016E-1
3.645802083E0,-4.487017344E-1,8.503845459E-1,-7.489552349E-2,9.644150879E-1
3.655857083E0,-5.625369002E-1,4.961444342E-1,-2.678659192E-1,7.964667063E-1
3.665912083E0,-5.222983355E-1,1.430521309E-1,-2.207695207E-1,5.848065019E-1
3.675967083E0,-3.713773506E-1,-3.810560274E-1,-2.692642808E-1,5.963456091E-1
3.686022083E0,-1.837601905E-1,-3.253741622E-1,-4.723199540E-1,6.022643041E-1
3.696078083E0,-3.304093458E-1,2.177099651E-1,-4.940444067E-1,6.329674877E-1
3.706133083E0,-5.096862202E-1,1.281447131E0,-2.202359623E-1,1.396563880E0
3.716188083E0,-6.634322508E-1,1.463127723E0,2.250815499E-1,1.622204299E0
3.726243083E0,-5.238794957E-1,7.354323792E-1,7.068927044E-1,1.146737898E0
3.736298083E0,-1.492757611E-1,2.688766104E-1,8.370771602E-1,8.917825164E-1
3.746353083E0,1.973036210E-1,4.892885739E-1,7.304710168E-1,9.010659985E-1
3.756409083E0,1.461097862E-1,1.270226324E0,3.535665125E-1,1.326586696E0
3.766464083E0,-2.248540566E-1,5.478303123E-1,-1.437935579E-1,6.093882056E-1
3.776519083E0,-2.505491707E-1,-3.930036432E-1,-6.030309516E-1,7.621502996E-1
3.786574083E0,-2.614325202E-1,-5.366527748E-1,-7.793031612E-1,9.816601145E-1
3.796629083E0,-3.335754669E-1,-5.133545440E-1,-5.655257410E-1,8.334415659E-1
3.806684083E0,3.436039533E-2,-4.602460384E-2,-2.316783786E-1,2.386917930E-1
3.816740083E0,5.727293645E-1,1.399143981E0,-3.889181936E-1,1.561050981E0
3.826795083E0,7.445549127E-1,1.611895507E0,-4.733323994E-1,1.837556177E0
3.836850083E0,9.637453198E-1,9.300663078E-1,-7.495001954E-1,1.534789536E0
3.846905083E0,7.886022806E-1,-1.363540285E0,-5.157872781E-1,1.657459556E0
3.856960083E0,4.228782374E-1,-2.194954124E0,-4.046270308E-1,2.271645361E0
3.867016083E0,5.045901160E-1,-2.638348487E0,-1.122677100E-1,2.688512221E0
3.877071083E0,7.328739300E-1,-1.800969903E0,2.271742684E-1,1.957601833E0
3.887126083E0,9.578940842E-1,-1.049486332E0,4.804832518E-1,1.499948930E0
3.897181083E0,1.124258698E0,-8.920208144E-1,5.045579928E-1,1.521261819E0
3.907236083E0,1.288922942E0,-5.405844426E-1,4.066305792E-1,1.455644984E0
3.917291083E0,1.122458633E0,-8.397642481E-1,7.988115191E-2,1.404100557E0
3.927347083E0,7.735693084E-1,-1.040321991E0,1.695674998E-1,1.307452659E0
3.937402083E0,8.725909553E-1,-6.702768552E-1,1.777407378E-1,1.114575169E0
3.947457083E0,5.580718201E-1,-7.946178961E-1,-1.870571065E-1,9.888640545E-1
3.957512083E0,2.520862576E-2,-1.294892803E0,-6.572293782E-1,1.452354400E0
3.967567083E0,-9.940884221E-2,-1.303532065E0,-8.689898014E-1,1.569783818E0
3.977622083E0,-2.866970965E-1,-1.902603282E0,-1.046735217E0,2.190376472E0
3.987678083E0,-2.701965097E-1,-2.629525039E0,-1.202130235E0,2.903881056E0
3.997733083E0,-3.048723623E-2,-3.074596383E0,-1.486677969E0,3.415301417E0
4.007788083E0,2.263261297E-1,-3.066376367E0,-1.921209999E0,3.625594490E0
4.017843083E0,-6.460917480E-3,-1.148494896E0,-2.282160083E0,2.554865342E0
4.027898083E0,-4.340587715E-1,1.360179305E-2,-1.185328261E0,1.262376771E0
4.037953083E0,-3.959380318E-1,2.729649836E-1,-3.005316818E-1,5.670944357E-1
4.048009083E0,9.770508234E-2,2.157090479E-1,5.946393201E-1,6.400567142E-1
4.058064083E0,2.137203368E-1,7.247998023E-1,9.224517712E-1,1.192446395E0
4.068119083E0,-8.127693345E-1,5.085206509E-1,1.725707759E0,1.974146528E0
4.078174083E0,-3.137358642E-1,1.711881725E0,4.542531979E0,4.864521149E0
4.088229083E0,-6.520702063E-2,4.715495834E0,5.408882639E0,7.176082798E0
4.098284083E0,-8.868072908E-1,1.832684616E0,6.204643666E0,6.530142655E0
4.108340083E0,-5.049610852E-1,-9.007928073E-2,5.555398076E0,5.579027492E0
4.118395083E0,5.261207243E-2,-1.174398061E0,1.485669616E0,1.894516573E0
4.128450083E0,-1.880695519E-1,-9.243354517E-1,-2.711425819E0,2.870818029E0
4.138505083E0,-8.358726338E-1,-3.410575640E-1,-4.732090816E0,4.817435710E0
4.148560083E0,-9.658964373E-1,-1.137928392E0,-4.394966967E0,4.641505315E0
4.158615083E0,-8.496669464E-1,-5.013192201E-1,-2.990878873E0,3.149382688E0
4.168671083E0,-1.150003258E0,-1.169677604E0,-1.216797099E0,2.042363428E0
4.178726083E0,-1.279306465E0,-2.262270779E0,8.629198068E-1,2.738452976E0
4.188781083E0,-1.261896235E0,-1.633755323E0,1.903716299E0,2.808144282E0
4.198836083E0,-4.969778452E-1,5.972948331E-1,1.969164476E0,2.116921546E0
4.208891083E0,-1.941068386E-1,2.602396882E-1,1.706413994E0,1.737023569E0
4.218946083E0,-2.181982807E-1,-5.752724648E-1,1.497277801E0,1.618761784E0
4.229002083E0,2.581157602E-1,-9.396884859E-1,-2.159022984E-1,9.981242400E-1
4.239057083E0,4.107644145E-1,-8.439052463E-1,-2.424077854E0,2.599433960E0
4.249112083E0,5.220456992E-1,-4.763738286E-1,-3.272623743E0,3.348063605E0
4.259167083E0,2.152349849E-1,-6.675386041E-1,-5.840734014E-1,9.127297656E-1
4.269222083E0,1.390614063E-3,-1.594228145E0,2.009840340E0,2.565350561E0
4.279278083E0,-7.088009432E-2,-2.164111231E0,1.507106678E0,2.638137970E0
4.289333083E0,-5.507991629E-1,-3.916559769E0,5.977333742E-1,4.000013166E0
4.299388083E0,9.990216449E-2,-5.103658567E0,2.735485357E-1,5.111960486E0
4.309443083E0,1.184000359E0,-3.238012612E0,2.448613356E0,4.228745664E0
4.319498083E0,3.476703556E0,2.893794043E0,1.242301776E0,4.690930109E0
4.329553083E0,3.248357213E0,6.707721144E-1,-4.185512978E-1,3.343193833E0
4.339611958E0,3.818791400E0,4.606679735E0,-1.583935876E0,6.189791499E0
4.349666958E0,5.217247163E0,8.398706090E0,-1.774503066E0,1.004523733E1
4.359721958E0,2.370553319E-1,1.451071934E0,3.651568633E0,3.936465225E0
4.369776958E0,-3.509087483E0,2.147976424E0,-3.788814479E-1,4.131712579E0
4.379831958E0,-6.362913761E0,-9.980343425E-1,-4.442995119E0,7.824509550E0
4.389886958E0,-4.823309427E0,-2.239194158E0,-1.985909733E0,5.676455036E0
4.399942958E0,-2.529603724E0,-1.019254473E0,-1.752094781E0,3.241544509E0
4.409997958E0,-6.020717159E-1,2.092289296E0,-2.184305467E0,3.084048512E0
4.420052958E0,-9.611395812E-1,3.841337094E0,-9.989353985E-1,4.083813401E0
4.430107958E0,-1.332207687E-2,3.300104195E0,-3.417475355E-1,3.317778858E0
4.440162958E0,1.100387367E0,2.743948617E0,1.319493209E0,3.237463313E0
4.450217958E0,1.507258998E0,3.150849338E0,1.050688519E0,3.647413824E0
4.460273958E0,6.759250463E-1,2.187507695E0,3.922724488E-1,2.322916757E0
4.470328958E0,6.423794970E-2,8.573784006E-1,-8.588975072E-1,1.215289745E0
4.480383958E0,-1.708790302E-1,2.149407238E-1,-9.532221588E-1,9.919836903E-1
4.490438958E0,-1.556186745E-1,2.554098880E-1,-7.828661621E-1,8.380517946E-1
4.500493958E0,-1.218454492E-1,1.164862422E0,-1.377741417E-1,1.179293216E0
4.510548958E0,-2.616178769E-1,1.070148638E0,-7.699905932E-2,1.104350884E0
4.520604958E0,-3.384437124E-1,7.959101307E-1,-8.803567886E-3,8.649246126E-1
4.530659958E0,-4.104731866E-1,5.262716281E-1,1.268319547E-2,6.675409553E-1
4.540714958E0,1.828503637E-1,2.397516292E0,3.016783208E-1,2.423330031E0
4.550769958E0,5.157403177E-1,4.007333699E0,-1.075755533E0,4.181143554E0
4.560824958E0,-2.041055408E0,-5.585791318E0,-2.155346255E0,6.325542610E0
4.570879958E0,-2.907670326E-1,-3.581000926E0,3.877557671E-1,3.613650182E0
4.580935958E0,1.230135584E-1,-2.650838140E0,4.500484943E-2,2.654072458E0
4.590990958E0,3.532671350E-1,-2.592820312E0,-1.034869462E0,2.813977548E0
4.601045958E0,6.275515428E-1,-4.824297899E-1,-3.614921209E-1,8.701930789E-1
4.611100958E0,-1.673582755E-1,4.978407115E-1,4.538129318E-1,6.941183929E-1
4.621155958E0,-3.654666561E-1,7.698555225E-1,9.974282786E-1,1.311909514E0
4.631210958E0,-1.404551449E-1,1.815456964E0,2.556074947E0,3.138332483E0
4.641266958E0,2.313475906E-1,2.675635597E0,2.202639704E0,3.473351295E0
4.651321958E0,6.216215891E-1,1.609210466E0,2.015819410E0,2.653205536E0
4.661376958E0,8.817572699E-1,-4.155113304E-1,3.264252577E0,3.406683201E0
4.671431958E0,9.369299157E-1,-8.262916785E-1,3.390598920E0,3.613413434E0
4.681486958E0,-2.518497011E-1,-1.024754364E0,1.909414996E0,2.181608444E0
4.691541958E0,-7.510695150E-1,-7.222580177E-1,-6.275038880E-1,1.216356523E0
4.701597958E0,-1.221723378E0,-8.892796397E-2,-2.387922473E0,2.683782766E0
4.711652958E0,-1.679513732E0,2.443223977E-1,-3.212376957E0,3.633156413E0
4.721707958E0,-1.631792120E0,-6.920314211E-1,-4.991827644E0,5.297168700E0
4.731762958E0,-1.183272088E0,-9.748156339E-1,-3.882622822E0,4.174345258E0
4.741817958E0,-9.730290902E-1,-1.207342443E0,-3.507225145E0,3.834721581E0
4.751872958E0,-8.345598608E-1,-1.209159173E0,-3.311191685E0,3.622505548E0
4.761928958E0,-6.119732812E-1,-1.341848869E0,-2.758101802E0,3.127650114E0
4.771983958E0,-2.251806602E-2,-1.231580322E0,-1.441293635E0,1.895949497E0
4.782038958E0,4.937152450E-1,-1.162195507E0,3.916646308E-1,1.322064417E0
4.792093958E0,1.090758757E0,-1.273761551E0,1.676450814E0,2.371225524E0
4.802148958E0,1.512184546E0,-6.713773012E-1,2.092745964E0,2.667777212E0
4.812203958E0,1.572860519E0,-4.492181897E-2,8.721201083E-1,1.799027978E0
4.822259958E0,1.429424226E0,3.344426090E-1,-6.345529988E-2,1.469398534E0
4.832314958E0,1.344729938E0,3.087598836E-1,2.440240435E-1,1.401134899E0
4.842369958E0,-3.418315892E-1,9.112604928E-1,1.515424050E0,1.801042635E0
4.852424958E0,-8.477360496E-1,2.869717548E0,5.000259329E0,5.827223058E0
4.862479958E0,4.350277282E-1,2.744486561E0,7.835566598E0,8.313697102E0
4.872535958E0,1.759732561E0,1.470701036E0,6.101614557E0,6.518383268E0
4.882590958E0,2.256882716E0,6.683344102E-1,2.722312750E0,3.598774400E0
4.892645958E0,1.919465775E0,6.629374301E-1,7.766896020E-1,2.174185281E0
4.902700958E0,4.965576862E-1,1.150057272E0,-8.666251874E-1,1.523233560E0
4.912755958E0,3.712805426E-1,9.166504562E-1,1.379086862E0,1.697049755E0
4.922810958E0,1.488315920E0,-2.245523769E0,3.554853055E0,4.460318544E0
4.932865958E0,1.166696035E0,-2.489010599E0,-8.446069121E-2,2.750179451E0
4.942921958E0,8.477451128E-1,-1.770273190E0,-1.977495005E0,2.786220637E0
4.952976958E0,5.051316412E-1,-8.835417670E-1,-3.359366895E0,3.510149564E0
4.963031958E0,-6.860924041E-1,1.354051423E-1,-6.235800555E0,6.274891704E0
4.973086958E0,-1.308984008E0,8.698715615E-1,-5.097189792E0,5.333990949E0
4.983141958E0,-2.080724966E0,8.713627185E0,-3.508646311E0,9.621190884E0
4.993197958E0,-1.695362025E0,7.282031157E0,2.990145047E0,8.052527403E0
5.003252958E0,2.242788734E0,5.794298351E-1,8.086854199E0,8.412077690E0
5.013307958E0,3.794997617E0,-8.794376063E-1,6.002115996E0,7.155474398E0
5.023362958E0,2.582052664E0,-3.154983904E0,2.403244810E0,4.732494586E0
5.033417958E0,1.064632521E-1,-3.726988944E0,-1.289567159E0,3.945220460E0
5.043472958E0,-1.148446071E0,-4.022972662E0,-3.539318465E0,5.479964654E0
5.053528958E0,-1.357852552E0,-4.739343703E0,-4.108906851E0,6.417807866E0
5.063583958E0,-1.206555920E0,-5.045206876E0,-3.289321929E0,6.142436679E0
5.073638958E0,-8.331285354E-1,-3.980410779E0,-2.225403500E0,4.635751704E0
5.083693958E0,-6.798317172E-1,-2.924426436E0,-1.949357618E0,3.579725725E0
5.093748958E0,-3.721443591E-1,-2.190887386E0,-2.195888217E0,3.124164532E0
5.103803958E0,-1.186790358E-1,-2.102548236E0,-3.012851540E0,3.675876521E0
5.113859958E0,3.996586516E-2,-1.827001707E0,-3.916020656E0,4.321429194E0
5.123914958E0,4.346292405E-1,-1.942472522E0,-3.407640630E0,3.946405547E0
5.133969958E0,4.347827299E-1,-1.442688196E0,-1.355253611E0,2.026597543E0
5.144024958E0,3.147763031E-1,-5.445488548E-1,1.294284693E0,1.439024129E0
5.154079958E0,6.638025257E-1,-8.654756248E-1,2.920386303E0,3.117424900E0
5.164134958E0,8.018810150E-1,2.782233846E-1,2.695342467E0,2.825825973E0
5.174190958E0,7.635995134E-1,1.815907785E0,2.571069839E0,3.238982157E0
5.184245958E0,9.004758152E-1,2.982053670E0,1.770144551E0,3.582863732E0
5.194300958E0,1.068423636E0,4.433529062E0,1.022014359E-1,4.561595570E0
5.204355958E0,9.023436351E-1,5.133384642E0,-1.347361331E0,5.383423119E0
5.214410958E0,2.515600082E-1,5.635948150E0,-1.033807900E0,5.735499347E0
5.224465958E0,5.293942606E-1,3.452460415E0,-3.264216909E-1,3.508032543E0
5.234521958E0,2.713823616E-1,2.686388626E0,6.369678989E-1,2.774177417E0
5.244576958E0,-6.102332595E-1,1.550847652E0,2.724634971E0,3.193923731E0
5.254631958E0,-3.634546658E-1,1.527580996E0,3.441065361E0,3.782397892E0
5.264686958E0,-1.554957367E-2,1.046107226E0,2.994376677E0,3.171888050E0
5.274741958E0,7.397257704E-1,2.226111013E-1,1.010837991E0,1.272219856E0
5.284796958E0,6.246774171E-1,-5.071155649E-1,1.949859309E-1,8.278934623E-1
5.294852958E0,-2.423107363E-1,-1.027435897E0,5.011107668E-2,1.056811305E0
5.304907958E0,-5.340385578E-1,-8.666444832E-1,-5.790822181E-1,1.171155864E0
5.314962958E0,-2.827050561E-1,-1.449400799E0,-7.126381785E-1,1.639676187E0
5.325017958E0,-1.973749571E-1,-1.947549659E0,-9.037656780E-1,2.156084170E0
5.335072958E0,-1.252388077E-1,-1.873594660E0,-1.346240712E0,2.310499029E0
5.345125167E0,-1.340615983E-1,-1.636425161E0,-2.196163767E0,2.742078611E0
5.355181167E0,2.943649158E-1,-1.739288794E0,-3.315034475E0,3.755160421E0
5.365236167E0,4.203679546E-1,-2.404197321E0,-4.077706109E0,4.752321652E0
5.375291167E0,-1.972086038E-1,-2.905239968E0,-3.949937430E0,4.907271768E0
5.385346167E0,-3.814718375E-1,-2.572655604E0,-3.704760754E0,4.526514096E0
5.395401167E0,1.552391171E-1,-2.771250436E0,-2.888090084E0,4.005620114E0
5.405456167E0,4.361863540E-1,-2.106995044E0,-1.423917464E0,2.580160381E0
5.415512167E0,1.532885590E0,-1.297978379E0,-8.646745563E-2,2.010463311E0
5.425567167E0,1.429318829E0,-1.779609439E0,1.333355788E0,2.643444671E0
5.435622167E0,9.282934320E-1,-2.123901683E0,1.254921237E0,2.635813796E0
5.445677167E0,8.888163941E-1,-1.355692152E0,1.497332765E0,2.206785264E0
5.455732167E0,9.316410360E-1,3.144211578E-1,2.212104592E0,2.420789626E0
5.465787167E0,1.081254693E-1,1.860636646E0,3.551545578E0,4.010877190E0
5.475843167E0,-6.161477912E-1,2.307174472E0,4.211341884E0,4.841290386E0
5.485898167E0,-8.304127230E-1,2.583447225E0,3.582749244E0,4.494427327E0
5.495953167E0,-9.175262229E-1,3.348492828E0,4.401574613E0,5.606078635E0
5.506008167E0,-1.186040744E0,2.562327667E0,3.821889254E0,4.751742122E0
5.516063167E0,-1.795360961E0,1.096785044E0,2.452540346E0,3.231286518E0
5.526118167E0,-2.323181224E0,2.742835307E-1,1.520673096E0,2.790134248E0
5.536173167E0,-2.152557133E0,1.110414904E0,8.528286821E-1,2.567847392E0
5.546229167E0,-1.140946433E0,1.547679046E0,1.605697312E-1,1.929469313E0
5.556284167E0,2.466644268E-2,1.202341320E0,-1.202779349E0,1.700856033E0
5.566339167E0,3.900676831E-1,5.829176992E-1,-1.573175830E0,1.722448267E0
5.576394167E0,3.183509984E-1,-1.072315031E-1,-8.217543123E-1,8.877646666E-1
5.586449167E0,2.695896418E-1,-8.557195455E-1,3.161835086E-1,9.512657497E-1
5.596504167E0,1.434874927E-1,-5.808969015E-1,1.022279822E0,1.184519272E0
5.606560167E0,2.463372386E-1,-5.195145857E-1,1.051188456E0,1.198154669E0
5.616615167E0,3.464376237E-1,-4.977530032E-1,9.632802469E-1,1.138282001E0
5.626670167E0,1.382833611E-1,1.735938925E-1,2.234274457E-1,3.149237224E-1
5.636725167E0,-3.695421654E-1,5.559491712E-1,-6.344281608E-1,9.209451581E-1
5.646780167E0,-8.267115086E-1,-1.827892238E-1,-4.771053519E-1,9.718504698E-1
5.656835167E0,-4.085129076E-1,-4.087501949E-1,-7.034744952E-1,9.104042415E-1
5.666891167E0,7.407329533E-2,7.394640344E-1,-1.150929165E0,1.370011625E0
5.676946167E0,3.424644407E-1,7.809997308E-1,-1.986177097E-1,8.756091978E-1
5.687001167E0,5.698061221E-1,8.069952822E-1,8.032496289E-1,1.273236179E0
5.697056167E0,8.932970423E-1,1.640922255E0,-6.067404983E-1,1.964367452E0
5.707111167E0,7.767728517E-1,6.253076738E-1,-3.557153642E-1,1.058734703E0
5.717166167E0,6.584191404E-1,-1.653194976E-1,4.493924367E-1,8.141252133E-1
5.727222167E0,6.009866188E-1,-9.001589692E-1,7.129252037E-1,1.296045305E0
5.737277167E0,3.081413944E-1,-1.068670462E0,6.212749954E-1,1.273966363E0
5.747332167E0,-7.791051233E-2,-2.504865324E-1,3.082704717E-1,4.047767713E-1
5.757387167E0,-3.592492021E-1,9.921105283E-1,3.116039693E-2,1.055610847E0
5.767442167E0,-5.895765815E-1,1.413776053E0,-3.292713314E-3,1.531787882E0
5.777497167E0,-1.156892521E0,2.018141924E0,8.595379235E-1,2.479940034E0
5.787553167E0,-1.697834228E0,3.447291477E0,1.641730486E0,4.178724516E0
5.797608167E0,-1.278295774E0,3.748165221E0,2.622156377E0,4.749577526E0
5.807663167E0,-2.076503057E-1,2.403824269E0,2.862644756E0,3.743824884E0
5.817718167E0,2.912510359E-1,1.697430332E0,3.061533118E0,3.512702938E0
5.827773167E0,-1.432812778E-1,1.621320634E0,1.711062530E0,2.361555654E0
5.837828167E0,-2.158363710E-1,2.007269027E0,4.586004858E-1,2.070272612E0
5.847884167E0,-3.632364915E-1,2.269772172E0,-8.707720327E-1,2.458058257E0
5.857939167E0,2.245570181E-1,2.248628640E0,-5.331900537E-1,2.321863099E0
5.867994167E0,2.047964040E0,-7.992149770E-2,1.349936153E0,2.454153982E0
5.878049167E0,3.745245121E0,-3.964551376E0,1.101996521E0,5.564074493E0
5.888104167E0,2.527932590E0,-4.915844831E0,-1.361075245E0,5.692846336E0
5.898159167E0,-7.753478853E-1,-4.195428101E0,-4.319836385E0,6.071553977E0
5.908215167E0,-2.111425771E0,-3.195793376E0,-5.234422774E0,6.486169584E0
5.918270167E0,-1.814388386E0,-2.110282348E0,-4.464655252E0,5.261030634E0
5.928325167E0,-1.333315296E0,-1.602147029E0,-2.849529451E0,3.530498955E0
5.938380167E0,-7.411685709E-1,-1.294778783E0,-1.293222254E0,1.974387689E0
5.948435167E0,-6.085222180E-1,-1.177181920E0,3.044320670E-1,1.359682112E0
5.958490167E0,-6.453053706E-1,-1.571577786E0,1.167631078E0,2.061465036E0
5.968546167E0,-7.600328580E-1,-1.336144325E0,6.661335182E-1,1.675310558E0
5.978601167E0,-7.029444451E-1,-4.805458170E-1,-2.868445194E-1,8.985181987E-1
5.988656167E0,-2.394921590E-1,-7.475454712E-1,-7.191253719E-1,1.064575984E0
5.998711167E0,-1.495850423E-1,-1.067306891E0,-8.889562887E-1,1.397055106E0
6.008766167E0,2.101318092E-1,-1.442627385E0,-8.811324218E-1,1.703444596E0
6.018821167E0,3.707548414E-1,-1.894846950E0,-7.278593579E-1,2.063415460E0
6.028877167E0,1.973650533E-1,-2.034425835E0,-4.851966923E-1,2.100775398E0
6.038932167E0,1.283361509E-2,-2.007537999E0,3.539230464E-1,2.038537476E0
6.048987167E0,1.780228842E-1,-1.764765698E0,1.436183168E0,2.282260329E0
6.059042167E0,1.113321737E-1,-9.719475746E-1,1.759626434E0,2.013296334E0
6.069097167E0,-2.022989339E-1,4.401666999E-2,2.165979855E0,2.175851801E0
6.079152167E0,7.567051711E-2,1.147647634E0,2.394690772E0,2.656570159E0
6.089208167E0,8.313716664E-1,1.611251144E0,2.418534986E0,3.022684333E0
6.099263167E0,6.747781880E-1,8.934750170E-1,2.714937657E0,2.936751554E0
6.109318167E0,3.545736954E-1,-4.675690913E-1,1.140272833E0,1.282406135E0
6.119373167E0,6.120646074E-1,-7.308639497E-1,2.435754159E-1,9.839279343E-1
6.129428167E0,9.400105944E-1,2.900903088E-1,-9.248938608E-1,1.350259589E0
6.139483167E0,1.311883935E0,8.745417327E-1,-1.765736920E0,2.367211349E0
6.149539167E0,9.462408757E-1,1.084726331E0,-1.375793856E0,1.991183503E0
6.159594167E0,3.742716127E-1,2.228549302E0,-8.529421180E-2,2.261368243E0
6.169649167E0,2.975345269E-1,2.899758203E0,1.200232814E0,3.152409117E0
6.179704167E0,7.786780939E-1,1.636930361E0,1.946879568E0,2.660116658E0
6.189759167E0,1.194347811E0,1.394569119E0,5.753916018E-1,1.924153117E0
6.199814167E0,5.870467836E-1,5.269861579E-1,-1.577802731E0,1.764029420E0
6.209869167E0,-9.908688721E-1,-3.593651962E-1,-6.949231616E-1,1.262490660E0
6.219925167E0,-1.384504453E0,2.057243425E0,7.494960439E0,7.894525639E0
6.229980167E0,-2.200851918E0,1.706907499E0,8.271097040E-1,2.905407517E0
6.240035167E0,-2.322705407E0,1.636528657E0,-3.596303090E0,4.583293834E0
6.250090167E0,-2.592976432E0,2.195587378E0,-1.149171419E0,3.586743044E0
6.260145167E0,-2.686784483E0,1.248395745E0,1.432327807E0,3.290724196E0
6.270200167E0,-1.869999500E0,2.054425067E-1,4.989335561E-1,1.946288634E0
6.280256167E0,-1.811895718E-1,-3.616760159E-1,3.105777830E-1,5.099978046E-1
6.290311167E0,1.661693173E0,-1.096378078E0,6.831030151E-1,2.104732482E0
6.300366167E0,2.421599366E0,-4.823853511E-1,2.380210288E0,3.429612242E0
6.310421167E0,2.172700791E0,-2.852160698E-1,1.330560819E0,2.563663204E0
6.320476167E0,7.349011597E-1,-1.105137792E0,1.023133808E0,1.675772073E0
6.330531167E0,-6.019026217E-1,-1.198714877E0,-1.649261554E0,2.125856955E0
6.340590583E0,-1.780398667E0,-1.354104048E0,-3.429001679E0,4.094077393E0
6.350645583E0,-1.918721278E0,-2.069850022E0,-5.028975005E0,5.766832758E0
6.360700583E0,-8.564672582E-2,-1.488078961E0,-4.979963644E0,5.198245112E0
6.370755583E0,7.202087148E-1,-1.024281909E0,-3.508995389E0,3.725708344E0
6.380810583E0,6.632547878E-1,-8.711743212E-1,-1.063420247E0,1.526340143E0
6.390865583E0,3.404669221E-2,2.902265489E-2,1.615287477E-1,1.676097493E-1
6.400921583E0,-6.060076229E-2,9.517284876E-1,1.360493885E0,1.661446111E0
6.410976583E0,1.418148967E-1,1.602845187E0,2.810996592E0,3.238969898E0
6.421031583E0,-9.745181568E-2,1.877839154E-1,3.148465135E0,3.155565300E0
6.431086583E0,-2.266698729E-2,-7.766447246E-2,2.696398475E0,2.697611962E0
6.441141583E0,1.592587855E-1,4.705207658E-1,2.626578919E0,2.673138599E0
6.451196583E0,-4.105702870E-2,1.027066353E0,2.289809995E0,2.509936411E0
6.461252583E0,-4.047968924E-2,1.190753893E0,8.707775876E-1,1.475732715E0
6.471307583E0,-2.138700986E-1,1.502368387E0,-1.276102191E0,1.982747586E0
6.481362583E0,-7.148609975E-1,2.020091386E0,-1.800143984E0,2.798627130E0
6.491417583E0,-1.044843862E0,1.683850173E0,-2.371081030E-1,1.995813206E0
6.501472583E0,-5.524909451E-1,1.888268833E0,2.350605835E0,3.065314539E0
6.511527583E0,-8.507395450E-2,-2.203470594E-1,2.245601537E0,2.257989518E0
6.521583583E0,1.717118930E-2,-4.900078983E0,-3.011728290E-1,4.909355759E0
6.531638583E0,-1.681446822E0,-3.277074936E0,-1.700809730E0,4.056998557E0
6.541693583E0,-1.555801998E0,7.377706808E-1,-2.021190662E0,2.655190601E0
6.551748583E0,-8.063191979E-1,2.109364920E0,-2.598281611E0,3.442475613E0
6.561803583E0,4.841239475E-1,1.353780697E0,-1.083076832E0,1.800042665E0
6.571858583E0,5.435076484E-1,2.314961793E0,-1.886148047E-1,2.385377164E0
6.581914583E0,1.068891048E0,8.467370528E-1,-1.470370084E0,2.005362783E0
6.591969583E0,4.699308183E-1,3.419761616E-1,-2.908170885E0,2.965677083E0
6.602024583E0,-8.106367819E-2,2.273958778E0,-2.886460758E0,3.675474874E0
6.612079583E0,1.106248982E0,-1.013624189E0,-1.737574683E0,2.295732255E0
6.622134583E0,1.236859188E0,-2.431344774E0,-1.016413895E0,2.911074590E0
6.632189583E0,8.959315784E-1,-2.425835527E0,-2.967982346E-1,2.602971492E0
6.642245583E0,4.373810863E-1,-4.058499759E-1,8.622812909E-1,1.048592124E0
6.652300583E0,-6.240382433E-2,2.365287609E0,7.799580494E-1,2.491347882E0
6.662355583E0,-1.317951445E-1,2.051076951E0,-1.342312845E0,2.454809645E0
6.672410583E0,1.179370899E0,1.334559145E0,-1.755243507E0,2.500568655E0
6.682465583E0,1.295127861E0,-5.296559966E-1,-7.669371772E-1,1.595645414E0
6.692520583E0,4.315620104E-1,-2.286111047E0,1.506815779E-1,2.331363212E0
6.702576583E0,5.988311890E-1,-1.488679470E0,1.083694005E0,1.936274272E0
6.712631583E0,5.485748090E-2,-5.329193276E-1,2.432879083E0,2.491166993E0
6.722686583E0,3.232201941E-1,5.445763367E-1,3.320877013E0,3.380718684E0
6.732741583E0,8.681988924E-1,9.383500582E-1,1.990294560E0,2.365489924E0
6.742796583E0,1.506924830E0,6.600319487E-1,-9.195331335E-2,1.647701438E0
6.752851583E0,2.349215660E0,-1.130108911E0,-1.659228718E0,3.090145677E0
6.762906583E0,1.649122683E0,-3.324692906E0,-2.177753955E0,4.302999050E0
6.772962583E0,1.090370649E0,-1.838341212E0,-1.558395530E0,2.645184907E0
6.783017583E0,2.194761605E0,1.704278006E0,-3.079728484E-1,2.795780624E0
6.793072583E0,3.679787004E0,4.120103685E0,1.220017160E0,5.657254514E0
6.803127583E0,2.356145926E0,1.025458953E0,4.303954178E-1,2.605423172E0
6.813182583E0,-1.268851059E0,-3.997452489E0,-1.202885111E0,4.363088585E0
6.823237583E0,-9.847040796E-1,-1.458573911E0,-1.892999230E0,2.584671365E0
6.833293583E0,9.547093251E-1,-2.711273791E0,-2.875361573E0,4.065732362E0
6.843348583E0,-3.193485334E-1,-7.482488912E-1,-3.097879119E0,3.202922872E0
6.853403583E0,-2.906960511E0,-6.456846356E-1,-1.984425417E0,3.578445514E0
6.863458583E0,-3.166957832E0,-2.935290563E-1,-6.514456049E-1,3.246561657E0
6.873513583E0,-3.338240320E0,3.629635727E-1,-1.280224478E-1,3.360354258E0
6.883568583E0,-1.943987828E0,7.549457073E-2,5.918259323E-1,2.033481261E0
6.893624583E0,-7.504781422E-1,5.168698901E-1,1.160700666E0,1.475668649E0
6.903679583E0,-8.558524235E-1,1.603455636E0,2.460913266E0,3.059354090E0
6.913734583E0,-1.690361048E0,6.880886436E-1,3.168036351E0,3.656123736E0
6.923789583E0,-3.071403803E0,-2.036205727E0,2.099113874E0,4.240982686E0
6.933844583E0,-3.449911906E0,-1.836457239E0,9.541296467E-1,4.023037501E0
6.943899583E0,-1.972370797E0,-6.309017050E-1,1.569468987E0,2.598368031E0
6.953955583E0,-8.112973711E-1,-1.289059621E-1,6.811550152E-1,1.067142130E0
6.964010583E0,-1.229751897E0,-1.634624219E-1,-1.784130507E0,2.173046561E0
6.974065583E0,-1.096509202E0,-1.583409626E0,-1.660116033E0,2.542735479E0
6.984120583E0,-2.930832061E-1,-1.859519243E0,-3.986520535E-1,1.924222710E0
6.994175583E0,1.633853848E-1,-1.129006711E0,-1.593950987E-3,1.140768810E0
7.004230583E0,2.467019221E-1,-8.663994849E-1,-5.172970292E-1,1.038800328E0
7.014286583E0,-1.102782387E0,-1.310779688E0,-8.361901376E-1,1.906170593E0
7.024341583E0,-2.684005886E0,-8.822670740E-1,-1.105137207E0,3.033745380E0
7.034396583E0,-2.000855070E0,5.062419909E-1,-7.596000910E-1,2.199248567E0
7.044451583E0,4.378126109E-1,1.268314869E0,2.067233393E0,2.464499217E0
7.054506583E0,2.090377111E0,1.510849773E0,4.313057123E0,5.025415928E0
7.064561583E0,1.143473745E0,1.753647802E0,2.434573022E0,3.210912427E0
7.074617583E0,8.398455244E-1,1.395801128E0,5.232422442E0,5.480131924E0
7.084672583E0,3.864727710E0,1.237412335E0,4.985034349E0,6.427898336E0
7.094727583E0,3.427042277E0,2.261912929E0,7.868906544E-1,4.180916857E0
7.104782583E0,3.846311905E0,5.294149743E0,6.907570204E-1,6.580218996E0
7.114837583E0,4.048724092E0,5.928515339E0,7.428422633E-1,7.217428595E0
7.124892583E0,3.333277203E0,4.514490194E0,1.311451533E0,5.762921460E0
7.134947583E0,4.266850379E0,3.642767404E0,3.506872265E0,6.616186183E0
7.145003583E0,3.462449506E0,3.386227834E0,2.571775013E0,5.483531914E0
7.155058583E0,9.939591256E-1,2.609281393E0,-1.269506532E-1,2.795070769E0
7.165113583E0,-6.848484090E-1,1.768478680E0,-1.508997083E0,2.423552430E0
7.175168583E0,-1.152911590E0,1.003456466E0,-1.850437055E0,2.400051522E0
7.185223583E0,2.064564139E-2,9.116937715E-1,-1.600668268E0,1.842213527E0
7.195278583E0,2.295974130E0,5.408516604E-1,3.956778672E-1,2.391773129E0
7.205334583E0,3.077717919E0,-1.731074041E0,1.716410394E0,3.926197851E0
7.215389583E0,3.565689992E0,-3.277702342E0,1.192651314E0,4.987975032E0
7.225444583E0,2.782339973E0,-4.436897058E0,4.961906272E-1,5.260577570E0
7.235499583E0,1.417949796E-3,-4.542877842E0,-9.781301281E-1,4.646986082E0
7.245554583E0,-2.020363281E0,-3.047941850E0,-1.657656986E0,4.014927645E0
7.255609583E0,-2.171912294E0,-2.161259544E0,-2.415652016E0,3.901745826E0
7.265665583E0,-2.177363361E0,-7.412076741E-1,-3.579046787E0,4.254394895E0
7.275720583E0,-1.815938483E0,-9.904920191E-1,-3.673130241E0,4.215518092E0
7.285775583E0,-6.443090782E-1,-1.669551392E0,-2.193340877E0,2.830773789E0
7.295830583E0,5.840403646E-2,-1.769321848E0,2.481189948E-1,1.787588842E0
7.305885583E0,1.201898393E0,-1.562445604E0,8.602774501E-1,2.150784346E0
7.315940583E0,1.508968432E0,-3.517182076E-1,5.959561130E-1,1.660076840E0
7.325996583E0,-4.001653129E-1,-2.160955489E-1,7.150001612E-1,8.473811388E-1
7.336051583E0,-6.615615803E-1,-6.292498666E-1,4.035075814E-1,9.982171544E-1
7.346102417E0,-3.713090113E-1,-4.015744919E-1,6.733089289E-1,8.674545337E-1
7.356157417E0,4.411952251E-1,-8.670724994E-1,1.650231899E0,1.915654788E0
7.366212417E0,1.997374368E0,-3.554849839E-1,1.747405314E0,2.677554719E0
7.376267417E0,1.479014608E0,-6.707317686E-1,-3.881706271E-1,1.669743019E0
7.386323417E0,2.289198084E-1,-1.748255500E0,-2.440719615E0,3.010965594E0
7.396378417E0,-1.002884608E0,-2.245403316E0,-3.442970969E0,4.231035651E0
7.406433417E0,-1.923060789E0,-4.601924779E0,-2.454133127E0,5.558654862E0
7.416488417E0,-1.648042117E0,-6.532819814E0,-2.483985502E0,7.180805074E0
7.426543417E0,-2.434730458E0,-5.896177313E0,-4.486646923E0,7.798898635E0
7.436598417E0,-2.586263537E0,-2.535553851E0,-5.789247526E0,6.828849049E0
7.446653417E0,2.032137089E0,4.316940259E0,-6.187570381E-1,4.811279936E0
7.456709417E0,4.570803266E0,8.365737149E0,2.879715702E0,9.958441799E0
7.466764417E0,8.168206510E-1,4.562185348E0,2.302108444E0,5.174981586E0
7.476819417E0,-1.743210522E0,1.286052983E0,3.220856881E-1,2.190080909E0
7.486874417E0,-8.758367448E-1,-4.981014973E-1,-1.157389680E0,1.534518158E0
7.496929417E0,-9.178994215E-1,-1.491916489E0,-1.289701061E0,2.175243201E0
7.506984417E0,-6.079499218E-1,-4.080611590E0,-1.865016210E0,4.527613005E0
7.517040417E0,-6.143573007E-1,-4.193042437E0,-2.352145407E0,4.846816253E0
7.527095417E0,2.773347540E-1,-4.006941351E0,-1.783215417E0,4.394581980E0
7.537150417E0,8.656520645E-1,-4.082249980E0,-9.033223128E-1,4.269673242E0
7.547205417E0,1.664683878E0,-3.870032305E0,-6.311122048E-1,4.259885569E0
7.557260417E0,1.838730052E0,-3.907069153E0,-2.155476648E0,4.826199038E0
7.567315417E0,1.949548384E0,-3.409437772E0,-1.718660402E0,4.287050081E0
7.577371417E0,1.716851712E0,-1.632977058E0,-1.200705561E0,2.656292100E0
7.587426417E0,1.637216143E0,-1.611999003E0,1.527579242E-1,2.302683753E0
7.597481417E0,2.518310997E0,-2.915891256E0,-1.327470565E0,4.075106157E0
7.607536417E0,6.744938672E-1,-5.122757328E-1,-5.671571141E-1,1.019330955E0
7.617591417E0,5.022816718E-2,-2.378857827E-1,4.620411336E-2,2.474819882E-1
7.627646417E0,8.169229773E-1,-8.504412639E-1,-1.814806754E0,2.164286730E0
7.637702417E0,1.511539745E0,-8.761684281E-1,-2.378643234E0,2.951333114E0
7.647757417E0,6.967416456E-1,-2.155447412E-1,-1.460286561E0,1.632282235E0
7.657812417E0,3.462813788E0,2.213785082E-1,-1.632330941E0,3.834656709E0
7.667867417E0,4.433737515E0,3.211957419E-1,-7.130831516E0,8.402972876E0
7.677922417E0,1.896204966E0,-6.214186907E-2,-1.219758655E1,1.234425261E1
7.687977417E0,-3.924557883E0,-4.717772155E0,-6.414138293E0,8.876975765E0
7.698032417E0,-7.481489038E0,-8.079749832E0,1.125915522E1,1.574876540E1
7.708088417E0,-5.034183705E0,-6.211808844E0,1.726093383E1,1.902286549E1
7.718143417E0,2.154861813E0,-4.279863065E0,7.074740345E0,8.544741555E0
7.728198417E0,4.938161314E0,-3.026211843E0,6.603783962E0,8.783698418E0
7.738253417E0,4.431874592E0,-1.885550462E0,6.883737538E0,8.401348430E0
7.748308417E0,4.504924734E0,3.009073654E0,4.978044587E0,7.357295633E0
7.758363417E0,4.775528320E0,5.106151820E0,3.166986483E0,7.675171694E0
7.768419417E0,3.068760862E0,5.129167045E0,1.015961833E0,6.062823290E0
7.778474417E0,-1.042473766E-1,5.701289030E0,1.366628053E-1,5.703879456E0
7.788529417E0,-3.530661370E0,4.858036333E0,1.616921774E0,6.219366748E0
7.798584417E0,-5.934364893E0,3.487460679E0,6.379335666E-1,6.912743877E0
7.808639417E0,-6.930873113E0,2.882782567E0,-2.596104547E-1,7.510980962E0
7.818694417E0,-6.701707867E0,1.711650175E0,-3.214413249E-1,6.924302072E0
7.828750417E0,-5.405467865E0,1.111194922E0,-6.673865765E-1,5.558708649E0
7.838805417E0,-4.470208353E0,1.720632668E0,-2.220925263E-1,4.795066693E0
7.848860417E0,-3.697165513E0,2.073097565E0,7.093181294E-1,4.297661987E0
7.858915417E0,-3.037669754E0,1.815893751E0,1.382913864E0,3.799652406E0
7.868970417E0,-2.990130137E0,1.515800026E0,1.814889200E0,3.812132049E0
7.879025417E0,-3.001138397E0,1.416498517E0,1.437901080E0,3.616747053E0
7.889081417E0,-2.334209658E0,5.226644808E-1,2.849441195E-1,2.408922173E0
7.899136417E0,-1.894227145E0,-8.412126034E-1,-9.704039097E-2,2.074886011E0
7.909191417E0,-1.488630646E0,-7.248834175E-1,6.260046619E-1,1.770129658E0
7.919246417E0,-9.914766902E-1,4.933336776E-1,1.865355933E0,2.169321761E0
7.929301417E0,-6.189121355E-1,1.877026391E0,2.922481652E0,3.528056025E0
7.939356417E0,-6.197390780E-2,2.052933442E0,2.905727625E0,3.558318355E0
7.949412417E0,7.625453335E-1,-5.780510616E-1,7.055838782E-2,9.594774107E-1
7.959467417E0,1.126768250E0,-1.572335585E0,-1.405260168E0,2.390941660E0
7.969522417E0,5.406451075E-1,-2.391704160E-1,1.567417492E0,1.675200649E0
7.979577417E0,1.064650793E-1,6.449046171E-1,2.464230099E0,2.549444402E0
7.989632417E0,2.917048712E-1,1.198855210E0,1.659477809E0,2.067900420E0
7.999687417E0,3.795006680E-1,1.824023720E0,2.985892367E-1,1.886859513E0
8.009742417E0,3.059051268E-1,2.128082442E0,-6.971876420E-2,2.151086594E0
8.019798417E0,1.698993292E-1,2.630703837E0,4.181968834E-1,2.669149133E0
8.029853417E0,8.584838167E-2,3.039208449E0,1.342188007E0,3.323496139E0
8.039908417E0,4.665594234E-1,3.025268102E0,2.188660181E0,3.762998562E0
8.049963417E0,6.547076203E-1,2.656276635E0,2.539680816E0,3.732884445E0
8.060018417E0,8.025424813E-1,2.459502041E0,2.727696281E0,3.759461627E0
8.070073417E0,8.018055859E-1,2.627887818E0,3.142994188E0,4.174577709E0
8.080129417E0,7.219662416E-1,1.540034981E0,2.770760440E0,3.251162317E0
8.090184417E0,8.230556832E-1,-1.403337604E-1,1.961995936E0,2.132262244E0
8.100239417E0,7.251215453E-1,-1.652913725E0,3.190090002E0,3.665323895E0
8.110294417E0,4.862237558E-1,-3.866049181E0,4.691116160E0,6.098304735E0
8.120349417E0,1.393850643E0,-5.319919007E0,3.327546347E0,6.427824092E0
8.130404417E0,2.079671151E0,-5.192552617E0,2.812574756E0,6.260847509E0
8.140460417E0,2.352646952E0,-5.082251326E0,2.030982117E0,5.957274090E0
8.150515417E0,2.811667853E0,-4.592541752E0,1.097332636E0,5.495548633E0
8.160570417E0,2.764808851E0,-3.645786906E0,4.101558656E-2,4.575763590E0
8.170625417E0,3.185578583E0,-2.549109451E0,-1.580504145E0,4.375370070E0
8.180680417E0,3.006374579E0,-1.984121654E0,-3.283581133E0,4.874108319E0
8.190735417E0,1.983292373E0,-1.963892042E0,-6.034570967E0,6.648786908E0
8.200790417E0,5.330286705E-1,-1.784218215E0,-9.849870994E0,1.002434600E1
8.210846417E0,-2.586854105E0,8.389174544E0,-1.182734086E1,1.472942821E1
8.220901417E0,-3.190114560E0,6.509780615E0,-7.768582065E0,1.062567371E1
8.230956417E0,-9.190798281E-1,-3.984901441E0,-3.861737444E0,5.624692286E0
8.241011417E0,-4.095028777E-1,-4.756642106E0,-2.126887564E0,5.226565549E0
8.251066417E0,-3.741197678E-1,-3.424506047E0,-6.577804783E-1,3.507118821E0
8.261121417E0,-2.806941256E-2,-2.191627058E0,2.808812365E-1,2.209731052E0
8.271177417E0,3.864511071E-1,-1.142682763E0,1.166002336E0,1.677685848E0
8.281232417E0,3.766660841E-1,7.356323540E-2,1.455752045E0,1.505490918E0
8.291287417E0,2.515641743E-1,4.905024558E-1,1.837431386E0,1.918340765E0
8.301342417E0,2.177380317E-1,1.194649308E0,2.212786670E0,2.524088284E0
8.311397417E0,5.276914783E-1,1.491899532E0,1.942927143E0,2.505830879E0
8.321452417E0,8.528390609E-1,2.317388388E0,7.128530636E-1,2.570171764E0
8.331508417E0,1.311582511E0,2.743798344E0,3.725065210E-1,3.063892808E0
8.341564042E0,1.937804397E0,2.839645318E0,-2.354495403E-1,3.445882746E0
8.351619042E0,2.212482761E0,2.486444841E0,-9.949370724E-1,3.473814574E0
8.361674042E0,2.216109643E0,1.784032858E0,-8.318573508E-1,2.964102198E0
8.371729042E0,1.701119194E0,1.353345079E0,-8.585519367E-1,2.337190802E0
8.381784042E0,1.332178743E0,3.304857981E-1,-1.259224788E0,1.862677678E0
8.391840042E0,1.169762754E0,-1.072356547E0,-1.861977997E0,2.446478188E0
8.401895042E0,1.019718523E0,-2.058874798E0,-2.020947711E0,3.059905382E0
8.411950042E0,8.710065792E-1,-2.470557371E0,-1.748069851E0,3.149294268E0
8.422005042E0,7.973228911E-1,-2.504765337E0,-9.435143191E-1,2.792810852E0
8.432060042E0,4.554353148E-1,-2.908046631E0,3.192860413E-1,2.960760056E0
8.442115042E0,-5.063207091E-1,-4.098992313E0,1.310040016E0,4.332932434E0
8.452170042E0,-1.333436333E0,-4.606354045E0,1.419339679E0,5.001107394E0
8.462226042E0,-1.441057115E0,-4.392927166E0,7.621097159E-1,4.685644663E0
8.472281042E0,-4.690257058E-1,-4.153245703E0,-9.728451222E-2,4.180777351E0
8.482336042E0,8.821298106E-1,-3.613910810E0,-1.337899659E0,3.953287220E0
8.492391042E0,1.592752454E0,-3.055398220E0,-2.162971316E0,4.068262968E0
8.502446042E0,2.308819147E0,-2.697935123E0,-2.048908803E0,4.099698412E0
8.512501042E0,2.515863645E0,-2.573854868E0,-2.030002416E0,4.132215939E0
8.522557042E0,2.265090599E0,7.456907344E-1,-2.470434287E0,3.433618450E0
8.532612042E0,1.961586485E0,3.984016757E0,-2.055454761E0,4.893373615E0
8.542667042E0,1.870324897E0,5.386412959E0,-1.145100587E0,5.815738572E0
8.552722042E0,2.170983171E0,6.371126175E0,-2.841621092E-1,6.736851250E0
8.562777042E0,1.848363632E0,6.237198039E0,1.045949351E0,6.588861627E0
8.572832042E0,1.466331558E0,4.844809932E0,5.100257242E-1,5.087478526E0
8.582888042E0,9.501159717E-1,3.258611768E0,2.459722188E0,4.191837814E0
8.592943042E0,5.410569707E-1,1.454882564E0,5.630428378E0,5.840475121E0
8.602998042E0,8.565532123E-1,-9.550087756E-1,3.230076478E0,3.475502730E0
8.613053042E0,-1.003406691E0,-1.699751676E0,4.104525240E0,4.554460253E0
8.623108042E0,-9.399669595E-1,-1.824081023E0,3.769681220E0,4.292004889E0
8.633163042E0,-9.514673363E-1,-1.875972138E0,3.110631604E0,3.755075303E0
8.643219042E0,-2.856683519E0,-9.803143555E-1,4.731745246E0,5.613472191E0
8.653274042E0,-2.207152293E0,-3.770115083E-1,3.697629782E0,4.322745069E0
8.663329042E0,-1.249497506E0,-9.671692300E-1,7.290402031E-1,1.740160899E0
8.673384042E0,-2.016184569E0,-1.244030798E0,6.413079947E-1,2.454361177E0
8.683439042E0,-1.554545431E0,-8.161566997E-1,4.202393889E-3,1.755773595E0
8.693494042E0,-8.727953155E-1,-6.144792151E-1,-7.779898766E-1,1.320842389E0
8.703549042E0,-1.125545890E-1,-4.207638842E-1,1.131778291E-1,4.500222247E-1
8.713605042E0,1.459860299E0,2.915369099E-1,9.360719830E-2,1.491626015E0
8.723660042E0,2.714921869E0,4.316537386E-1,-2.802538887E0,3.925729221E0
8.733715042E0,1.463301677E0,-7.996886015E-2,-6.441419647E0,6.606022547E0
8.743770042E0,-3.434471749E-1,1.514329451E-1,-6.381187479E0,6.392217263E0
8.753825042E0,-8.845968240E-1,5.755923074E-1,-4.180681716E0,4.311834604E0
8.763880042E0,-4.076123267E-1,1.014163302E0,-2.040436188E0,2.314747254E0
8.773936042E0,-1.088671155E-2,1.248739561E0,-1.433456612E-1,1.256987267E0
8.783991042E0,-1.607324300E-1,1.065273814E0,1.379331568E0,1.750199642E0
8.794046042E0,-5.486910955E-1,7.964205927E-1,2.086000324E0,2.299292289E0
8.804101042E0,-1.281390705E0,4.944966888E-1,2.372596044E0,2.741477905E0
8.814156042E0,-1.942521492E0,4.275606877E-1,2.613800122E0,3.284531772E0
8.824211042E0,-2.237312231E0,1.604686475E-1,1.973045273E0,2.987343947E0
8.834267042E0,-2.062280509E0,-2.023253560E-1,1.088933403E0,2.340878553E0
8.844322042E0,-1.664408766E0,-4.617897034E-1,4.796324819E-2,1.727948710E0
8.854377042E0,-1.118822761E0,-3.376661789E-1,-6.687995562E-1,1.346504982E0
8.864432042E0,-1.134584954E-1,8.698902726E-3,-1.555409650E0,1.559566504E0
8.874487042E0,3.138512736E-1,-7.850471735E-2,-1.888648609E0,1.916157400E0
8.884542042E0,1.078524774E-1,-5.478127706E-1,-1.233324839E0,1.353817250E0
8.894598042E0,-7.431387171E-2,-7.763400847E-1,-9.339810187E-1,1.216777310E0
8.904653042E0,-1.438052523E-1,-6.557547104E-1,7.993845463E-2,6.760801338E-1
8.914708042E0,5.077483799E-1,-5.540061414E-2,8.737935814E-1,1.012122951E0
8.924763042E0,6.916648737E-1,6.892931700E-1,3.843439168E-1,1.049402505E0
8.934818042E0,4.654067910E-1,1.243245517E0,2.057969649E0,2.448979782E0
8.944873042E0,6.390312351E-1,1.319785570E0,3.305112043E0,3.615793203E0
8.954928042E0,4.140194864E-1,7.779504079E-1,3.810060337E0,3.910649402E0
8.964984042E0,-8.572971243E-1,-8.839879096E-2,3.937983675E0,4.031189418E0
8.975039042E0,-1.535365833E0,-4.469225729E-1,2.002375199E0,2.562536725E0
8.985094042E0,-8.085235982E-1,3.475006109E-1,2.937544665E-1,9.277708607E-1
8.995149042E0,1.792939045E-1,6.775700873E-1,-5.770889023E-1,9.078981928E-1
9.005204042E0,-6.587787442E-1,-3.779002851E-1,-1.900549447E0,2.046676882E0
9.015259042E0,-3.006802888E0,-1.451423351E0,-9.767990094E-1,3.478739665E0
9.025315042E0,-2.689360181E0,-9.310457164E-1,-1.487028801E-1,2.849845058E0
9.035370042E0,-1.732270381E0,-5.323889852E-1,7.351558059E-1,1.955671947E0
9.045425042E0,-1.916132277E0,-4.305527079E-1,1.329195202E0,2.371433832E0
9.055480042E0,-1.689992381E0,5.007654887E-1,1.077042213E0,2.065637977E0
9.065535042E0,-6.794650237E-1,8.557072663E-1,6.564628083E-1,1.274696459E0
9.075590042E0,-4.633968837E-1,5.244893968E-1,8.040950632E-1,1.066018138E0
9.085646042E0,1.829118691E-2,5.573595196E-1,5.947787762E-1,8.153195657E-1
9.095701042E0,4.490970793E-1,5.273486853E-1,3.122076944E-1,7.597752739E-1
9.105756042E0,7.490596077E-1,4.571171933E-1,2.873508883E-1,9.233725994E-1
9.115811042E0,9.150597212E-1,4.202066445E-1,2.232007930E-1,1.031371180E0
9.125866042E0,9.297094084E-1,1.535209858E-1,1.034720358E-1,9.479634694E-1
9.135921042E0,5.968540261E-1,-1.841902167E-1,-2.390370995E-2,6.250857155E-1
9.145976042E0,1.309640358E-1,-2.506748128E-1,-1.949034852E-1,3.434775233E-1
9.156032042E0,-2.177155931E-1,-2.048858517E-1,-3.235854989E-1,4.405517754E-1
9.166087042E0,-4.993676388E-1,-1.070017076E-1,-3.162788182E-1,6.007076618E-1
9.176142042E0,-6.826743411E-1,1.078694344E-2,-1.417142880E-1,6.973116617E-1
9.186197042E0,-8.335002722E-1,8.700656891E-2,1.809871119E-1,8.573500927E-1
9.196252042E0,-9.261045268E-1,1.827518016E-1,4.237140968E-1,1.034698725E0
9.206307042E0,-1.052579144E0,1.948391658E-1,5.207705677E-1,1.190414692E0
9.216363042E0,-1.203596717E0,1.159292364E-1,5.107285595E-1,1.312603637E0
9.226418042E0,-1.252585567E0,1.390584826E-2,4.304357636E-1,1.324552348E0
9.236473042E0,-1.192158101E0,-5.290034473E-2,2.920599434E-1,1.228551340E0
9.246528042E0,-1.109732022E0,-1.298894638E-1,1.363655475E-1,1.125598506E0
9.256583042E0,-1.028258235E0,-2.584334832E-1,7.057530820E-2,1.062583520E0
9.266638042E0,-9.489693327E-1,-3.628150535E-1,2.136455655E-2,1.016186007E0
9.276694042E0,-9.411649078E-1,-3.481192464E-1,-2.417326659E-2,1.003774248E0
9.286749042E0,-7.109945992E-1,-2.095045674E-1,1.059515476E-3,7.412196749E-1
9.296804042E0,-4.488271206E-1,-1.044406271E-1,-2.523705053E-1,5.253993726E-1
9.306859042E0,-1.303489088E-1,-2.846599996E-2,-5.800511017E-1,5.951978090E-1
9.316914042E0,1.525547700E-1,1.118221521E-2,-7.999543574E-1,8.144476495E-1
9.326969042E0,4.175577097E-1,-3.335427225E-2,-9.916918677E-1,1.076531332E0
9.337024042E0,7.011704729E-1,1.569152945E-1,-1.074400441E0,1.292516440E0
9.347080042E0,6.610302146E-1,2.826187366E-1,-1.018410135E0,1.246592755E0
9.357135042E0,5.883918260E-1,3.119150412E-1,-7.314384386E-1,9.891906405E-1
9.367190042E0,8.060018402E-1,2.570436001E-1,-1.835183716E-1,8.656727855E-1
9.377245042E0,1.092029650E0,1.852976793E-1,3.409909058E-1,1.158938645E0
9.387300042E0,1.112026469E0,1.800521421E-1,5.138001019E-1,1.238148694E0
9.397355042E0,1.138653739E0,2.587889940E-1,4.650509879E-1,1.256891604E0
9.407411042E0,1.069485783E0,2.752968532E-1,4.493468285E-1,1.192267071E0
9.417466042E0,9.531697532E-1,1.653224212E-1,2.893944901E-1,1.009759007E0
9.427521042E0,7.690341349E-1,-7.225872159E-2,1.058388425E-1,7.796388164E-1
9.437576042E0,6.070741916E-1,-4.180104303E-1,-1.406403007E-1,7.503675687E-1
9.447631042E0,5.709572196E-1,-5.879153144E-1,-4.426004572E-1,9.314138330E-1
9.457686042E0,4.896753306E-1,-3.729073477E-1,-6.679824078E-1,9.083184004E-1
9.467741042E0,3.566931649E-1,1.229985201E-1,-6.913755096E-1,7.876285579E-1
9.477797042E0,2.801020950E-1,5.238567281E-1,-5.635556678E-1,8.188272382E-1
9.487852042E0,2.735063992E-1,7.385220480E-1,-3.387300798E-1,8.572972838E-1
9.497907042E0,2.818373293E-1,7.982086712E-1,-4.126204669E-2,8.475092445E-1
9.507962042E0,3.045918421E-1,7.537458587E-1,2.690853560E-1,8.563386822E-1
9.518017042E0,2.661560106E-1,5.934935582E-1,5.347383964E-1,8.420325280E-1
9.528072042E0,2.126201101E-1,4.587403804E-1,7.123820704E-1,8.735778512E-1
9.538128042E0,1.650150769E-1,2.647964233E-1,7.948178709E-1,8.538633200E-1
9.548183042E0,7.183662571E-2,1.187358999E-1,7.327566934E-1,7.457821977E-1
9.558238042E0,-8.826478008E-2,2.884665370E-2,5.439261264E-1,5.517956431E-1
9.568293042E0,-2.493454849E-1,-1.139037609E-2,2.531370753E-1,3.555014633E-1
9.578348042E0,-3.871620189E-1,1.989456654E-2,-1.499869287E-2,3.879628635E-1
9.588403042E0,-4.317334069E-1,1.047844434E-1,-2.603782672E-1,5.149469451E-1
9.598459042E0,-3.732650511E-1,1.695435262E-1,-4.411431849E-1,6.022284577E-1
9.608514042E0,-3.498474275E-1,1.653896642E-1,-4.423121895E-1,5.876963812E-1
9.618569042E0,-3.525294357E-1,1.983042258E-1,-3.290829049E-1,5.214375584E-1
9.628624042E0,-3.453309285E-1,2.771808261E-1,-1.699480073E-1,4.743047393E-1
9.638679042E0,-3.054207581E-1,3.119337523E-1,-3.014064252E-2,4.375990900E-1
9.648734042E0,-2.438119358E-1,3.457265657E-1,1.278417689E-1,4.419441550E-1
9.658789042E0,-1.577449048E-1,3.813004410E-1,3.282322812E-1,5.272664523E-1
9.668845042E0,-1.028114101E-1,3.494255143E-1,4.598794180E-1,5.866493461E-1
9.678900042E0,-1.015186273E-2,3.214658833E-1,4.720232078E-1,5.711823554E-1
9.688955042E0,4.332629655E-2,2.690309769E-1,4.608614579E-1,5.353952912E-1
9.699010042E0,1.062930981E-1,2.049484169E-1,3.616909263E-1,4.290948642E-1
9.709065042E0,8.741433911E-2,2.665862560E-2,8.066672534E-3,9.174431975E-2
9.719120042E0,-1.493551371E-1,-2.679720461E-1,-4.587462276E-1,5.518732425E-1
9.729176042E0,-2.764804027E-1,-4.038092977E-1,-6.568940404E-1,8.191539186E-1
9.739231042E0,-5.439941733E-1,-7.201167673E-1,-8.625642961E-1,1.248404976E0
9.749286042E0,-6.944846935E-1,-1.051347501E0,-1.136986406E0,1.697167830E0
9.759341042E0,-6.876873053E-1,-1.197133205E0,-1.092611302E0,1.760636588E0
9.769396042E0,-7.808694841E-1,-1.388753479E0,-8.720247987E-1,1.816265571E0
9.779451042E0,-8.896901873E-1,-1.511737381E0,-4.911965203E-1,1.821585178E0
9.789506042E0,-1.049091499E0,-1.526089371E0,-1.600233820E-1,1.858803170E0
9.799562042E0,-1.227717066E0,-1.383144245E0,9.333442569E-2,1.851779823E0
9.809617042E0,-1.432270796E0,-9.921058506E-1,2.058822173E-1,1.754440407E0
9.819672042E0,-1.395963973E0,-3.737651342E-1,1.799661881E-1,1.456297915E0
9.829727042E0,-1.117649298E0,3.667858976E-1,4.512647152E-2,1.177161096E0
9.839782042E0,-7.237305658E-1,1.024368448E0,-1.694493860E-2,1.254353929E0
9.849837042E0,-2.969376907E-2,1.564854072E0,-1.388634780E-1,1.571283887E0
9.859893042E0,7.980348627E-1,1.894207850E0,-1.437526274E-1,2.060472722E0
9.869948042E0,1.350433166E0,1.856191007E0,1.826678941E-1,2.302711956E0
9.880003042E0,1.443202166E0,1.769854530E0,4.923913988E-1,2.336164985E0
9.890058042E0,1.195636025E0,1.745570458E0,2.207677665E-1,2.127275285E0
9.900113042E0,6.098066686E-1,1.549481742E0,-3.918833166E-2,1.665621076E0
9.910168042E0,-2.104026266E-1,1.280513331E0,-5.250039518E-2,1.298745528E0
9.920223042E0,-8.724382699E-1,8.931037188E-1,-1.640085518E-2,1.248619948E0
9.930279042E0,-1.364605501E0,5.736253041E-1,2.668493807E-2,1.480508781E0
9.940334042E0,-1.781213331E0,3.298110294E-1,1.501907042E-1,1.817705557E0
9.950389042E0,-2.179242071E0,1.487882495E-1,2.397574764E-1,2.197434321E0
9.960444042E0,-2.401598087E0,4.946685970E-2,2.634989262E-1,2.416516507E0
9.970499042E0,-2.513885239E0,1.102550983E-2,2.010111943E-1,2.521933000E0
9.980554042E0,-2.201663804E0,1.965839750E-1,-5.838620245E-2,2.211193731E0
9.990610042E0,-1.319329049E0,5.428525776E-1,-5.728581494E-1,1.537362845E0
1.000066504E1,-1.464913535E-1,1.161909578E0,-9.145586148E-1,1.485904117E0
1.001072004E1,1.632407539E0,1.909263845E0,-1.294156347E0,2.825753608E0
1.002077504E1,3.802695184E0,2.737066444E0,-7.538025767E-1,4.745549674E0
1.003083004E1,5.161291648E0,3.233290401E0,1.939734855E-1,6.093498503E0
1.004088504E1,5.571058674E0,3.565008792E0,-7.428674063E-1,6.655661832E0
1.005094104E1,5.566644611E0,4.346076350E0,-2.466050630E0,7.480462390E0
1.006099604E1,4.038432700E0,4.871971418E0,-4.114193319E0,7.547955408E0
1.007105104E1,2.149850164E0,5.242141099E0,-6.060954189E0,8.296810514E0
1.008110604E1,9.569988754E-1,5.386255669E0,-6.975581508E0,8.864893364E0
1.009116104E1,8.778173429E-1,5.290917403E0,-6.137876649E0,8.150944731E0
1.010121604E1,1.311097631E0,5.203215015E0,-3.579250270E0,6.450074107E0
1.011127104E1,1.689964314E0,4.806671467E0,5.537985653E-2,5.095403508E0
1.012132704E1,1.045217645E0,3.618887376E0,3.171005275E0,4.923829832E0
1.013138204E1,-8.794554403E-1,2.393348982E0,1.781609772E0,3.110577856E0
1.014143704E1,-2.712925922E0,1.527956972E0,-1.273522984E0,3.363997675E0
1.015149204E1,-3.132988725E0,1.271504526E0,-1.696384265E0,3.782864217E0
1.016154704E1,-2.341274410E0,1.742954999E0,-8.539718127E-1,3.041171789E0
1.017160204E1,-1.572303133E0,2.452505847E0,-5.932807195E-1,2.973029446E0
1.018165704E1,-1.231646542E0,2.832759052E0,-3.746813929E-1,3.111569250E0
1.019171304E1,-1.153457866E0,2.784750488E0,5.917241907E-1,3.071715782E0
1.020176804E1,-1.463147896E0,2.014910753E0,1.020109336E0,2.690964541E0
1.021182304E1,-1.428605031E0,7.610186255E-1,1.077055954E0,1.944250809E0
1.022187804E1,-1.037674225E0,-1.855584651E-1,2.481008685E-1,1.082937571E0
1.023193304E1,-7.303662054E-1,-7.625657988E-1,-2.971894133E-1,1.096933425E0
1.024198804E1,-2.463947971E-1,-1.685130129E0,4.636526263E-1,1.765034760E0
1.025204404E1,8.092679487E-1,-2.641822318E0,1.568812053E0,3.177311919E0
1.026209904E1,1.774673951E0,-3.670394329E0,2.424783613E0,4.743504794E0
1.027215404E1,2.303720375E0,-4.405412140E0,2.427801361E0,5.532540388E0
1.028220904E1,2.542244820E0,-4.189987852E0,1.575043430E0,5.147792608E0
1.029226404E1,2.179266044E0,-3.467282522E0,1.154701130E0,4.254948094E0
1.030231904E1,1.097505860E0,-2.923706059E0,1.155311580E0,3.329762917E0
1.031237504E1,2.974203783E-1,-2.438436862E0,2.695153602E0,3.646681526E0
1.032243004E1,-1.807030834E-1,-2.454247733E0,4.392556452E0,5.034931750E0
1.033248504E1,-1.972876874E-1,-2.581924610E0,5.491142439E0,6.071070944E0
1.034254054E1,2.951054657E-1,-3.011558136E0,5.677208442E0,6.433293506E0
1.035259554E1,9.133703144E-1,-3.605306048E0,5.331094206E0,6.500234031E0
1.036265054E1,1.501570096E0,-3.950527414E0,5.289503546E0,6.770541143E0
1.037270554E1,2.051946140E0,-4.501650878E0,5.297704850E0,7.248518488E0
1.038276154E1,2.507732799E0,-5.296210887E0,5.307241074E0,7.906034491E0
1.039281654E1,2.755319113E0,-6.210309033E0,5.531106988E0,8.760871316E0
1.040287154E1,2.858975336E0,-7.220850570E0,6.037939548E0,9.837232177E0
1.041292654E1,2.714063205E0,-8.144233510E0,6.709248437E0,1.089535191E1
1.042298154E1,2.491275811E0,-8.698182349E0,7.065916312E0,1.148006989E1
1.043303654E1,2.155383531E0,-8.549356678E0,7.152091992E0,1.135295546E1
1.044309154E1,1.882485936E0,-8.024714084E0,7.189111299E0,1.093723506E1
1.045314754E1,1.840684776E0,-7.450587088E0,7.471171042E0,1.071063794E1
1.046320254E1,2.008088806E0,-7.117914432E0,7.540252386E0,1.056184324E1
1.047325754E1,2.396299925E0,-6.905416675E0,7.610965104E0,1.055243207E1
1.048331254E1,2.866524383E0,-6.865194848E0,7.439606017E0,1.052119765E1
1.049336754E1,3.281443683E0,-7.188229539E0,7.297190648E0,1.075581275E1
1.050342254E1,3.712137017E0,-7.602262108E0,7.510431587E0,1.131286582E1
1.051347854E1,4.005588013E0,-8.112901205E0,8.329239414E0,1.229797262E1
1.052353354E1,4.315443957E0,-8.569683353E0,9.278770518E0,1.334758823E1
1.053358854E1,4.320710544E0,-8.870177028E0,8.827232153E0,1.323890508E1
1.054364354E1,3.534722553E0,-9.381073403E0,7.631156124E0,1.259894224E1
1.055369854E1,2.437824073E0,-1.045887605E1,5.902481196E0,1.225440160E1
1.056375354E1,1.766946417E0,-1.170778635E1,2.635960192E0,1.213023688E1
1.057380854E1,1.827103449E0,-1.279362014E1,-1.349487087E0,1.299369611E1
1.058386454E1,1.162430638E0,-1.350040233E1,-3.405034819E0,1.397162733E1
1.059391954E1,-4.822146855E-1,-1.237786673E1,-5.086230941E0,1.339081256E1
1.060397454E1,-1.310961537E0,-8.845484236E0,-5.400929841E0,1.044659058E1
1.061402954E1,-1.578409965E0,-4.476248819E0,-2.991472073E0,5.610444427E0
1.062408454E1,-1.746274171E0,-9.127451009E-1,-9.278244853E-1,2.177942922E0
1.063413954E1,-1.801499514E0,1.825394892E0,4.180466831E-1,2.598505348E0
1.064419554E1,-1.135989894E0,4.401901472E0,1.008895399E0,4.656724121E0
1.065425054E1,-9.725936919E-2,7.182771748E0,1.392269117E0,7.317108900E0
1.066430554E1,5.641626819E-1,9.717535055E0,1.516001609E0,9.851244995E0
1.067436054E1,8.145424296E-1,1.206948809E1,1.368242469E0,1.217407531E1
1.068441554E1,1.059302857E0,1.431280746E1,8.643235040E-1,1.437795656E1
1.069447054E1,1.058406844E0,1.633984767E1,3.635050249E-1,1.637812514E1
1.070452554E1,1.181440301E0,1.746592785E1,-1.304871954E-2,1.750584495E1
1.071458154E1,1.865843445E0,1.825919621E1,-1.724256188E-1,1.835509054E1
1.072463654E1,2.658916068E0,1.874524251E1,-1.048539083E0,1.896189298E1
1.073469154E1,3.502949953E0,1.917521049E1,-2.185934794E0,1.961473086E1
1.074474654E1,4.202691220E0,1.951885252E1,-2.719454046E0,2.015052475E1
1.075480154E1,4.657719204E0,1.949923629E1,-2.273430775E0,2.017629925E1
1.076485654E1,4.674101640E0,1.819917220E1,-1.329840734E0,1.883681426E1
1.077491254E1,2.733024556E0,1.523816208E1,-1.040106813E0,1.551621181E1
1.078496754E1,8.250001748E-1,1.294375091E1,-1.524942732E0,1.305935539E1
1.079502254E1,1.138408851E-1,1.112469265E1,-1.975679444E0,1.129933872E1
1.080507754E1,2.073092303E-1,9.014504437E0,-4.163495872E0,9.931715121E0
1.081513254E1,-1.477222144E0,6.472243829E0,-6.060447820E0,8.988946169E0
1.082518754E1,-3.021639905E0,5.526552007E0,-6.233734149E0,8.861857945E0
1.083524254E1,-3.388985673E0,5.955594379E0,-4.138780861E0,8.005237993E0
1.084529854E1,-3.184984213E0,7.001758323E0,-6.744310096E-2,7.692417866E0
1.085535354E1,-3.538043187E0,7.287139869E0,1.722492960E0,8.281735269E0
1.086540854E1,-3.809500466E0,7.318968018E0,-1.941598655E-1,8.253319618E0
1.087546354E1,-3.749209241E0,7.658926890E0,-1.444295303E0,8.648798759E0
1.088551854E1,-3.990395192E0,7.968980763E0,-2.334995524E0,9.213040339E0
1.089557354E1,-4.158791787E0,8.017761744E0,-2.666605157E0,9.417581196E0
1.090562954E1,-4.328725030E0,7.533728063E0,-2.788792668E0,9.125364840E0
1.091568454E1,-3.784164189E0,7.127544796E0,-3.080867229E0,8.637912729E0
1.092573954E1,-2.348053233E0,7.262626587E0,-3.412192103E0,8.360750796E0
1.093579454E1,-1.462632756E0,7.443765142E0,-3.615160068E0,8.403470496E0
1.094584954E1,-8.951230547E-1,7.654760165E0,-3.592522280E0,8.503106185E0
1.095590454E1,-2.545534171E-1,8.346546003E0,-4.057137358E0,9.283856481E0
1.096595954E1,3.290283796E-1,9.380240175E0,-4.815916208E0,1.054941772E1
1.097601554E1,7.703243961E-1,1.025274415E1,-5.146626247E0,1.149782258E1
1.098607054E1,1.262554193E0,1.089221905E1,-5.077523267E0,1.208369651E1
1.099612554E1,1.644799544E0,1.125691573E1,-4.810794924E0,1.235181222E1
1.100618054E1,1.824114937E0,1.128234177E1,-4.703591487E0,1.235889978E1
1.101623554E1,1.620109237E0,1.102332765E1,-4.800216726E0,1.213180065E1
1.102629054E1,7.948061764E-1,1.055046566E1,-5.014374508E0,1.170845824E1
1.103634654E1,-7.904448114E-1,9.724720114E0,-4.779117048E0,1.086438880E1
1.104640154E1,-2.365916477E0,9.002652131E0,-3.890416868E0,1.008863963E1
1.105645654E1,-2.953271044E0,8.902210999E0,-2.192143368E0,9.632064320E0
1.106651154E1,-1.948041995E0,8.795885230E0,-9.479377377E-1,9.058755463E0
1.107656654E1,-4.912009057E-1,7.266742442E0,5.814383537E-2,7.283557150E0
1.108662154E1,-1.347578555E-1,3.093182343E0,4.286106429E0,5.287404373E0
1.109667654E1,-1.763317050E-1,-1.723482484E1,1.328171296E1,2.175946183E1
1.110673254E1,1.239327415E1,-5.493264510E1,3.462320926E1,6.610563789E1
1.111678754E1,2.602240644E1,-4.924490875E1,4.277653636E1,7.022861765E1
1.112684254E1,1.191250672E1,-4.645951039E1,3.678748129E1,6.044594859E1
1.113689754E1,5.094396577E0,-2.959288004E1,1.567742948E1,3.387437410E1
1.114695254E1,1.013914328E1,-1.307450985E1,-4.281197399E0,1.709016341E1
1.115700754E1,3.630313420E0,-1.670927944E1,-1.936186063E1,2.583139257E1
1.116706254E1,-7.022907118E0,-1.803579515E1,-2.358074718E1,3.050676595E1
1.117711854E1,-7.299647648E0,-1.181907757E1,-1.162745730E1,1.811555171E1
1.118717354E1,-8.163495408E0,-1.089897141E1,-5.365603888E-1,1.362784400E1
1.119722854E1,-4.993382419E0,-9.414094968E0,2.856256673E0,1.103255429E1
1.120728354E1,4.304300918E0,-4.171954454E0,2.013317971E1,2.100659743E1
1.121733854E1,5.376759206E0,-3.870308293E0,1.716601481E1,1.840002419E1
1.122739354E1,-2.380683620E0,-1.061437339E1,2.617145021E0,1.118847733E1
1.123744954E1,-6.237559690E-1,-9.040865439E0,4.420959302E0,1.008321380E1
1.124750454E1,2.073803909E0,-8.485502744E0,-7.015174175E0,1.120344091E1
1.125755954E1,2.601360170E0,-9.197052755E0,-9.984810698E0,1.382205841E1
1.126761454E1,7.104038112E-1,-7.956095254E0,-9.076497787E0,1.209077902E1
1.127766954E1,-2.107865840E0,-5.056860377E0,-4.789291788E0,7.276829743E0
1.128772454E1,-2.658132541E0,-2.736777592E0,-3.106939087E0,4.920232787E0
1.129777954E1,-1.435294099E0,-2.018627243E0,-2.644543027E0,3.623331743E0
1.130783554E1,-1.775431896E0,-1.494579311E0,-1.530166635E0,2.779808566E0
1.131789054E1,-2.447688911E0,-4.151447099E-1,-1.539232158E0,2.921089141E0
1.132794554E1,-2.802240679E0,1.355007443E0,-7.068237072E-1,3.191895635E0
1.133800054E1,-2.816282768E0,2.706383765E0,5.977947700E-1,3.951369420E0
1.134805504E1,-1.641456106E0,3.604296818E0,7.885379612E-1,4.038208244E0
1.135811004E1,-6.206741939E-1,3.622144275E0,1.062356931E0,3.825410808E0
1.136816504E1,-3.519672990E-2,3.252970959E0,3.166989407E-1,3.268540514E0
1.137822104E1,3.958323799E-1,3.508163915E0,5.210681909E-1,3.568670535E0
1.138827604E1,2.420803560E0,7.098318073E0,1.139183205E0,7.585785900E0
1.139833104E1,2.539829920E0,7.067060028E0,5.154145181E-1,7.527265478E0
1.140838604E1,3.073983302E0,7.635394771E0,2.412806761E-1,8.234491060E0
1.141844104E1,3.518314389E0,8.127064916E0,-2.241585669E-1,8.858779112E0
1.142849604E1,3.674599062E0,8.335550314E0,-7.751694721E-1,9.142481337E0
1.143855204E1,3.392306600E0,8.184889201E0,-1.242680091E0,8.946754110E0
1.144860704E1,2.762531653E0,7.499014898E0,-1.587199207E0,8.147760852E0
1.145866204E1,2.402541682E0,6.854676876E0,-1.687483633E0,7.456970070E0
1.146871704E1,2.047067223E0,5.966193627E0,-1.296490847E0,6.439475066E0
1.147877204E1,1.915132403E0,4.869870513E0,-3.934123635E-1,5.247679890E0
1.148882704E1,2.123458318E0,3.813456400E0,5.008961740E-1,4.393452164E0
1.149888204E1,2.264513917E0,2.651622251E0,1.513859335E0,3.801433142E0
1.150893804E1,2.232992016E0,1.275988171E0,2.598267578E0,3.655871108E0
1.151899304E1,2.103306474E0,2.419577837E-2,3.431091181E0,4.024533545E0
1.152904804E1,1.786804146E0,-1.039354861E0,3.817148332E0,4.340915684E0
1.153910304E1,1.192319631E0,-1.832466515E0,3.600217508E0,4.212021574E0
1.154915804E1,3.018728138E-1,-2.490620922E0,2.648835176E0,3.648376017E0
1.155921304E1,-2.753818571E-1,-2.914348176E0,1.165791544E0,3.150925321E0
1.156926804E1,-9.831782486E-1,-3.271203747E0,-9.017380098E-1,3.532781462E0
1.157932404E1,-1.075054525E0,-3.348199298E0,-2.720359780E0,4.445957501E0
1.158937904E1,-7.536755459E-1,-2.731350206E0,-3.951536351E0,4.862400674E0
1.159943404E1,-5.649314446E-1,-2.117880220E0,-4.237948469E0,4.771244218E0
1.160948904E1,-3.431740368E-1,-1.725887561E0,-3.372214397E0,3.803720052E0
1.161954404E1,5.295165405E-3,-1.191780664E0,-2.237873564E0,2.535438281E0
1.162959904E1,3.536982941E-1,-4.690601313E-1,-1.088378794E0,1.236805680E0
1.163965504E1,4.880926721E-1,2.567845684E-1,-1.636854932E-1,5.752961948E-1
1.164971004E1,3.110731883E-1,7.000245649E-1,6.403206924E-1,9.984044816E-1
1.165976504E1,-7.114504628E-2,9.126503760E-1,1.427847670E0,1.696095898E0
1.166982004E1,-5.779442038E-1,9.442972612E-1,2.025626360E0,2.308436478E0
1.167987504E1,-1.010072736E0,7.734778726E-1,2.311526847E0,2.638497928E0
1.168993004E1,-1.287289230E0,5.897817457E-1,2.171315293E0,2.592212602E0
1.169998504E1,-1.526880207E0,4.311345059E-1,1.607364500E0,2.258508526E0
1.171004104E1,-1.563241849E0,2.730333960E-1,8.540738466E-1,1.802141628E0
1.172009604E1,-1.400691446E0,4.515512288E-2,1.955864400E-2,1.401555583E0
1.173015104E1,-7.451864851E-1,-7.472800076E-2,-7.567527893E-1,1.064688666E0
1.174020604E1,-3.281487391E-1,-1.775641519E-1,-1.250546350E0,1.305019846E0
1.175026104E1,-1.216837737E-1,-2.821831191E-1,-1.469532470E0,1.501319398E0
1.176031604E1,2.333517786E-2,-2.814031005E-1,-1.417683163E0,1.445530278E0
1.177037104E1,3.885617327E-2,-2.184701031E-1,-1.167976941E0,1.188868842E0
1.178042704E1,1.399155748E-1,-5.483460367E-2,-8.829880357E-1,8.956846951E-1
1.179048204E1,2.562696480E-1,1.741791987E-1,-7.150530785E-1,7.793031701E-1
1.180053704E1,3.011424235E-1,3.162443197E-1,-5.287391531E-1,6.857567506E-1
1.181059204E1,2.349275667E-1,4.290932429E-1,-4.050474456E-1,6.351184188E-1
1.182064704E1,1.308977796E-1,4.824865079E-1,-3.628969145E-1,6.177553153E-1
1.183070204E1,1.420626724E-1,5.350787044E-1,-3.149772280E-1,6.369471540E-1
1.184075804E1,2.321108167E-1,6.220244622E-1,-1.545875180E-1,6.816796634E-1
1.185081304E1,3.173742941E-1,5.795111114E-1,6.377879709E-2,6.637976391E-1
1.186086804E1,3.623409174E-1,4.700997663E-1,2.865088892E-1,6.590690967E-1
1.187092304E1,3.084275425E-1,3.736382496E-1,4.376351479E-1,6.528840733E-1
1.188097804E1,1.982142152E-1,3.066157097E-1,3.984313211E-1,5.404161231E-1
1.189103304E1,1.265618499E-1,2.314819121E-1,2.188682985E-1,3.427901831E-1
1.190108804E1,1.113947938E-1,1.097458059E-1,-8.117221713E-2,1.761870336E-1
1.191114404E1,1.461636171E-1,-1.336451304E-1,-4.147438833E-1,4.596056055E-1
1.192119904E1,1.612090146E-1,-4.782648182E-1,-7.011451837E-1,8.639040175E-1
1.193125404E1,1.407564044E-1,-7.688919014E-1,-8.873611683E-1,1.182546813E0
1.194130904E1,8.226224776E-2,-1.015640309E0,-9.817653421E-1,1.414975442E0
1.195136404E1,-4.359830171E-3,-1.138675082E0,-9.982395798E-1,1.514292643E0
1.196141904E1,-6.527652483E-2,-1.266408092E0,-1.060918223E0,1.653359597E0
1.197147404E1,-1.439842867E-1,-1.364218562E0,-1.084533373E0,1.748724220E0
1.198153004E1,-2.063638086E-1,-1.345426195E0,-1.048014880E0,1.717874517E0
1.199158504E1,-1.237230267E-1,-1.229729093E0,-9.115739036E-1,1.535743472E0
1.200164004E1,1.461477931E-1,-1.088808272E0,-7.546358049E-1,1.332793243E0
1.201169504E1,3.693006023E-1,-9.143776435E-1,-5.456130481E-1,1.127015088E0
1.202175004E1,5.140311400E-1,-6.123619384E-1,-4.731803718E-1,9.290397304E-1
1.203180504E1,5.585636806E-1,-2.510776860E-1,-3.255288211E-1,6.935433678E-1
1.204186104E1,5.711571944E-1,8.884142518E-2,-1.962158927E-1,6.104211792E-1
1.205191604E1,5.464997783E-1,3.069530940E-1,-4.008792579E-2,6.280837933E-1
1.206197104E1,4.202574788E-1,4.339908707E-1,1.586104023E-1,6.245972175E-1
1.207202604E1,2.458330624E-1,4.879308504E-1,3.172830775E-1,6.318061100E-1
1.208208104E1,-3.345557526E-3,5.914131188E-1,4.335149074E-1,7.332911051E-1
1.209213604E1,-1.914704752E-1,7.161862689E-1,5.076309970E-1,8.984836914E-1
1.210219104E1,-2.548243990E-1,7.393219471E-1,6.446373993E-1,1.013454386E0
1.211224704E1,-1.731332050E-1,7.727411234E-1,7.594837314E-1,1.097232650E0
1.212230204E1,-8.650049239E-2,7.750671458E-1,9.128290084E-1,1.200611600E0
1.213235704E1,2.959900763E-2,8.050002122E-1,1.151651807E0,1.405419271E0
1.214241204E1,9.053430375E-2,8.924932694E-1,1.398708656E0,1.661663805E0
1.215246704E1,1.479257852E-1,9.932343632E-1,1.598329674E0,1.887605437E0
1.216252204E1,2.479771633E-1,1.007671723E0,1.745535083E0,2.030711132E0
1.217257704E1,2.716736626E-1,9.181257087E-1,1.807474346E0,2.045415583E0
1.218263304E1,9.312977314E-2,7.352253878E-1,1.663020052E0,1.820677132E0
1.219268804E1,-1.615732231E-1,5.522940767E-1,1.308347831E0,1.429303572E0
1.220274304E1,-2.665410863E-1,3.924861646E-1,9.028106815E-1,1.019880712E0
1.221279804E1,-2.315035468E-1,2.307001394E-1,4.403707677E-1,5.484002731E-1
1.222285304E1,-1.372381348E-1,8.302110672E-2,2.745764762E-2,1.627290147E-1
1.223290804E1,-4.316158779E-3,-4.955222905E-2,-2.472772881E-1,2.522302715E-1
1.224296304E1,8.117155932E-2,-1.816045779E-1,-3.296245033E-1,3.849952700E-1
1.225301904E1,1.351803900E-1,-1.833827162E-1,-3.829361996E-1,4.455817449E-1
1.226307404E1,1.342515597E-1,-1.165057719E-1,-3.937108639E-1,4.319783797E-1
1.227312904E1,8.444135886E-2,-4.484112740E-2,-4.421854511E-1,4.524036284E-1
1.228318404E1,7.561001670E-2,-2.454193354E-2,-5.424815717E-1,5.482749646E-1
1.229323904E1,7.917495444E-2,-7.099981606E-2,-5.823762470E-1,5.920065375E-1
1.230329404E1,2.464787778E-2,-8.498167813E-2,-6.340036529E-1,6.401484480E-1
1.231335004E1,-1.156537960E-1,-1.442250824E-1,-6.995708209E-1,7.235855225E-1
1.232340504E1,-2.544461938E-1,-3.479122549E-1,-7.619085717E-1,8.753801884E-1
1.233346004E1,-4.809697767E-1,-5.589914775E-1,-6.957642835E-1,1.013849760E0
1.234351558E1,-8.761223812E-1,-7.096198457E-1,-5.716857827E-1,1.264110512E0
1.235357058E1,-1.117921559E0,-6.244569039E-1,-4.295569271E-1,1.350634736E0
1.236362558E1,-9.490469545E-1,-4.155674636E-1,-1.665877587E-1,1.049351190E0
1.237368058E1,-7.044766349E-1,-2.019277453E-1,1.057916263E-1,7.404417679E-1
1.238373658E1,-5.301712824E-1,-4.572931945E-2,3.380532646E-1,6.304385530E-1
1.239379158E1,-4.923214881E-1,5.810202777E-2,5.096061864E-1,7.109534152E-1
1.240384658E1,-5.227644682E-1,1.365558743E-1,6.058039936E-1,8.117442176E-1
1.241390158E1,-4.550884288E-1,1.559902650E-1,6.579518017E-1,8.150699443E-1
1.242395658E1,-3.933813733E-1,1.998391199E-1,6.290183169E-1,7.683414746E-1
1.243401158E1,-3.918110670E-1,2.384319127E-1,5.313861877E-1,7.019522559E-1
1.244406658E1,-4.659025618E-1,2.503122854E-1,3.764721027E-1,6.491938704E-1
1.245412258E1,-5.091089538E-1,2.882156914E-1,1.685623634E-1,6.088296002E-1
1.246417758E1,-4.029879101E-1,3.438250512E-1,3.862846076E-2,5.311375335E-1
1.247423258E1,-6.828784090E-2,3.766250074E-1,3.972042829E-2,3.848211764E-1
1.248428758E1,2.676350272E-1,3.479444146E-1,1.038988826E-1,4.510973302E-1
1.249434258E1,4.927841856E-1,2.618663836E-1,2.290746135E-1,6.032291728E-1
1.250439758E1,5.552385152E-1,2.308755559E-1,1.436777830E-1,6.182528903E-1
1.251445258E1,4.891710083E-1,2.435663527E-1,-6.657932103E-2,5.504958215E-1
1.252450858E1,3.267661284E-1,1.180225396E-1,-2.275727561E-1,4.153249112E-1
1.253456358E1,8.145818252E-2,-9.267544448E-2,-3.007907134E-1,3.251141750E-1
1.254461858E1,-1.359639169E-1,-3.836375731E-1,-3.505163124E-1,5.371458456E-1
1.255467358E1,-3.073534821E-1,-6.084314400E-1,-5.200592539E-1,8.573894143E-1
1.256472858E1,-4.467834457E-1,-7.643375051E-1,-7.091082144E-1,1.134311125E0
1.257478358E1,-5.244389646E-1,-9.370239097E-1,-8.071894097E-1,1.343355790E0
1.258483858E1,-5.915253488E-1,-9.751863474E-1,-8.874032682E-1,1.445121175E0
1.259489458E1,-6.636849967E-1,-8.153532922E-1,-8.817455024E-1,1.372134795E0
1.260494958E1,-6.354730582E-1,-4.734952444E-1,-7.676911756E-1,1.103346498E0
1.261500458E1,-4.488347951E-1,2.631247044E-4,-4.875905424E-1,6.627196086E-1
1.262505958E1,-1.488312265E-1,4.932833916E-1,-2.138136730E-1,5.578490165E-1
1.263511458E1,1.777540585E-1,7.284613287E-1,2.071083784E-2,7.501208913E-1
1.264516958E1,4.317790883E-1,8.376674366E-1,2.521027029E-1,9.755386657E-1
1.265522458E1,6.142061502E-1,8.777939540E-1,4.560255182E-1,1.164358490E0
1.266528058E1,7.488526163E-1,9.339623076E-1,6.350172678E-1,1.355106182E0
1.267533558E1,7.962432759E-1,7.962486845E-1,7.502077085E-1,1.353080533E0
1.268539058E1,7.490990764E-1,4.743606323E-1,8.816782594E-1,1.250409528E0
1.269544558E1,6.473984545E-1,1.520580125E-1,8.502333954E-1,1.079418003E0
1.270550058E1,4.682698801E-1,-1.454570907E-1,7.490511292E-1,8.952720481E-1
1.271555558E1,2.199976334E-1,-2.909621286E-1,6.346310592E-1,7.319935111E-1
1.272561158E1,-6.347269535E-2,-3.653439742E-1,4.422769600E-1,5.771602134E-1
1.273566658E1,-2.983413696E-1,-4.259714144E-1,2.201833373E-1,5.647476612E-1
1.274572158E1,-4.502390405E-1,-4.717995518E-1,-6.227489322E-2,6.551245477E-1
1.275577658E1,-6.826399156E-1,-4.727158105E-1,-4.980599821E-1,9.682568036E-1
1.276583158E1,-1.227075188E0,-4.516459537E-1,-7.355870381E-1,1.500261936E0
1.277588658E1,-1.746102555E0,-4.248873407E-1,-4.982523555E-1,1.864848196E0
1.278594158E1,-1.905477334E0,-4.091688555E-1,1.568012738E-1,1.955210900E0
1.279599758E1,-1.788567228E0,-4.147441757E-1,9.926192361E-1,2.087169952E0
1.280605258E1,-1.599371648E0,-3.000475323E-1,1.472234469E0,2.194423050E0
1.281610758E1,-1.444498347E0,-1.462271690E-2,1.592245354E0,2.149891757E0
1.282616258E1,-1.239939209E0,3.568456310E-1,1.639758074E0,2.086526920E0
1.283621758E1,-9.276214407E-1,6.493397301E-1,1.670213882E0,2.017854810E0
1.284627258E1,-5.621417380E-1,8.464973170E-1,1.551498447E0,1.854645107E0
1.285632758E1,-3.185887608E-1,8.952034539E-1,1.283194279E0,1.596707732E0
1.286638358E1,-3.458274485E-2,7.994634837E-1,1.025958306E0,1.301125771E0
1.287643858E1,3.495993228E-1,5.807875586E-1,8.391561377E-1,1.078757108E0
1.288649358E1,7.278478096E-1,3.510288209E-1,6.941840735E-1,1.065305212E0
1.289654858E1,1.010192312E0,1.533198416E-1,5.096307448E-1,1.141805140E0
1.290660358E1,1.154906806E0,-3.079026818E-2,2.998057500E-1,1.193583369E0
1.291665858E1,1.064842582E0,-2.995616287E-1,5.976819187E-2,1.107790202E0
1.292671358E1,7.516649808E-1,-5.624658930E-1,-3.723550782E-1,1.009958627E0
1.293676958E1,3.284288207E-1,-7.392184514E-1,-8.853570351E-1,1.199235794E0
1.294682458E1,2.306187535E-2,-7.689410180E-1,-1.363087418E0,1.565186713E0
1.295687958E1,-2.108373854E-1,-8.873120517E-1,-1.986118771E0,2.185507458E0
1.296693458E1,-5.291449865E-1,-1.064355217E0,-2.829317966E0,3.068857539E0
1.297698958E1,-9.840320883E-1,-1.130104818E0,-3.327840755E0,3.649654797E0
1.298704458E1,-1.192887542E0,-9.803389138E-1,-3.091880752E0,3.455976224E0
1.299709958E1,-1.014105488E0,-7.899050403E-1,-2.485010227E0,2.797791225E0
1.300715558E1,-4.548446730E-1,-6.139816171E-1,-1.587266742E0,1.761610858E0
1.301721058E1,1.941145862E-1,-3.599189276E-1,-6.546662512E-1,7.718873023E-1
1.302726558E1,5.527804188E-1,-4.756008267E-2,2.686219642E-1,6.164299738E-1
1.303732058E1,6.852936014E-1,2.034626395E-1,1.073656675E0,1.289869382E0
1.304737558E1,8.061083326E-1,3.809899539E-1,1.676304926E0,1.898673799E0
1.305743058E1,8.517240699E-1,6.159796107E-1,1.914131652E0,2.183750158E0
1.306748558E1,7.296032169E-1,8.277248311E-1,1.962414451E0,2.251337320E0
1.307754158E1,5.323936264E-1,9.166387618E-1,1.817105879E0,2.103697547E0
1.308759658E1,4.348465011E-1,7.966995049E-1,1.316280749E0,1.598879792E0
1.309765158E1,5.163915879E-1,5.930743128E-1,9.649250686E-1,1.244780222E0
1.310770658E1,5.505507659E-1,4.154516888E-1,8.674198240E-1,1.108207292E0
1.311776158E1,4.489082142E-1,3.460797375E-1,7.364041865E-1,9.292905334E-1
1.312781658E1,3.506972837E-1,3.637909538E-1,6.012569064E-1,7.853930929E-1
1.313787158E1,1.402818115E-1,3.749111885E-1,4.973127079E-1,6.384021580E-1
1.314792758E1,5.568742007E-4,3.755760169E-1,3.189837402E-1,4.927558027E-1
1.315798258E1,6.433258323E-2,3.558521891E-1,7.370853871E-2,3.690561074E-1
1.316803758E1,2.144825579E-1,2.687935799E-1,-1.080246779E-1,3.604470659E-1
1.317809258E1,4.345293993E-1,1.974008310E-1,-6.474183351E-2,4.816371995E-1
1.318814758E1,7.130196362E-1,1.577134395E-1,1.888931322E-1,7.542885032E-1
1.319820258E1,9.842008536E-1,8.480684638E-2,4.883550659E-1,1.101968326E0
1.320825758E1,1.111842282E0,6.732484102E-3,6.895954710E-1,1.308350297E0
1.321831358E1,1.099781157E0,-3.484063447E-2,7.014436841E-1,1.304896818E0
1.322836858E1,1.017209775E0,-3.574987650E-2,4.585257876E-1,1.116351055E0
1.323842358E1,8.866969977E-1,-1.029010552E-1,2.675013453E-2,8.930485779E-1
1.324847858E1,8.018029547E-1,-2.201617026E-1,-4.857393140E-1,9.629651263E-1
1.325853358E1,7.333298667E-1,-3.148006421E-1,-9.135069931E-1,1.212999243E0
1.326858858E1,5.679087006E-1,-3.874815327E-1,-1.210112562E0,1.391773919E0
1.327864358E1,4.296453662E-1,-3.682441932E-1,-1.290875182E0,1.409452965E0
1.328869958E1,4.434895264E-1,-1.951718724E-1,-1.093737768E0,1.196259723E0
1.329875458E1,4.453996655E-1,4.937213480E-2,-7.784667170E-1,8.982365497E-1
1.330880958E1,3.854657051E-1,2.906276679E-1,-3.964026296E-1,6.246465368E-1
1.331886458E1,2.720745805E-1,4.886126357E-1,1.376317620E-2,5.594249817E-1
1.332891958E1,9.717220914E-2,6.267466736E-1,3.745147473E-1,7.365562619E-1
1.333897458E1,-1.336247930E-1,6.626210958E-1,6.556459522E-1,9.416973593E-1
1.334902958E1,-3.457983037E-1,5.826136440E-1,8.439239573E-1,1.082230461E0
1.335908558E1,-4.571540308E-1,4.817789948E-1,9.164037037E-1,1.131767006E0
1.336914058E1,-5.111967022E-1,4.172725117E-1,8.855420995E-1,1.104365532E0
1.337919558E1,-5.809488686E-1,3.727617520E-1,7.044406745E-1,9.862502601E-1
1.338925058E1,-5.639090589E-1,3.212799418E-1,4.332427195E-1,7.803290855E-1
1.339930558E1,-4.701178926E-1,1.951841515E-1,1.861282763E-1,5.419883958E-1
1.340936058E1,-3.491889214E-1,4.676252246E-2,-4.126029253E-2,3.547140370E-1
1.341941658E1,-1.946497526E-1,-2.188788235E-2,-2.238124117E-1,2.974215883E-1
1.342947158E1,-5.424174168E-2,-1.353630424E-3,-3.613561732E-1,3.654070097E-1
1.343952658E1,3.799294151E-2,1.297748584E-1,-4.407911825E-1,4.610659867E-1
1.344958158E1,1.629991762E-1,2.275829887E-1,-4.408417609E-1,5.222108831E-1
1.345963658E1,2.636004119E-1,2.897418147E-1,-3.364841643E-1,5.163885061E-1
1.346969158E1,3.126387438E-1,2.659705442E-1,-2.620195806E-1,4.869677352E-1
1.347974658E1,2.759039769E-1,2.353100842E-1,-2.361205083E-1,4.327201574E-1
1.348980158E1,2.000666862E-1,2.023189241E-1,-2.538656384E-1,3.813232072E-1
1.349985758E1,1.612913142E-1,1.019830424E-1,-2.724413654E-1,3.326255050E-1
1.350991258E1,2.073166489E-1,-5.749274790E-2,-2.262898770E-1,3.122382382E-1
1.351996758E1,2.792806891E-1,-2.106880438E-1,-2.332501101E-1,4.204673222E-1
1.353002258E1,2.596611427E-1,-3.036213505E-1,-2.701036486E-1,4.822507797E-1
1.354007758E1,1.892961515E-1,-3.659971082E-1,-3.696498638E-1,5.535593356E-1
1.355013258E1,-2.918592925E-2,-4.112668365E-1,-4.733856091E-1,6.277628248E-1
1.356018758E1,-2.599773674E-1,-4.240681458E-1,-5.853168118E-1,7.681261576E-1
1.357024358E1,-4.196743652E-1,-4.337546432E-1,-6.236456028E-1,8.678729752E-1
1.358029858E1,-5.631741736E-1,-3.978375363E-1,-5.672769821E-1,8.928846675E-1
1.359035358E1,-5.973616740E-1,-3.389578289E-1,-4.696872452E-1,8.320694008E-1
1.360040858E1,-5.278589645E-1,-2.331050992E-1,-3.114197820E-1,6.557098095E-1
1.361046358E1,-4.073020954E-1,-1.472948706E-1,-1.391470680E-1,4.549205231E-1
1.362051858E1,-3.678866360E-1,-1.095429075E-1,-1.686103106E-2,3.842193642E-1
1.363057458E1,-3.460320827E-1,-1.036752266E-1,-1.998285949E-2,3.617817983E-1
1.364062958E1,-3.864857519E-1,-1.150094694E-1,-1.043058488E-1,4.165070522E-1
1.365068458E1,-4.973110268E-1,-1.233762503E-1,-2.463350093E-1,5.685251915E-1
1.366073958E1,-5.546104146E-1,-1.131313437E-1,-3.625606996E-1,6.721916942E-1
1.367079458E1,-6.351795280E-1,-7.590738416E-2,-4.269981855E-1,7.691179456E-1
1.368084958E1,-6.674274340E-1,-6.000588119E-2,-3.653638548E-1,7.632501764E-1
1.369090458E1,-6.496617655E-1,-6.919770420E-2,-2.695706749E-1,7.067652231E-1
1.370096058E1,-5.808974497E-1,-1.054141885E-1,-1.465280083E-1,6.082963549E-1
1.371101558E1,-5.131968154E-1,-1.368301088E-1,-9.412876993E-2,5.394012193E-1
1.372107058E1,-4.295956283E-1,-1.939375252E-1,-5.997196734E-2,4.751429305E-1
1.373112558E1,-3.270264757E-1,-3.187065822E-1,3.383023560E-2,4.578915660E-1
1.374118058E1,-2.429094911E-1,-4.266011596E-1,1.108193547E-1,5.032638469E-1
1.375123558E1,-2.051378850E-1,-4.846207416E-1,1.050352889E-1,5.366295063E-1
1.376129058E1,-2.343625795E-1,-4.278904706E-1,-1.490925971E-1,5.101418195E-1
1.377134658E1,-2.785886346E-1,-3.163127321E-1,-5.669436908E-1,7.064633892E-1
1.378140158E1,-2.690284370E-1,-1.897286993E-1,-1.134595772E0,1.181389370E0
1.379145658E1,-3.020267600E-1,-2.200237083E-1,-1.555104717E0,1.599369025E0
1.380151158E1,-3.509881096E-1,-1.625473326E-1,-1.666711984E0,1.711006466E0
1.381156658E1,-4.472008638E-1,2.154406607E-2,-1.663634595E0,1.722826986E0
1.382162158E1,-4.721088330E-1,4.092665040E-1,-1.595432379E0,1.713414806E0
1.383167658E1,-4.367033941E-1,7.951973552E-1,-1.396803340E0,1.665565447E0
1.384173258E1,-2.975190866E-1,1.150764200E0,-1.065998284E0,1.596598946E0
1.385178758E1,-1.783781391E-1,1.553815114E0,-6.233032483E-1,1.683646967E0
1.386184258E1,3.478538741E-2,2.197742077E0,-2.627077979E-1,2.213661141E0
1.387189758E1,1.462563868E-1,2.746116765E0,-4.942709863E-2,2.750452918E0
1.388195258E1,2.036864051E-1,3.413864114E0,-2.289392504E-1,3.427589462E0
1.389200758E1,5.213946483E-1,4.390399999E0,-3.999147597E-1,4.439301335E0
1.390206258E1,7.231963496E-1,5.547254659E0,-5.707683545E-1,5.623239611E0
1.391211858E1,9.213381690E-1,7.030937684E0,-2.901730469E-1,7.096981691E0
1.392217358E1,1.314133797E0,8.605093507E0,4.180072144E-1,8.714890242E0
1.393222858E1,2.547442410E0,1.018278806E1,1.881552136E0,1.066390520E1
1.394228358E1,4.114472231E0,1.145912999E1,2.549931570E0,1.243956160E1
1.395233858E1,4.350729564E0,1.112193861E1,1.288747965E0,1.201196226E1
1.396239358E1,4.133584733E0,9.455506704E0,-8.054288131E-1,1.035093452E1
1.397244858E1,3.405472775E0,7.198576772E0,-2.010314841E0,8.213289117E0
1.398250458E1,1.932493956E0,5.264899047E0,-1.344887667E0,5.767357948E0
1.399255958E1,-6.913891775E-1,4.285889205E0,-9.433722317E-1,4.442613695E0
1.400261458E1,-2.841800309E0,3.769528023E0,-1.012490121E0,4.828074850E0
1.401266958E1,-3.300165883E0,3.798672300E0,-8.386333966E-1,5.101402951E0
1.402272458E1,-3.352760126E0,3.170878390E0,-1.620070499E-1,4.617544424E0
1.403277958E1,-3.138871024E0,1.464451532E0,1.452310374E0,3.755840121E0
1.404283458E1,-2.471810430E0,-4.297878921E-2,2.545573055E0,3.548469551E0
1.405288958E1,-2.057568237E0,-1.462207956E0,3.535263421E0,4.343929858E0
1.406294558E1,-1.954290475E0,-2.743788988E0,4.277942839E0,5.445036658E0
1.407300058E1,-1.564321537E0,-3.812462958E0,4.050309564E0,5.778147043E0
1.408305558E1,-1.399712330E-1,-4.331748918E0,2.984691349E0,5.262321074E0
1.409311058E1,1.736304229E0,-4.399860794E0,1.661876337E0,5.013517761E0
1.410316558E1,3.468602824E0,-4.868116933E0,6.649155432E-1,6.014306336E0
1.411322058E1,4.722334737E0,-5.924665532E0,1.798825729E-1,7.578552947E0
1.412327558E1,4.985119134E0,-6.957342873E0,4.110697854E-1,8.568839536E0
1.413333158E1,3.874062790E0,-7.297909856E0,1.097024195E0,8.334945282E0
1.414338658E1,2.700247404E0,-7.251647855E0,2.720212430E0,8.202273363E0
1.415344158E1,2.105427551E0,-6.980578539E0,4.123775151E0,8.376563938E0
1.416349658E1,2.074639037E0,-6.842746217E0,5.267264830E0,8.880956127E0
1.417355158E1,1.877171694E0,-7.285803196E0,6.064429189E0,9.663539888E0
1.418360658E1,1.552896809E0,-7.600554137E0,6.215286183E0,9.940306536E0
1.419366158E1,1.335834715E0,-8.172866741E0,6.421822119E0,1.047950402E1
1.420371758E1,1.121709239E0,-9.000214427E0,6.403202246E0,1.110239120E1
1.421377258E1,1.158194988E0,-9.821976267E0,6.388518133E0,1.177394570E1
1.422382758E1,1.359900101E0,-1.048173749E1,6.641701986E0,1.248312278E1
1.423388258E1,1.767599551E0,-1.086462487E1,6.801475984E0,1.293926417E1
1.424393758E1,2.247899931E0,-1.101154434E1,6.952980266E0,1.321556270E1
1.425399258E1,2.666687602E0,-1.094623562E1,7.086253513E0,1.330963132E1
1.426404758E1,3.101461123E0,-1.077543612E1,7.167435086E0,1.330793787E1
1.427410358E1,3.318469130E0,-1.065680663E1,7.206044835E0,1.328558795E1
1.428415858E1,3.209195194E0,-1.049855642E1,7.374454587E0,1.322502178E1
1.429421358E1,2.816313173E0,-1.060149081E1,7.726972693E0,1.341750104E1
1.430426858E1,2.756965688E0,-1.043985739E1,7.602800637E0,1.320583431E1
1.431432358E1,3.064282479E0,-1.038215122E1,7.207613643E0,1.300494466E1
1.432437858E1,3.104392917E0,-1.098099615E1,7.289693933E0,1.354101804E1
1.433443358E1,3.518733927E0,-1.115699383E1,7.057684602E0,1.366275638E1
1.434448946E1,3.629447155E0,-1.139505737E1,6.215631754E0,1.347791888E1
1.435454446E1,2.738886975E0,-1.200413259E1,3.521918905E0,1.280642862E1
1.436459946E1,1.879571976E0,-1.109535833E1,-1.636047139E0,1.137173767E1
1.437465446E1,2.244144557E-1,-8.850623354E0,-4.731199701E0,1.003833384E1
1.438470946E1,-1.154028116E0,-5.113200054E0,-5.186567992E0,7.374081856E0
1.439476446E1,-1.043372776E0,-1.049637775E0,-3.850421328E0,4.125058861E0
1.440481946E1,-4.679830376E-1,2.024340557E0,-2.281864506E0,3.086076545E0
1.441487546E1,-7.284614749E-1,3.554215416E0,-1.466462390E0,3.913261464E0
1.442493046E1,-1.257248849E-1,6.179343933E0,-5.775259817E-1,6.207546573E0
1.443498546E1,2.770914185E-1,8.559676428E0,8.426118422E-1,8.605511892E0
1.444504046E1,-2.097340706E-1,1.074849682E1,2.882480850E0,1.113026811E1
1.445509546E1,-1.439744378E-1,1.356178172E1,2.826323606E0,1.385390765E1
1.446515046E1,3.654313170E-1,1.573074556E1,1.981994876E0,1.585932532E1
1.447520546E1,8.622152174E-1,1.709894958E1,1.125713559E0,1.715764328E1
1.448526146E1,9.195291866E-1,1.810416080E1,1.020612489E-1,1.812778499E1
1.449531646E1,6.632357112E-1,1.907512838E1,-9.796420719E-1,1.911177917E1
1.450537146E1,8.943136539E-1,2.015559092E1,-2.110371226E0,2.028549504E1
1.451542646E1,1.096989112E0,2.121802533E1,-2.143698016E0,2.135423670E1
1.452548146E1,1.183501957E0,2.164769511E1,-1.212171513E0,2.171388358E1
1.453553646E1,9.052040199E-1,1.965155625E1,2.554742074E-1,1.967405206E1
1.454559146E1,-1.227292193E-1,1.612114310E1,4.098360229E-1,1.612681874E1
1.455564646E1,-4.424628649E-1,1.353048743E1,3.475738473E-1,1.354218117E1
1.456570246E1,-4.145512541E-1,1.152819847E1,7.383057010E-1,1.155925205E1
1.457575746E1,-4.963734989E-1,9.914307311E0,8.529818791E-1,9.963305385E0
1.458581246E1,-6.859327020E-1,8.562094837E0,5.908627497E-1,8.609825228E0
1.459586746E1,-9.262114578E-1,7.511045544E0,2.780565928E-1,7.573043529E0
1.460592246E1,-8.401333536E-1,6.728754163E0,2.083156823E-1,6.784198705E0
1.461597746E1,-8.436969392E-1,6.036140360E0,1.963869238E-1,6.097981862E0
1.462603346E1,-9.919254640E-1,5.333416135E0,-4.657283878E-1,5.444827521E0
1.463608846E1,-1.428718613E0,4.759744053E0,-1.951937702E0,5.339144231E0
1.464614346E1,-2.338375945E0,4.286813065E0,-3.894288309E0,6.245818582E0
1.465619846E1,-2.879689974E0,4.411493245E0,-5.288301358E0,7.464584265E0
1.466625346E1,-2.569539330E0,5.278631818E0,-5.318035035E0,7.921362437E0
1.467630846E1,-2.224703880E0,6.194594057E0,-4.556466186E0,8.005228728E0
1.468636346E1,-2.207827793E0,6.827714780E0,-4.353131601E0,8.392970119E0
1.469641846E1,-2.156347006E0,7.495152227E0,-4.551938979E0,9.030353691E0
1.470647446E1,-2.082165135E0,8.228232856E0,-4.745477432E0,9.724134082E0
1.471652946E1,-1.794925636E0,8.957865967E0,-4.871393420E0,1.035353054E1
1.472658446E1,-1.417307771E0,9.657482981E0,-4.865936214E0,1.090656106E1
1.473663946E1,-1.048849205E0,1.025751080E1,-4.722827073E0,1.134115109E1
1.474669446E1,-7.295777084E-1,1.074646199E1,-4.537563892E0,1.168795170E1
1.475674946E1,-3.988526130E-1,1.119451776E1,-4.298166019E0,1.199793909E1
1.476680446E1,-1.957011185E-1,1.148750653E1,-4.049929495E0,1.218207840E1
1.477686046E1,-2.107641307E-1,1.157713148E1,-3.781609832E0,1.218092639E1
1.478691546E1,-3.980136106E-1,1.148920573E1,-3.398846710E0,1.198801160E1
1.479697046E1,-8.848230381E-1,1.143820865E1,-2.799313563E0,1.180896632E1
1.480702546E1,-1.335619245E0,1.143759119E1,-2.386090833E0,1.175992349E1
1.481708046E1,-4.361822610E-1,1.101706879E1,-2.016907285E0,1.120865624E1
1.482713546E1,1.210078940E0,9.665129385E0,-1.104309826E0,9.802985120E0
1.483719046E1,2.793012896E0,6.754457939E0,1.138110533E0,7.397223713E0
1.484724646E1,4.766312231E0,2.401852003E0,3.807305129E0,6.556080969E0
1.485730146E1,3.793641356E0,-1.211895553E1,1.147696985E1,1.711670631E1
1.486735646E1,5.617254601E0,-5.614756554E1,3.334291929E1,6.554275652E1
1.487741146E1,1.835243124E1,-6.221771915E1,4.334731816E1,7.801824338E1
1.488746646E1,1.414355395E1,-4.600056009E1,3.304167308E1,5.837674029E1
1.489752146E1,1.758274411E0,-2.808220042E1,1.357748618E1,3.124179317E1
1.490757646E1,5.424028682E0,-9.918395684E0,-4.768302038E0,1.226912240E1
1.491763246E1,1.376567998E1,-6.421289438E0,-1.766631895E1,2.329862075E1
1.492768746E1,1.772497617E0,-1.908942131E1,-3.052710372E1,3.604791000E1
1.493774246E1,-3.694344817E0,-1.855690603E1,-1.282301643E1,2.285687414E1
1.494779746E1,-3.443596036E0,-1.622280045E1,4.383049464E0,1.715367980E1
1.495785246E1,-1.648197653E0,-1.381405400E1,3.837135285E0,1.443150202E1
1.496790746E1,-1.957329858E0,-9.415777797E0,9.633036357E-1,9.665193510E0
1.497796246E1,-3.511253292E0,-6.394415050E0,4.668069068E-1,7.309948851E0
1.498801746E1,-3.038689801E0,-5.602902026E0,1.967592452E0,6.670649659E0
1.499807346E1,-1.887153330E0,-5.455285558E0,2.649653494E0,6.351547201E0
1.500812846E1,-1.176486102E0,-5.252600598E0,2.096630269E0,5.776659162E0
1.501818346E1,-6.117259075E-1,-5.025283073E0,2.019549349E0,5.450344771E0
1.502823846E1,1.856374025E-2,-4.349411017E0,2.415149741E0,4.975004430E0
1.503829346E1,5.970638680E-1,-2.990321048E0,1.254452291E0,3.297295223E0
1.504834846E1,1.120443025E0,-1.537973837E0,-1.250499573E0,2.276950873E0
1.505840346E1,1.007436958E0,-3.060075992E-1,-2.715785503E0,2.912741110E0
1.506845946E1,1.054346976E0,1.102305985E0,-3.442480095E0,3.765288201E0
1.507851446E1,1.058256425E0,3.254771317E0,-4.075464286E0,5.321921846E0
1.508856946E1,-2.720555954E-1,4.519741579E0,-3.871817459E0,5.957604269E0
1.509862446E1,-1.706000011E0,4.835476021E0,-2.635232506E0,5.765129205E0
1.510867946E1,-2.514994164E0,5.238564942E0,-5.278693798E-1,5.834929681E0
1.511873446E1,-2.526659651E0,5.296043072E0,9.108073336E-1,5.938152171E0
1.512878946E1,-2.235033279E0,5.215049195E0,1.600830528E0,5.895317654E0
1.513884546E1,-1.743735310E0,5.590177315E0,2.665574293E0,6.433970901E0
1.514890046E1,-1.458306401E0,5.690098044E0,3.055246777E0,6.621057784E0
1.515895546E1,-1.423095638E0,5.408704884E0,3.079755381E0,6.384683463E0
1.516901046E1,-1.032350701E0,5.080456815E0,2.616337521E0,5.807065648E0
1.517906546E1,-8.812923431E-1,4.767233752E0,2.105006990E0,5.285286016E0
1.518912046E1,-5.759532999E-1,4.538170833E0,1.590850793E0,4.843296704E0
1.519917546E1,-1.896361671E-1,4.323931775E0,1.053003725E0,4.454342232E0
1.520923146E1,1.220805073E-1,3.965699185E0,7.694269216E-1,4.041496191E0
1.521928646E1,3.015309709E-1,3.427040230E0,5.984201297E-1,3.491938189E0
1.522934146E1,4.513131009E-1,2.729290817E0,6.610218823E-2,2.767143180E0
1.523939646E1,6.211489148E-1,1.809685178E0,-8.236920065E-1,2.083087837E0
1.524945146E1,7.670557295E-1,7.745011353E-1,-1.270185978E0,1.673797754E0
1.525950646E1,6.944568461E-1,5.564327359E-2,-1.410527340E0,1.573198609E0
1.526956146E1,1.851572730E-1,-7.070172501E-1,-5.235550117E-1,8.990364053E-1
1.527961646E1,1.604877971E-3,-1.429285208E0,2.448550791E-2,1.429495828E0
1.528967246E1,9.318462733E-2,-1.789485971E0,-1.194779116E-1,1.795889303E0
1.529972746E1,3.097928308E-1,-1.913041731E0,-9.356539071E-2,1.940220283E0
1.530978246E1,3.987283596E-1,-2.108386681E0,-2.262401757E-1,2.157652270E0
1.531983746E1,3.511298315E-1,-1.996406654E0,-7.306069645E-1,2.154696782E0
1.532989246E1,1.895431233E-1,-1.551403722E0,-1.192032971E0,1.965635447E0
1.533994746E1,1.099028036E-2,-1.155152535E0,-1.447922038E0,1.852289501E0
1.535000179E1,-8.369704485E-2,-1.009802449E0,-1.353531021E0,1.690784553E0
1.536005779E1,4.632642981E-2,-7.511777616E-1,-1.152868028E0,1.376778435E0
1.537011279E1,1.611617618E-1,-3.301121610E-1,-8.842571738E-1,9.575269718E-1
1.538016779E1,2.325328030E-1,5.562690139E-2,-5.570197964E-1,6.061657448E-1
1.539022279E1,1.724981242E-1,3.267172676E-1,-2.796047893E-1,4.633342358E-1
1.540027779E1,4.928212423E-2,6.141640502E-1,-4.113486975E-2,6.175097456E-1
1.541033279E1,1.721277762E-2,9.141688979E-1,2.676244292E-1,9.526929666E-1
1.542038779E1,-1.676703706E-2,1.212465189E0,6.802507433E-1,1.390357523E0
1.543044379E1,-1.208647981E-1,1.405754258E0,1.212125904E0,1.860108207E0
1.544049879E1,-1.493898914E-1,1.524330529E0,1.599630972E0,2.214660278E0
1.545055379E1,-1.181523113E-1,1.680438323E0,1.788286707E0,2.456786982E0
1.546060879E1,-4.791829772E-2,1.753205752E0,1.696545063E0,2.440141743E0
1.547066379E1,7.705789693E-2,1.617384288E0,1.479411487E0,2.193291637E0
1.548071879E1,2.946712733E-1,1.263880926E0,1.175620129E0,1.751087902E0
1.549077379E1,4.912081051E-1,7.758454102E-1,8.804903975E-1,1.272196857E0
1.550082879E1,6.879524034E-1,3.241257817E-1,5.442965475E-1,9.351977135E-1
1.551088479E1,8.426559155E-1,-4.716247201E-2,4.883623749E-2,8.453864612E-1
1.552093979E1,8.611744130E-1,-3.352647275E-1,-5.883494702E-1,1.095526771E0
1.553099479E1,8.177644647E-1,-4.270011091E-1,-1.230007421E0,1.537526235E0
1.554104979E1,8.773137514E-1,-3.657860237E-1,-1.605747744E0,1.865986241E0
1.555110479E1,1.007092849E0,-2.423969096E-1,-1.594533954E0,1.901454917E0
1.556115979E1,1.118633750E0,-1.460494137E-1,-1.318806746E0,1.735489306E0
1.557121479E1,1.045083159E0,-9.226730883E-2,-8.974587250E-1,1.380631822E0
1.558127079E1,8.408156506E-1,-1.916606194E-1,-4.813901550E-1,9.876442844E-1
1.559132579E1,5.721933210E-1,-3.906238264E-1,-8.038372010E-2,6.974623379E-1
1.560138079E1,3.144833576E-1,-5.414445680E-1,2.951966822E-1,6.922449593E-1
1.561143579E1,2.369593279E-1,-5.213061726E-1,5.376546952E-1,7.854822850E-1
1.562149079E1,2.939862355E-1,-3.738657063E-1,5.544674867E-1,7.305050766E-1
1.563154579E1,3.061446068E-1,-1.728653294E-1,5.089398962E-1,6.185683150E-1
1.564160079E1,2.883309912E-1,5.998190761E-2,3.603738409E-1,4.654050870E-1
1.565165679E1,2.927086189E-1,2.166463566E-1,1.089976546E-1,3.801242798E-1
1.566171179E1,3.141680830E-1,2.559899318E-1,-8.885224253E-2,4.148820924E-1
1.567176679E1,4.551008907E-1,2.507864946E-1,-2.039508820E-1,5.582173849E-1
1.568182179E1,6.347158438E-1,2.604496032E-1,-2.826346703E-1,7.420111556E-1
1.569187679E1,8.029994412E-1,3.143445593E-1,-3.143381274E-1,9.178393448E-1
1.570193179E1,8.285455609E-1,3.483788627E-1,-3.263950861E-1,9.562370683E-1
1.571198679E1,6.701097710E-1,3.266359913E-1,-3.739798732E-1,8.340258519E-1
1.572204179E1,4.608349992E-1,2.816416669E-1,-5.164418739E-1,7.472637648E-1
1.573209779E1,2.564654932E-1,2.898827326E-1,-5.522421826E-1,6.743722831E-1
1.574215279E1,1.922632115E-2,2.174620432E-1,-4.496865517E-1,4.998773714E-1
1.575220779E1,-2.346074682E-2,1.175904304E-1,-1.839762086E-1,2.196022798E-1
1.576226279E1,-3.412625089E-2,7.769955575E-2,2.043180871E-1,2.212412771E-1
1.577231779E1,5.252352823E-2,9.799758017E-2,5.433425742E-1,5.546020192E-1
1.578237279E1,1.269527728E-1,1.525474244E-1,7.328210127E-1,7.592195729E-1
1.579242779E1,1.422529810E-1,1.649815285E-1,7.819504881E-1,8.117274057E-1
1.580248379E1,1.364743788E-1,1.742949736E-1,5.829660849E-1,6.235811495E-1
1.581253879E1,4.021563264E-2,1.512645453E-1,2.649078128E-1,3.076920685E-1
1.582259379E1,1.045878673E-2,1.752293587E-1,-9.691759944E-2,2.005186661E-1
1.583264879E1,-7.501140799E-2,2.092285788E-1,-3.653727718E-1,4.276687642E-1
1.584270379E1,-1.587062419E-1,1.989035654E-1,-4.843421218E-1,5.471175289E-1
1.585275879E1,-2.018263327E-1,1.379112589E-1,-4.561287215E-1,5.175005261E-1
1.586281379E1,-2.808613560E-1,3.793088794E-2,-4.257031734E-1,5.114147489E-1
1.587286979E1,-3.514107171E-1,1.785154939E-3,-4.539523879E-1,5.740779123E-1
1.588292479E1,-4.168063059E-1,3.498213708E-2,-3.733014500E-1,5.606293064E-1
1.589297979E1,-5.804722109E-1,4.600296915E-2,-3.883384421E-2,5.835857506E-1
1.590303479E1,-4.321822538E-1,1.002271235E-1,4.129736388E-1,6.061140183E-1
1.591308979E1,-2.693322181E-1,1.074156904E-1,7.646840988E-1,8.178140041E-1
1.592314479E1,-6.920676738E-2,1.126050943E-1,7.932109098E-1,8.041473941E-1
1.593319979E1,1.445826396E-2,5.258985758E-3,4.939960210E-1,4.942355381E-1
1.594325479E1,2.111707315E-2,-1.735091078E-1,1.613354972E-1,2.378665255E-1
1.595331079E1,5.182898864E-2,-3.038903224E-1,-4.947270691E-2,3.122228705E-1
1.596336579E1,4.886536393E-2,-4.041478515E-1,-1.460809886E-1,4.325077628E-1
1.597342079E1,1.416561082E-2,-3.980111986E-1,-2.117773801E-1,4.510689942E-1
1.598347579E1,-4.420750849E-2,-3.809420067E-1,-2.782803950E-1,4.738260171E-1
1.599353079E1,-1.387547563E-1,-4.195084870E-1,-3.394456328E-1,5.571925975E-1
1.600358579E1,-2.828408943E-1,-3.763191980E-1,-3.982573664E-1,6.166230941E-1
1.601364079E1,-4.060439939E-1,-2.072089505E-1,-3.865769684E-1,5.977031259E-1
1.602369679E1,-4.969786492E-1,-2.824906826E-2,-3.124828058E-1,5.877340313E-1
1.603375179E1,-4.802863834E-1,1.133476907E-1,-1.717648834E-1,5.225187884E-1
1.604380679E1,-2.955704655E-1,1.461207497E-1,6.513213515E-3,3.297811327E-1
1.605386179E1,-1.531511860E-1,1.102784872E-1,1.476819563E-1,2.396384584E-1
1.606391679E1,-1.272215255E-1,2.525763273E-2,2.105050260E-1,2.472562042E-1
1.607397179E1,-1.836943728E-1,-3.542594075E-2,2.326256275E-1,2.985185127E-1
1.608402679E1,-3.070984339E-1,-1.375767982E-1,2.265117788E-1,4.056407394E-1
1.609408279E1,-4.070170802E-1,-1.697657204E-1,2.505993837E-1,5.072310662E-1
1.610413779E1,-5.069449724E-1,-1.448489803E-1,2.064684007E-1,5.662187145E-1
1.611419279E1,-6.345686401E-1,-5.116956890E-2,1.840969536E-1,6.627121337E-1
1.612424779E1,-6.392866854E-1,1.104480565E-1,1.937520222E-1,6.770716988E-1
1.613430279E1,-3.671920233E-1,3.049059838E-1,2.650097005E-1,5.459192086E-1
1.614435779E1,-6.049708385E-2,4.735525471E-1,3.824233988E-1,6.116858409E-1
1.615441279E1,2.040236615E-1,5.255483276E-1,4.676413044E-1,7.324719030E-1
1.616446779E1,2.985919593E-1,4.936938661E-1,5.051022224E-1,7.668239998E-1
1.617452379E1,2.575217196E-1,4.012850547E-1,4.367665440E-1,6.466159178E-1
1.618457879E1,1.926283701E-1,2.841928071E-1,2.374288228E-1,4.174250669E-1
1.619463379E1,1.320665466E-1,1.943941927E-1,-1.165496260E-2,2.353008989E-1
1.620468879E1,9.758189796E-2,1.188610303E-1,-1.714931341E-1,2.303477075E-1
1.621474379E1,3.722437983E-2,5.497552156E-2,-2.323891076E-1,2.416871113E-1
1.622479879E1,-5.592770409E-2,-3.130716205E-2,-1.466703880E-1,1.600632662E-1
1.623485379E1,-1.497252658E-1,-9.408637762E-2,-2.723925412E-3,1.768539551E-1
1.624490979E1,-1.907131512E-1,-1.461546636E-1,1.486005539E-1,2.825151612E-1
1.625496479E1,-1.189739181E-1,-1.208631170E-1,2.572704720E-1,3.081408477E-1
1.626501979E1,4.984301839E-2,-3.969265401E-2,3.019636649E-1,3.086128451E-1
1.627507479E1,1.765246997E-1,-5.550761819E-3,3.458435100E-1,3.883291310E-1
1.628512979E1,1.553246691E-1,-1.490572214E-2,3.582242583E-1,3.907333523E-1
1.629518479E1,4.435785502E-2,-4.657658100E-2,3.586663078E-1,3.643878669E-1
1.630523979E1,-1.031112626E-2,-9.747308493E-4,3.305632737E-1,3.307254864E-1
1.631529479E1,2.710151564E-2,1.240147662E-1,2.434979403E-1,2.746004394E-1
1.632535079E1,1.459315192E-2,2.324999124E-1,1.755502246E-1,2.916968473E-1
1.633540579E1,-1.450829968E-1,2.316801327E-1,1.649929306E-1,3.192920717E-1
1.634546129E1,-2.862181729E-1,5.461357892E-2,2.217173544E-1,3.661448767E-1
1.635551629E1,-1.220250501E-1,-1.608124638E-1,3.411253917E-1,3.963802395E-1
1.636557129E1,4.745289590E-1,-2.254762369E-1,5.850943252E-1,7.863540143E-1
1.637562629E1,9.208325310E-1,-7.125767827E-2,7.557659255E-1,1.193395300E0
1.638568129E1,1.129857773E0,3.541939187E-1,5.842365387E-1,1.320365197E0
1.639573729E1,1.100145147E0,7.429858124E-1,2.260964803E-1,1.346650244E0
1.640579229E1,1.087667919E0,9.299341607E-1,-1.502822131E-1,1.438882827E0
1.641584729E1,9.480144824E-1,8.032711905E-1,-5.384981561E-1,1.354236437E0
1.642590229E1,7.372747638E-1,4.731438267E-1,-7.436699367E-1,1.149123202E0
1.643595729E1,4.628887972E-1,4.686952651E-2,-7.255488306E-1,8.619071277E-1
1.644601229E1,1.554435503E-1,-2.723843551E-1,-6.510383463E-1,7.226388189E-1
1.645606729E1,-1.873917865E-1,-4.242423928E-1,-5.436483836E-1,7.145983868E-1
