"Time (s)","Linear Acceleration x (m/s^2)","Linear Acceleration y (m/s^2)","Linear Acceleration z (m/s^2)","Absolute acceleration (m/s^2)"
8.729875000E-3,4.921016693E-2,-1.194081251E0,-1.558405178E0,1.963893677E0
1.878487499E-2,-3.397220600E-1,-1.082303537E0,-2.694275935E0,2.923339672E0
2.883987498E-2,-7.180351585E-1,-6.370711023E-1,-3.165864987E0,3.308192134E0
3.889487500E-2,-6.720552859E-1,1.034694046E-2,-2.683947414E0,2.766828344E0
4.894987500E-2,-3.394808623E-1,4.716390458E-1,-1.557601771E0,1.662472232E0
5.900487499E-2,1.602505463E-1,6.852483585E-1,-6.737869388E-1,9.742866054E-1
6.905987501E-2,6.279959312E-1,1.049403009E0,-3.711268705E-1,1.278030015E0
7.911487500E-2,6.856532782E-1,1.138290043E0,-4.831530905E-1,1.413952456E0
8.916987499E-2,7.288908067E-1,1.290472016E0,-7.064933395E-1,1.641868652E0
9.922487498E-2,6.468613878E-1,1.369386038E0,-6.463944876E-1,1.646655280E0
1.092798750E-1,6.723040849E-1,1.422695104E0,-1.228865460E0,1.996538118E0
1.193348750E-1,6.060437295E-1,1.289562482E0,-1.042272622E0,1.765387384E0
1.293898750E-1,5.624378264E-2,9.723750061E-1,-7.317316765E-1,1.218239616E0
1.394448750E-1,-3.809858608E-1,6.133717525E-1,-1.028936877E0,1.257014809E0
1.494998750E-1,-4.324662092E-1,5.029108322E-1,-1.396684642E0,1.546180557E0
1.595548750E-1,-2.727644241E-1,7.254811491E-1,-2.117497813E0,2.254888094E0
1.696098750E-1,-1.266673556E-1,8.301729141E-1,-2.836496592E0,2.958199554E0
1.796648750E-1,-1.875745851E-1,7.333950631E-1,-3.351228155E0,3.435663356E0
1.897198750E-1,-2.275142840E-1,4.391732579E-1,-3.635050249E0,3.668545517E0
1.997748750E-1,4.029535577E-1,-1.361445227E-1,-4.092777307E0,4.114818706E0
2.098298750E-1,6.291139188E-1,-5.700181568E-1,-4.098952551E0,4.185942790E0
2.198848750E-1,9.108106957E-1,-7.703625492E-1,-3.659876942E0,3.849380965E0
2.299398750E-1,7.778129983E-1,-7.802621046E-1,-1.507821500E0,1.867438805E0
2.399948750E-1,9.001093409E-1,-8.032607934E-2,-3.148140907E-1,9.569519405E-1
2.500498750E-1,5.826135344E-1,7.153603497E-1,2.795618123E-1,9.640195886E-1
2.601048750E-1,1.796410463E-1,1.288939315E0,1.627664278E0,2.083968921E0
2.701598750E-1,4.300955105E-2,1.591360963E0,3.727140972E0,4.052882846E0
2.802148750E-1,1.150236854E-2,1.399649765E0,5.716004718E0,5.884884171E0
2.902698750E-1,-2.484445386E-3,7.198789318E-1,6.168455248E0,6.210319799E0
3.003248750E-1,4.788069282E-2,-3.469096036E-1,4.974021118E0,4.986333815E0
3.103798750E-1,1.500147487E-1,-1.220428804E0,3.482311621E0,3.693026552E0
3.204348750E-1,3.482627224E-2,-1.535275201E0,3.102173021E0,3.461467935E0
3.304898750E-1,7.708303265E-1,-1.010696634E0,1.577664152E0,2.026008701E0
3.405448750E-1,1.200025165E0,-5.360654220E-1,9.001683247E-1,1.593025281E0
3.505998750E-1,9.199134949E-1,-3.125754842E-1,2.926859463E0,3.083901845E0
3.606548750E-1,9.595039688E-1,-7.002617425E-1,4.124164576E0,4.291823368E0
3.707098750E-1,1.329739577E0,-1.608987687E0,4.394204198E0,4.864779466E0
3.807648750E-1,1.461343153E0,-2.372303391E0,3.748101486E0,4.670290348E0
3.908198750E-1,1.166024190E0,-2.185862727E0,2.904147708E0,3.817287281E0
4.008748750E-1,5.434857579E-1,-1.247317372E0,2.466102378E0,2.816529484E0
4.109298750E-1,-7.764291085E-1,-3.229284181E-1,1.959219532E0,2.132056777E0
4.209848750E-1,-4.021430605E-1,1.353561134E0,-1.031361718E0,1.748586222E0
4.310398750E-1,1.108115486E0,2.336563162E0,-3.036325772E0,3.988323148E0
4.410948750E-1,1.428990508E0,2.069802513E0,-3.399244321E0,4.228588212E0
4.511498750E-1,6.022942024E-1,1.109996609E0,-3.468982308E0,3.691705437E0
4.612048750E-1,-3.057355575E-2,-4.979230841E-1,-2.538597912E0,2.587149299E0
4.712598750E-1,-3.989219756E-1,-2.049397338E0,1.054020263E0,2.338830243E0
4.813148750E-1,5.292794359E-1,-2.698429213E0,3.319803464E0,4.310771622E0
4.913698750E-1,1.169831386E0,-2.213377093E0,3.111524473E0,3.993635959E0
5.014248750E-1,6.832138199E-1,-2.045940318E0,2.285216423E0,3.142430112E0
5.114798750E-1,1.231814210E0,-2.126986674E0,1.320549216E0,2.790213037E0
5.215348750E-1,1.635257472E0,-1.244705128E0,2.320017881E0,3.099329093E0
5.315898750E-1,1.844147644E0,-1.876888251E-1,2.853045967E0,3.402349029E0
5.416448750E-1,8.684186015E-1,8.461274075E-1,4.853698284E0,5.002846139E0
5.516998750E-1,1.358218478E-1,2.410293628E0,4.278270868E0,4.912388886E0
5.617548750E-1,6.412754696E-2,3.033077644E0,1.782400900E0,3.518611275E0
5.718098750E-1,-2.195677352E-1,1.842078753E0,-8.990836662E-1,2.061508079E0
5.818648750E-1,-4.631343802E-1,-9.614774041E-2,-2.287413806E0,2.335808161E0
5.919198750E-1,-9.847043719E-1,-1.411942951E0,-2.707723362E0,3.208580902E0
6.019748750E-1,-1.210274384E0,-1.450122346E0,-2.463673444E0,3.104401028E0
6.120298750E-1,-8.724867287E-1,-5.599046664E-1,-2.134303880E0,2.372757758E0
6.220848750E-1,-4.871397221E-1,3.371884614E-1,-1.389016603E0,1.510088836E0
6.321398750E-1,-2.404593616E-1,3.849577282E-1,-5.318703371E-1,6.992132812E-1
6.421948750E-1,-2.661323659E-1,-2.076900302E-1,3.025770378E-1,4.533370144E-1
6.522498750E-1,-3.288979867E-1,-8.252087742E-1,1.303902193E0,1.577752939E0
6.623048750E-1,-6.341497602E-1,-1.126107661E0,4.366624635E-1,1.364162193E0
6.723598750E-1,-7.693070537E-1,-7.989248089E-1,-4.279869497E-1,1.188817489E0
6.824148750E-1,-3.722503399E-1,-3.563456941E-1,-2.487990260E-2,5.159181900E-1
6.924698750E-1,-3.938433764E-1,-8.430676326E-2,-3.089668751E-3,4.027775832E-1
7.025248750E-1,-3.470473786E-1,-4.182535283E-1,1.482386112E-2,5.436889219E-1
7.125798750E-1,-4.278838194E-1,-4.910015157E-1,1.885709506E-1,6.780310131E-1
7.226348750E-1,-4.761659601E-1,-3.021411279E-1,9.399165273E-2,5.717147134E-1
7.326898750E-1,-4.363438634E-1,1.471103910E-1,-1.241650397E-1,4.769217874E-1
7.427448750E-1,-4.576379244E-1,5.006636010E-1,-2.566179228E-1,7.252235997E-1
7.527998750E-1,-4.166281120E-1,5.517368370E-1,-1.710024065E-1,7.122038641E-1
7.628548750E-1,-5.613486728E-1,1.514032705E-1,5.328333735E-2,5.838444972E-1
7.729098750E-1,-8.272821969E-1,-3.661017734E-1,-2.490270674E-2,9.050118709E-1
7.829648750E-1,-9.618342304E-1,-6.548839138E-1,-2.352264690E-1,1.187151852E0
7.930198750E-1,-7.925453505E-1,-9.245137918E-1,-2.930080694E-1,1.252480584E0
8.030748750E-1,-1.283413257E0,-7.927194513E-1,-2.766516531E-1,1.533652456E0
8.131298750E-1,-1.302739182E0,-5.622996859E-1,-3.866331017E-1,1.470644576E0
8.231848750E-1,-1.178899832E0,-4.940321276E-1,-4.629176313E-1,1.359472431E0
8.332398750E-1,-1.104895571E0,-4.655826460E-1,-3.848602259E-1,1.259237395E0
8.432948750E-1,-9.010071078E-1,-2.240359215E-1,-3.186065948E-1,9.815885414E-1
8.533498750E-1,-7.014799368E-1,1.622366993E-1,-5.111507285E-1,8.829891934E-1
8.634048750E-1,-5.964202723E-1,4.305163090E-1,-8.205081975E-1,1.101950605E0
8.734598750E-1,-7.255931233E-1,5.863216558E-1,-1.164885811E0,1.492386484E0
8.835148750E-1,-8.985786130E-1,5.802328040E-1,-1.413374349E0,1.772495609E0
8.935698750E-1,-1.068063740E0,5.881028639E-1,-1.598164490E0,2.010162896E0
9.036248750E-1,-1.219182470E0,5.305550060E-1,-1.529124661E0,2.026355531E0
9.136798750E-1,-1.260124090E0,2.671370637E-1,-1.199891921E0,1.760402100E0
9.237348750E-1,-1.323554685E0,1.382808030E-2,-7.321976995E-1,1.512647246E0
9.337898750E-1,-1.219252783E0,3.218716800E-2,-3.250929111E-1,1.262259389E0
9.438445833E-1,-8.301923561E-1,3.758581451E-1,-1.066093594E-1,9.175261570E-1
9.538995833E-1,-1.955369579E-1,1.006249388E0,-1.158543921E-1,1.031598165E0
9.639545833E-1,2.068280775E-2,1.298084214E0,-2.751793242E-1,1.327092335E0
9.740095833E-1,-1.982399430E-1,1.146979882E0,-2.942874402E-1,1.200611104E0
9.840645833E-1,-4.790782390E-1,7.580280671E-1,-2.826029491E-1,9.402057947E-1
9.941195833E-1,-7.706019196E-1,4.235179228E-1,-3.135107464E-1,9.335329332E-1
1.004174583E0,-8.901586224E-1,2.904788563E-1,-3.939824671E-1,1.015865406E0
1.014229583E0,-8.244123834E-1,2.544614697E-1,-2.824614465E-1,9.078495945E-1
1.024284583E0,-6.309123762E-1,3.576238954E-1,-1.860426146E-1,7.487036339E-1
1.034339583E0,-4.017670114E-1,5.355999836E-1,-2.261410654E-1,7.066992680E-1
1.044394583E0,-2.399513847E-1,6.044103098E-1,-1.634033650E-1,6.705140933E-1
1.054449583E0,-1.334146405E-1,6.545057452E-1,1.072905600E-2,6.680511578E-1
1.064504583E0,-1.005517536E-1,6.286771318E-1,1.192861229E-1,6.477459150E-1
1.074559583E0,-7.706213616E-2,6.042582822E-1,1.193750006E-1,6.207391040E-1
1.084614583E0,-1.719008312E-3,4.841234359E-1,5.006386042E-3,4.841523728E-1
1.094669583E0,1.948950067E-3,2.856540263E-1,-8.711181879E-3,2.857934671E-1
1.104724583E0,-9.040299721E-2,9.502924114E-2,1.490326631E-1,1.985295778E-1
1.114779583E0,-3.140431353E-1,-1.784318787E-1,3.854630738E-1,5.282450260E-1
1.124834583E0,-4.490683548E-1,-4.321580610E-1,6.122847551E-1,8.736793452E-1
1.134889583E0,-5.495827959E-1,-5.378824443E-1,7.791876787E-1,1.094756691E0
1.144944583E0,-4.794936106E-1,-5.123809826E-1,8.333153540E-1,1.089432363E0
1.154999583E0,-2.464511497E-1,-2.288053492E-1,1.018842244E0,1.072907067E0
1.165054583E0,-1.495306997E-1,-7.365035892E-2,4.472564489E-1,4.773071721E-1
1.175109583E0,-6.192537591E-2,7.427834988E-2,-3.128213596E-1,3.274282036E-1
1.185164583E0,-9.044794768E-2,1.918290192E-1,-6.241622043E-1,6.592098763E-1
1.195219583E0,-1.699056150E-1,1.854818666E-1,-3.594651836E-1,4.387330157E-1
1.205274583E0,-1.284769958E-1,1.467890865E-1,-7.597638130E-2,2.093460887E-1
1.215329583E0,-1.633190189E-1,1.461043775E-2,-1.063947666E-1,1.954646085E-1
1.225384583E0,-1.433221261E-1,-1.452650097E-1,4.801061064E-1,5.216752134E-1
1.235439583E0,-1.086671408E-1,-3.811872974E-1,8.293029946E-1,9.191603560E-1
1.245494583E0,-1.715092870E-1,-5.621361101E-1,8.856070036E-1,1.062879206E0
1.255549583E0,-9.212419823E-2,-6.353795028E-1,1.050375109E0,1.231049085E0
1.265604583E0,6.606695876E-2,-6.163324901E-1,1.171189694E0,1.325109762E0
1.275659583E0,1.949873196E-1,-5.314870521E-1,1.366828174E0,1.479431580E0
1.285714583E0,3.092149432E-1,-4.800336009E-1,1.340754855E0,1.457281620E0
1.295769583E0,3.015755560E-1,-4.549978700E-1,1.168295322E0,1.289528921E0
1.305824583E0,2.727888362E-1,-4.319499001E-1,8.525398296E-1,9.938906511E-1
1.315879583E0,1.589569961E-1,-4.875209606E-1,6.958426362E-1,8.643731763E-1
1.325934583E0,-2.732930124E-2,-6.285596028E-1,5.693322784E-1,8.485124090E-1
1.335989583E0,-1.537006415E-1,-6.508600062E-1,3.171792895E-1,7.401657494E-1
1.346044583E0,-1.239883807E-1,-5.836640963E-1,4.487504125E-2,5.983733493E-1
1.356099583E0,7.062420554E-2,-3.491077182E-1,-2.660711163E-1,4.445872426E-1
1.366154583E0,2.657531009E-1,-1.084638038E-1,-4.863281286E-1,5.647159959E-1
1.376209583E0,4.593270023E-1,1.053881684E-1,-6.381025511E-1,7.932608819E-1
1.386264583E0,4.967757142E-1,2.498781297E-1,-8.368704611E-1,1.004777268E0
1.396319583E0,4.154120739E-1,2.749489439E-1,-1.088336402E0,1.196929504E0
1.406374583E0,3.147945756E-1,1.693368271E-1,-1.390971327E0,1.436165666E0
1.416429583E0,2.667192802E-2,-6.376417905E-2,-1.482976681E0,1.484586508E0
1.426484583E0,-1.859774912E-1,-3.044797218E-1,-1.236613020E0,1.287053725E0
1.436539583E0,-3.405588696E-1,-5.229214659E-1,-8.859256768E-1,1.083647317E0
1.446594583E0,-4.085114823E-1,-5.853247055E-1,-6.748780292E-1,9.823171567E-1
1.456649583E0,-2.701201670E-1,-5.291774020E-1,-5.246770924E-1,7.926409519E-1
1.466704583E0,-2.138873479E-1,-5.678801224E-1,-2.580996072E-1,6.594323606E-1
1.476759583E0,-1.621622204E-1,-5.710788417E-1,2.016003013E-2,5.939983636E-1
1.486814583E0,-1.119088371E-1,-5.389045376E-1,1.769203734E-1,5.781371005E-1
1.496869583E0,-1.332079048E-1,-4.538722810E-1,1.100054222E-1,4.856393583E-1
1.506924583E0,-8.325477608E-2,-3.977311170E-1,6.453396499E-2,4.114438380E-1
1.516979583E0,-1.131606529E-1,-4.587359950E-1,1.353607035E-1,4.914942182E-1
1.527034583E0,-1.824229688E-1,-3.643598878E-1,1.869857705E-1,4.483301750E-1
1.537089583E0,-4.211895615E-2,-2.433131683E-1,3.461949277E-1,4.252366780E-1
1.547144583E0,1.407880159E-1,-1.408915848E-1,6.074315661E-1,6.392533235E-1
1.557199583E0,2.613423999E-1,5.288660377E-2,8.439005685E-1,8.850226056E-1
1.567254583E0,3.290565193E-1,2.504108110E-1,9.095250392E-1,9.991093855E-1
1.577309583E0,4.497342065E-1,3.590599716E-1,6.317624152E-1,8.545809903E-1
1.587364583E0,3.437692834E-1,4.449807125E-1,1.036740571E-1,5.717809588E-1
1.597419583E0,1.074264347E-1,2.615977040E-1,-3.954957265E-1,4.862002337E-1
1.607474583E0,-1.160502007E-1,7.334513426E-2,-7.243355334E-1,7.372307120E-1
1.617529583E0,-1.808998422E-1,6.842996478E-2,-9.317789572E-1,9.516403933E-1
1.627584583E0,-5.336227477E-2,2.190828913E-1,-9.828806984E-1,1.008414257E0
1.637639583E0,1.118838403E-1,4.165617827E-1,-1.005648587E0,1.094244393E0
1.647694583E0,2.744106346E-1,5.343279219E-1,-1.124169894E0,1.274584432E0
1.657749583E0,4.332639887E-1,6.170516977E-1,-1.161650546E0,1.384883559E0
1.667804583E0,4.171916740E-1,5.151733205E-1,-1.240086266E0,1.406153047E0
1.677859583E0,2.867294754E-1,4.009131718E-1,-1.293276048E0,1.384018822E0
1.687914583E0,2.324518921E-1,3.826695666E-1,-1.471780432E0,1.538378211E0
1.697969583E0,1.939389139E-1,3.924309084E-1,-1.714825798E0,1.769814069E0
1.708024583E0,1.879863022E-1,4.464647359E-1,-1.984863081E0,2.043122870E0
1.718079583E0,2.045087063E-1,5.835720026E-1,-2.175058388E0,2.261251663E0
1.728134583E0,2.352684959E-1,7.301812872E-1,-2.301171720E0,2.425676661E0
1.738189583E0,2.178694479E-1,7.720312715E-1,-2.381671507E0,2.513137193E0
1.748244583E0,1.455741081E-1,6.845607260E-1,-2.152261848E0,2.263193821E0
1.758299583E0,5.764294825E-2,5.402491048E-1,-1.778591439E0,1.859725601E0
1.768354583E0,8.015845612E-2,4.155180547E-1,-1.235668695E0,1.306123178E0
1.778409583E0,1.203968015E-1,3.990011322E-1,-7.177702796E-1,8.299948600E-1
1.788464583E0,1.494524201E-1,4.490340024E-1,-2.716885364E-1,5.456942569E-1
1.798519583E0,2.068100242E-1,5.172999528E-1,3.423486292E-2,5.581591647E-1
1.808574583E0,2.570696202E-1,5.479270837E-1,2.671019804E-1,6.615529810E-1
1.818629583E0,1.943657606E-1,5.326909938E-1,3.015976292E-1,6.422607522E-1
1.828684583E0,2.417326659E-1,4.849031621E-1,6.529480469E-1,8.484732821E-1
1.838739583E0,2.032528706E-1,3.674919489E-1,1.232122943E0,1.301725397E0
1.848794583E0,8.304164506E-2,2.411380041E-1,1.513498562E0,1.534835936E0
1.858849583E0,-2.818138674E-3,1.551988444E-1,1.602918277E0,1.610416600E0
1.868904583E0,3.488061480E-2,2.510271075E-1,1.484396970E0,1.505877030E0
1.878959583E0,2.249738880E-1,4.796561632E-1,1.237748550E0,1.346367245E0
1.889014583E0,4.187518573E-1,6.771800780E-1,1.071365443E0,1.334822044E0
1.899069583E0,5.341345252E-1,7.533175501E-1,1.130986578E0,1.460108784E0
1.909124583E0,4.516502660E-1,6.432422537E-1,1.330748515E0,1.545522620E0
1.919179583E0,2.298535357E-1,3.709292346E-1,1.536640087E0,1.597399106E0
1.929234583E0,-1.965388052E-2,8.885136545E-2,1.629948785E0,1.632487024E0
1.939288958E0,-1.965078150E-1,1.584887803E-3,1.380183215E0,1.394103131E0
1.949343958E0,-2.419232120E-1,-8.677268028E-3,1.029390621E0,1.057472074E0
1.959398958E0,-1.350143290E-1,1.295015010E-1,7.145905638E-1,7.386739346E-1
1.969453958E0,2.155305617E-2,1.974212962E-1,5.318978190E-1,5.677631481E-1
1.979508958E0,3.486753166E-2,9.190127313E-2,6.240493530E-1,6.317429729E-1
1.989563958E0,-1.760516234E-2,-2.042584455E-1,9.845769757E-1,1.005695419E0
1.999618958E0,-1.942336866E-1,-6.827793717E-1,1.244038399E0,1.432321868E0
2.009673958E0,-3.697488280E-1,-1.107044861E0,1.112920436E0,1.612716471E0
2.019728958E0,-3.720380860E-1,-1.359406888E0,9.827292556E-1,1.718183987E0
2.029783958E0,-3.352438968E-1,-1.413773422E0,9.646654522E-1,1.744053667E0
2.039838958E0,-2.260214167E-1,-1.366519149E0,9.341885948E-1,1.670679082E0
2.049892958E0,-1.171400486E-1,-1.208669761E0,8.393572819E-1,1.476185974E0
2.059947958E0,-8.467974253E-2,-1.111452200E0,6.073409343E-1,1.269393423E0
2.070002958E0,-1.376373169E-1,-1.092294090E0,3.019233191E-1,1.141581404E0
2.080057958E0,-2.234716652E-1,-9.876216209E-1,-2.211533904E-2,1.012830262E0
2.090112958E0,-2.254461969E-1,-8.904961529E-1,-3.438917094E-1,9.808521264E-1
2.100167958E0,-2.774507482E-1,-8.172951525E-1,-5.457364243E-1,1.021165280E0
2.110222958E0,-3.990156041E-1,-9.321324214E-1,-5.101590407E-1,1.135053545E0
2.120277958E0,-6.432217884E-1,-1.207008860E0,-2.619236863E-1,1.392554729E0
2.130332958E0,-7.796392299E-1,-1.354367173E0,-1.699493229E-2,1.562829676E0
2.140387958E0,-7.851287422E-1,-1.386499377E0,9.851271987E-2,1.596406095E0
2.150442958E0,-7.474637564E-1,-1.325254471E0,7.378192127E-2,1.523300775E0
2.160497958E0,-6.461440806E-1,-1.173812170E0,-1.162426472E-2,1.339952352E0
2.170552958E0,-4.425143204E-1,-9.611024514E-1,-1.537180370E-1,1.069189450E0
2.180607958E0,-2.515861014E-1,-7.279105210E-1,-2.757073277E-1,8.180243417E-1
2.190662958E0,-1.426839025E-1,-6.018123919E-1,-4.175438225E-1,7.462437235E-1
2.200717958E0,-7.954691045E-2,-5.401613966E-1,-4.820865583E-1,7.283608275E-1
2.210772958E0,-1.577553932E-1,-6.086647439E-1,-3.900274104E-1,7.399195331E-1
2.220827958E0,-2.182672779E-1,-7.320944962E-1,-1.556867945E-1,7.796417985E-1
2.230882958E0,-2.687231210E-1,-8.925377083E-1,1.885826451E-1,9.509989960E-1
2.240937958E0,-3.479409794E-1,-9.162528455E-1,4.733981806E-1,1.088433755E0
2.250992958E0,-3.112146179E-1,-8.752492458E-1,6.299936324E-1,1.122411581E0
2.261047958E0,-2.327674956E-1,-8.311895987E-1,6.921752626E-1,1.106419202E0
2.271102958E0,-1.680179876E-1,-6.689393046E-1,6.424277365E-1,9.425620585E-1
2.281157958E0,-2.114052779E-1,-5.546928969E-1,4.429371107E-1,7.406549030E-1
2.291212958E0,-1.966007126E-1,-5.278117847E-1,1.958174050E-1,5.963066128E-1
2.301267958E0,-1.607099182E-1,-4.738680044E-1,1.126781845E-1,5.129083121E-1
2.311322958E0,-3.338296746E-1,-5.102400246E-1,1.866290903E-1,6.376657053E-1
2.321377958E0,-4.654696485E-1,-6.333633828E-1,3.697989678E-1,8.686555388E-1
2.331432958E0,-6.355655904E-1,-8.873623377E-1,6.507565105E-1,1.270763382E0
2.341487958E0,-8.243161236E-1,-1.113901014E0,9.365157866E-1,1.672523351E0
2.351542958E0,-8.795109889E-1,-1.125864417E0,9.872643560E-1,1.736606223E0
2.361597958E0,-8.150644398E-1,-1.016336712E0,8.395888317E-1,1.549896693E0
2.371652958E0,-7.582841751E-1,-7.682057306E-1,5.437396002E-1,1.208630501E0
2.381707958E0,-6.257726736E-1,-4.901250181E-1,2.790355629E-1,8.424219951E-1
2.391762958E0,-3.245442961E-1,-1.530789363E-1,8.709193826E-2,3.692521721E-1
2.401817958E0,-2.121273360E-1,5.736703277E-2,5.069828331E-2,2.255200635E-1
2.411872958E0,-2.241167593E-1,2.616336644E-3,2.367829978E-1,3.260388858E-1
2.421927958E0,-2.782013845E-1,-1.762268937E-1,5.824306262E-1,6.690869620E-1
2.431982958E0,-4.098779766E-1,-3.943832937E-1,8.167852753E-1,9.953272447E-1
2.442037958E0,-4.306907753E-1,-5.561184481E-1,9.247412485E-1,1.161855692E0
2.452092958E0,-3.932351198E-1,-5.372766727E-1,9.315286964E-1,1.145009081E0
2.462147958E0,-3.319788846E-1,-4.081230810E-1,7.645111674E-1,9.280365048E-1
2.472202958E0,-2.365347105E-1,-3.373565689E-1,5.978877407E-1,7.261045891E-1
2.482257958E0,-1.496652588E-1,-2.468416706E-1,4.953761101E-1,5.733480535E-1
2.492312958E0,3.502365232E-2,-1.635460371E-1,3.698246956E-1,4.058870138E-1
2.502367958E0,1.862253401E-1,-2.358079746E-1,3.427228510E-1,4.557896783E-1
2.512422958E0,2.319218420E-1,-4.079073188E-1,4.501952595E-1,6.502706307E-1
2.522477958E0,2.390604153E-1,-7.501340336E-1,9.553648710E-1,1.237971319E0
2.532532958E0,1.948355113E-1,-1.122314572E0,1.468887230E0,1.858811602E0
2.542587958E0,2.515506526E-1,-1.292200453E0,1.743493527E0,2.184680622E0
2.552642958E0,4.048568995E-1,-1.363912168E0,1.818444307E0,2.308875312E0
2.562697958E0,5.661975130E-1,-1.327663524E0,1.661678116E0,2.201009818E0
2.572752958E0,6.342557410E-1,-1.300932392E0,1.227612986E0,1.897824828E0
2.582807958E0,7.125503241E-1,-1.252205498E0,5.978047103E-1,1.559845199E0
2.592862958E0,7.139730247E-1,-1.138685899E0,-2.306609631E-2,1.344207983E0
2.602917958E0,6.262246634E-1,-1.095746286E0,-5.605836743E-1,1.380967526E0
2.612972958E0,4.307884238E-1,-1.126234838E0,-9.961673266E-1,1.564075740E0
2.623027958E0,2.125815184E-1,-1.229840483E0,-1.373499262E0,1.855855258E0
2.633082958E0,2.631334752E-2,-1.227934875E0,-1.735127331E0,2.125837083E0
2.643137958E0,-8.936942875E-2,-1.146667641E0,-1.903904287E0,2.224339252E0
2.653192958E0,-1.434661869E-1,-1.103462564E0,-1.928943234E0,2.226888901E0
2.663247958E0,-2.164369532E-1,-1.043304948E0,-1.859154961E0,2.142845617E0
2.673302958E0,-2.642705394E-1,-1.007394273E0,-1.770803533E0,2.054367857E0
2.683357958E0,-3.069730476E-1,-1.054484532E0,-1.558123927E0,1.906284410E0
2.693412958E0,-3.818735413E-1,-1.087445579E0,-1.240578017E0,1.693339631E0
2.703467958E0,-4.277244097E-1,-1.227313024E0,-8.780366135E-1,1.568500470E0
2.713522958E0,-4.208262301E-1,-1.301138507E0,-4.685508388E-1,1.445543503E0
2.723577958E0,-3.529448073E-1,-1.271646905E0,-1.146861184E-1,1.324691962E0
2.733632958E0,-1.842407951E-1,-1.165601217E0,1.691330516E-1,1.192131225E0
2.743687958E0,3.629322901E-2,-9.496930718E-1,1.749849451E-1,9.663611438E-1
2.753742958E0,2.597066414E-1,-8.169305786E-1,1.373201054E-1,8.681474076E-1
2.763797958E0,4.527025455E-1,-7.658314687E-1,2.074510252E-1,9.134951347E-1
2.773852958E0,6.931832495E-1,-6.264917350E-1,4.517488647E-1,1.037820769E0
2.783907958E0,7.798220285E-1,-6.776700747E-1,8.761391920E-1,1.354613971E0
2.793962958E0,7.227355890E-1,-8.822892934E-1,1.258905530E0,1.698712531E0
2.804017958E0,6.564240704E-1,-1.011641398E0,1.524335791E0,1.943684770E0
2.814072958E0,6.813197605E-1,-1.128674881E0,1.642920249E0,2.106487728E0
2.824127958E0,7.228054632E-1,-1.076309264E0,1.489525563E0,1.974734355E0
2.834182958E0,8.752456643E-1,-8.348827001E-1,1.137681055E0,1.660542766E0
2.844236958E0,1.024142014E0,-5.988317737E-1,7.984636098E-1,1.430038634E0
2.854291958E0,1.049169194E0,-4.154253763E-1,5.052894795E-1,1.236386549E0
2.864346958E0,1.084330767E0,-2.946525988E-1,2.592567712E-1,1.153172771E0
2.874401958E0,1.060333063E0,-1.935825992E-1,2.240711510E-2,1.078092068E0
2.884456958E0,9.965449836E-1,-1.776261324E-1,-1.522153026E-1,1.023631987E0
2.894511958E0,9.255116192E-1,-2.337026846E-1,-2.877853364E-1,9.970000511E-1
2.904566958E0,8.762996981E-1,-2.837738541E-1,-2.937237686E-1,9.668000896E-1
2.914621958E0,8.275415209E-1,-2.359152710E-1,-3.605071574E-1,9.329771672E-1
2.924676958E0,8.205604570E-1,-1.437280691E-1,-5.033628219E-1,9.733197584E-1
2.934731958E0,9.012271093E-1,1.273757458E-2,-6.473832518E-1,1.109719615E0
2.944787333E0,9.422100976E-1,1.178386447E-1,-7.782240576E-1,1.227712710E0
2.954842333E0,8.158248702E-1,7.135181844E-2,-8.144919974E-1,1.155014508E0
2.964897333E0,7.395562012E-1,1.344947308E-2,-8.492221195E-1,1.126189358E0
2.974952333E0,7.656434807E-1,-3.755345017E-2,-9.546941954E-1,1.224361551E0
2.985007333E0,7.597440787E-1,3.526017219E-2,-1.023620004E0,1.275245960E0
2.995062333E0,7.498124367E-1,9.917257816E-2,-8.622327590E-1,1.146952144E0
3.005117333E0,8.478066547E-1,4.613540858E-2,-5.764208579E-1,1.026238571E0
3.015172333E0,8.403927507E-1,1.097244635E-1,-4.930097419E-1,9.804886736E-1
3.025227333E0,8.674603891E-1,2.649809030E-1,-5.719518310E-1,1.072301871E0
3.035282333E0,8.696145033E-1,3.415653947E-1,-6.994714183E-1,1.167114634E0
3.045337333E0,7.928220700E-1,4.926036528E-1,-8.710819352E-1,1.276718031E0
3.055392333E0,7.521681337E-1,7.620641077E-1,-1.103308783E0,1.537461829E0
3.065447333E0,7.551103064E-1,1.047194223E0,-1.174978105E0,1.745674902E0
3.075502333E0,7.649103130E-1,1.145539713E0,-9.921169603E-1,1.697540893E0
3.085557333E0,7.842175998E-1,1.061078437E0,-6.913391107E-1,1.489575261E0
3.095612333E0,7.255611098E-1,8.658255807E-1,-3.871792316E-1,1.194152678E0
3.105667333E0,5.411975232E-1,6.101417506E-1,8.781582355E-2,8.202922246E-1
3.115722333E0,3.743577495E-1,3.281773174E-1,6.649418557E-1,8.306574190E-1
3.125777333E0,2.193925014E-1,1.677098393E-2,1.077321417E0,1.099561627E0
3.135832333E0,1.373237599E-1,-1.123410925E-1,1.290003946E0,1.302147656E0
3.145887333E0,-2.038726754E-2,-2.059865901E-1,1.195468503E0,1.213256385E0
3.155942333E0,-2.207437199E-1,-2.548409539E-1,7.768236494E-1,8.468333271E-1
3.165997333E0,-3.465891031E-1,-2.756374535E-1,2.962222838E-1,5.327735482E-1
3.176052333E0,-4.859687441E-1,-2.698025170E-1,-7.046304166E-2,5.602892634E-1
3.186107333E0,-6.063281965E-1,-2.420127475E-1,-2.734625816E-1,7.078035288E-1
3.196162333E0,-6.967459580E-1,-1.454217151E-1,-2.897225189E-1,7.684670085E-1
3.206217333E0,-7.159144465E-1,-1.240516037E-2,-2.398486930E-1,7.551256705E-1
3.216272333E0,-8.040120327E-1,-2.905598402E-2,-2.747448760E-1,8.501554834E-1
3.226327333E0,-9.420002557E-1,1.093429327E-3,-3.867313349E-1,1.018296029E0
3.236382333E0,-1.032857728E0,6.786570847E-3,-5.159308273E-1,1.154567348E0
3.246437333E0,-1.031995044E0,9.448574245E-2,-5.351658279E-1,1.166337768E0
3.256492333E0,-1.016069421E0,2.877324191E-1,-5.478577942E-1,1.189678602E0
3.266547333E0,-8.866264656E-1,4.453686753E-1,-4.092010152E-1,1.073268474E0
3.276602333E0,-7.941308961E-1,5.123552549E-1,-9.399866939E-2,9.497302444E-1
3.286657333E0,-8.109466843E-1,4.963631201E-1,1.530730891E-1,9.630380275E-1
3.296712333E0,-8.914964654E-1,3.562410289E-1,4.953445351E-1,1.080296176E0
3.306767333E0,-9.639619591E-1,4.944756389E-2,8.962062514E-1,1.317138324E0
3.316822333E0,-1.089129065E0,-2.713029125E-1,1.178406327E0,1.627405562E0
3.326877333E0,-1.118525796E0,-3.310798752E-1,1.217713650E0,1.686280040E0
3.336932333E0,-9.497199690E-1,-1.674107543E-1,1.061821618E0,1.434384721E0
3.346987333E0,-7.216525385E-1,1.529719323E-2,8.170326126E-1,1.090210384E0
3.357042333E0,-5.413500624E-1,2.018374059E-1,4.899399537E-1,7.575218721E-1
3.367097333E0,-4.012352072E-1,2.597227943E-1,3.334415656E-1,5.827768862E-1
3.377152333E0,-4.200153675E-1,9.172117889E-2,4.155306262E-1,5.979058328E-1
3.387207333E0,-4.650760578E-1,-6.839926690E-2,6.857871795E-1,8.314314493E-1
3.397262333E0,-4.741525445E-1,-1.850640830E-1,7.929993868E-1,9.422936791E-1
3.407317333E0,-4.359307576E-1,-2.190361136E-1,7.248085731E-1,8.737047054E-1
3.417372333E0,-3.200404052E-1,-1.622792378E-1,5.073500383E-1,6.214213332E-1
3.427427333E0,-2.599056660E-1,-7.985834777E-2,2.652636158E-1,3.798593119E-1
3.437481333E0,-2.111729973E-1,-1.304981589E-2,1.147229558E-1,2.406775625E-1
3.447536333E0,-6.462145396E-2,1.357252774E-1,-4.064107239E-2,1.557208399E-1
3.457591333E0,2.882092595E-3,2.358991912E-1,-2.220883602E-1,3.240061336E-1
3.467646333E0,-3.376021519E-2,1.780091250E-1,-4.281606120E-1,4.649177458E-1
3.477701333E0,-2.186897392E-1,2.113768458E-4,-6.089582741E-1,6.470358772E-1
3.487756333E0,-4.109711136E-1,-2.020911750E-1,-7.538171947E-1,8.820308738E-1
3.497811333E0,-4.178502897E-1,-2.903952411E-1,-7.765862525E-1,9.284473427E-1
3.507866333E0,-4.009247200E-1,-2.768694618E-1,-7.280549473E-1,8.760487065E-1
3.517921333E0,-3.629258582E-1,-2.646633992E-1,-6.557465243E-1,7.948367113E-1
3.527976333E0,-2.754887880E-1,-2.233516511E-1,-7.013781953E-1,7.859461847E-1
3.538031333E0,-9.911666416E-2,-6.660694912E-2,-8.509628356E-1,8.593010801E-1
3.548086333E0,1.890916452E-3,1.226617205E-1,-1.054691523E0,1.061802092E0
3.558141333E0,2.377931044E-2,1.539852548E-1,-1.295083423E0,1.304422472E0
3.568196333E0,7.166676410E-2,1.578945570E-1,-1.452050173E0,1.462366753E0
3.578251333E0,7.299554385E-2,7.773259252E-2,-1.442806894E0,1.446742009E0
3.588306333E0,-9.745919779E-3,-1.583469853E-1,-1.132644264E0,1.143700913E0
3.598361333E0,-3.886797734E-2,-3.155439694E-1,-7.962264651E-1,8.573536610E-1
3.608416333E0,6.118899219E-2,-3.720913687E-1,-5.962160218E-1,7.054570321E-1
3.618471333E0,1.779658556E-1,-3.024081995E-1,-5.636148709E-1,6.639158739E-1
3.628526333E0,2.753168799E-1,-1.811354850E-1,-7.235473287E-1,7.950661514E-1
3.638581333E0,3.641996010E-1,-1.416261412E-1,-1.016205150E0,1.088748006E0
3.648636333E0,3.992797521E-1,-7.616495401E-2,-1.282303748E0,1.345187096E0
3.658691333E0,2.930172057E-1,-1.155417122E-1,-1.526452484E0,1.558610328E0
3.668746333E0,2.982155997E-1,-1.268420412E-1,-1.785439698E0,1.814611904E0
3.678801333E0,4.500365075E-1,4.500923485E-2,-1.971816773E0,2.023022510E0
3.688856333E0,5.073376130E-1,1.955289911E-1,-2.082891067E0,2.152686284E0
3.698911333E0,3.167303695E-1,5.985882372E-2,-2.222080527E0,2.245338076E0
3.708966333E0,2.329194501E-2,-3.092452025E-1,-2.309533238E0,2.330261550E0
3.719021333E0,-4.350034257E-1,-7.311399382E-1,-2.333592777E0,2.483837522E0
3.729076333E0,-6.445739570E-1,-9.203710395E-1,-2.363826975E0,2.617295628E0
3.739131333E0,-5.245158189E-1,-8.463104984E-1,-2.408587410E0,2.606271593E0
3.749186333E0,-1.832145356E-1,-5.788154389E-1,-2.512215275E0,2.584534864E0
3.759241333E0,-5.720568616E-2,-5.077556889E-1,-2.689771825E0,2.737875235E0
3.769296333E0,-1.987270526E-1,-7.117404847E-1,-2.866289910E0,2.960014326E0
3.779351333E0,-3.982928883E-1,-9.968466268E-1,-2.982566471E0,3.169864852E0
3.789406333E0,-5.636856222E-1,-1.225037434E0,-3.057240677E0,3.341433638E0
3.799461333E0,-5.490039581E-1,-1.225562367E0,-2.938660313E0,3.230964701E0
3.809516333E0,-4.327899988E-1,-9.751996498E-1,-2.835155241E0,3.029261755E0
3.819571333E0,-2.841713186E-1,-6.453994377E-1,-3.011448793E0,3.092914096E0
3.829626333E0,-2.126136050E-1,-4.096763939E-1,-3.225841048E0,3.258694487E0
3.839681333E0,-6.129398625E-2,-1.239726663E-1,-3.506279942E0,3.509006299E0
3.849736333E0,5.840575408E-2,1.710101540E-1,-3.667199410E0,3.671649114E0
3.859791333E0,1.135927256E-1,3.547078890E-1,-3.437481018E0,3.457599853E0
3.869846333E0,4.889489237E-2,4.291474758E-1,-3.207369694E0,3.236321773E0
3.879901333E0,-1.516842658E-1,4.116340417E-1,-2.968398668E0,3.000640157E0
3.889956333E0,-1.812837119E-1,3.141073085E-1,-2.536135649E0,2.561935053E0
3.900011333E0,-1.484773969E-1,1.166412811E-1,-1.843211358E0,1.852856939E0
3.910066333E0,-1.815726375E-1,-1.706797864E-1,-1.033052148E0,1.062683844E0
3.920121333E0,-2.906054119E-1,-3.061732216E-1,-3.896923649E-1,5.745029907E-1
3.930176333E0,-3.784214182E-1,-3.819965521E-1,4.310859740E-2,5.394279254E-1
3.940231333E0,-2.688136066E-1,-2.047947814E-1,3.408698684E-1,4.799936716E-1
3.950285333E0,2.737108325E-1,3.287639393E-1,4.395849019E-1,6.133826160E-1
3.960340333E0,8.818870781E-1,9.514603928E-1,4.203165722E-1,1.363696344E0
3.970395333E0,1.408150739E0,1.540743809E0,7.172685885E-1,2.207091801E0
3.980450333E0,1.691419102E0,1.879500640E0,1.467843502E0,2.923693859E0
3.990505333E0,1.460152367E0,1.659650594E0,2.445045969E0,3.296169720E0
4.000560333E0,9.382759447E-1,9.380964352E-1,3.941785827E0,4.159093913E0
4.010615333E0,7.486638243E-1,3.225524421E-1,6.300459065E0,6.352977415E0
4.020670333E0,8.905669042E-1,-2.298907386E-1,9.875446715E0,9.918185670E0
4.030725333E0,1.157773988E0,-7.780329998E-1,1.403665282E1,1.410579308E1
4.040780333E0,1.574852519E0,-1.075756410E0,1.801378039E1,1.811446097E1
4.050835333E0,2.068256071E0,-1.345984020E0,2.084261069E1,2.098818183E1
4.060890333E0,2.393987790E0,-1.550326080E0,2.219084297E1,2.237338151E1
4.070945333E0,2.274633109E0,-1.534380577E0,2.201798524E1,2.218828415E1
4.081000333E0,2.409740189E0,-1.201495959E0,2.082492637E1,2.099828562E1
4.091055333E0,2.846130757E0,-4.999223202E-1,1.922159061E1,1.943759059E1
4.101110333E0,3.008893267E0,2.509988947E-1,1.739412171E1,1.765423204E1
4.111165333E0,2.705772731E0,7.428453331E-1,1.554179162E1,1.579304631E1
4.121220333E0,2.137194451E0,1.131154101E0,1.339504954E1,1.361155619E1
4.131275333E0,1.664169323E0,1.613014810E0,1.124275495E1,1.147914697E1
4.141330333E0,1.251102421E0,2.133371395E0,9.395764532E0,9.715807837E0
4.151385333E0,9.370549730E-1,2.605507600E0,8.077299848E0,8.538706853E0
4.161440333E0,8.933262784E-1,2.841213541E0,7.472550400E0,8.044223748E0
4.171495333E0,1.069120113E0,2.995639091E0,7.267318393E0,7.932892789E0
4.181550333E0,1.326119274E0,2.917500409E0,7.336548842E0,8.005957149E0
4.191605333E0,9.479383224E-1,2.201503737E0,7.015360701E0,7.413534348E0
4.201660333E0,2.547096840E-1,1.050470418E0,6.566968723E0,6.655331947E0
4.211715333E0,-1.334315608E-1,-4.409970045E-3,5.980859613E0,5.982349467E0
4.221770333E0,-3.462101305E-1,-7.266777818E-1,4.849858418E0,4.916202673E0
4.231825333E0,-6.515479311E-1,-1.360618139E0,3.488099195E0,3.800346355E0
4.241880333E0,-8.924485382E-1,-1.617636449E0,1.229132677E0,2.219004104E0
4.251935333E0,-1.086151736E0,-1.676337525E0,-1.978608899E0,2.811534504E0
4.261990333E0,-1.106189998E0,-1.662883958E0,-5.068295776E0,5.447610618E0
4.272045333E0,-1.150931430E0,-1.675048360E0,-7.619671608E0,7.886052598E0
4.282100333E0,-1.339751034E0,-1.694843816E0,-9.967576615E0,1.019902015E1
4.292155333E0,-1.657476015E0,-1.594686713E0,-1.205701949E1,1.227444383E1
4.302210333E0,-2.229159751E0,-1.466866140E0,-1.390169089E1,1.415548866E1
4.312265333E0,-2.853854344E0,-1.183956651E0,-1.534907207E1,1.565695536E1
4.322320333E0,-3.232914425E0,-8.132588196E-1,-1.624965320E1,1.658807870E1
4.332375333E0,-3.348041715E0,-3.377258205E-1,-1.694480996E1,1.727570626E1
4.342430333E0,-2.899599159E0,3.249781595E-1,-1.739615303E1,1.763914472E1
4.352485333E0,-2.061892253E0,1.086055403E0,-1.709582015E1,1.725392659E1
4.362540333E0,-1.409099742E0,1.384360027E0,-1.574827551E1,1.587167907E1
4.372595333E0,-1.183950730E0,9.861000292E-1,-1.352674521E1,1.361421935E1
4.382650333E0,-1.388621331E0,1.062659816E-1,-1.092510846E1,1.101351700E1
4.392705333E0,-1.653198192E0,-8.907048985E-1,-8.627593008E0,8.829596853E0
4.402760333E0,-1.784160912E0,-1.651994835E0,-6.728402746E0,7.154279880E0
4.412814333E0,-1.762267767E0,-2.137240205E0,-5.193961796E0,5.886477938E0
4.422869333E0,-1.747185167E0,-2.458952987E0,-4.287174423E0,5.242038758E0
4.432924333E0,-1.546223966E0,-2.508907797E0,-4.264139902E0,5.183465635E0
4.442979333E0,-1.127917594E0,-2.221853801E0,-4.954915341E0,5.546171513E0
4.453034333E0,-5.929195809E-1,-1.721776530E0,-5.857628959E0,6.134157242E0
4.463089333E0,-5.061405417E-1,-1.523904121E0,-6.905509061E0,7.089747344E0
4.473144333E0,-6.553511795E-1,-1.624727076E0,-7.618509766E0,7.817347012E0
4.483199333E0,-7.645749021E-1,-1.798925132E0,-8.028904783E0,8.263414453E0
4.493254333E0,-7.910932676E-1,-1.932493517E0,-8.243948418E0,8.504295695E0
4.503309333E0,-6.629797494E-1,-1.999387126E0,-8.341518567E0,8.603372770E0
4.513364333E0,-3.442922437E-1,-2.010227425E0,-8.381479023E0,8.626050201E0
4.523419333E0,-1.698462658E-2,-2.001929057E0,-8.473306621E0,8.706602869E0
4.533474333E0,1.677577865E-1,-1.910604612E0,-8.732702556E0,8.940841492E0
4.543529333E0,2.767960793E-1,-1.802767045E0,-9.069137896E0,9.250721446E0
4.553584333E0,5.263082463E-1,-1.719430773E0,-9.258630368E0,9.431631823E0
4.563639333E0,7.910880051E-1,-1.617348036E0,-9.300694068E0,9.473359755E0
4.573694333E0,8.868052442E-1,-1.574570975E0,-9.188337480E0,9.364360253E0
4.583749333E0,9.136913996E-1,-1.616729693E0,-8.944049581E0,9.134805405E0
4.593804333E0,9.452189286E-1,-1.825236140E0,-8.495868103E0,8.740978241E0
4.603859333E0,9.954323316E-1,-1.972961658E0,-7.771793940E0,8.079866600E0
4.613914333E0,9.721779549E-1,-1.683653999E0,-7.015086467E0,7.279509523E0
4.623969333E0,9.467044137E-1,-1.121017952E0,-6.294280897E0,6.463041274E0
4.634024333E0,8.866603795E-1,-5.046904323E-1,-5.081365473E0,5.182774752E0
4.644079333E0,7.494472781E-1,5.425789279E-1,-3.784181145E0,3.895650146E0
4.654134333E0,3.318511230E-1,1.619755919E0,-2.121591448E0,2.689774094E0
4.664189333E0,-4.115287552E-1,2.794870556E0,7.302271879E-1,2.917856934E0
4.674244333E0,-9.313763765E-1,3.806687956E0,3.860139400E0,5.500819151E0
4.684299333E0,-1.060672275E0,3.692495342E0,7.004976631E0,7.989320692E0
4.694354333E0,-1.406821083E0,3.610498083E0,1.071598513E1,1.139505065E1
4.704409333E0,-1.626042261E0,4.663820481E0,1.369012109E1,1.455385345E1
4.714464333E0,-9.878169179E-2,6.027566003E0,1.314246152E1,1.445910109E1
4.724519333E0,2.124957106E0,6.782743260E0,1.161348947E1,1.361595338E1
4.734574333E0,3.150897577E0,6.153779322E0,1.135112022E1,1.329078951E1
4.744629333E0,3.795212795E0,3.988708563E0,1.344892812E1,1.453227800E1
4.754684333E0,3.524445487E0,6.787611651E-1,1.906274865E1,1.939770138E1
4.764739333E0,2.266765095E0,-1.930512919E0,2.416963898E1,2.435234183E1
4.774793333E0,1.184071402E0,-2.232141977E0,2.460445664E1,2.473385877E1
4.784848333E0,7.100335363E-1,-9.894186164E-1,2.043890957E1,2.047515864E1
4.794903333E0,5.221800390E-1,6.895102479E-1,1.471152442E1,1.473692800E1
4.804958333E0,5.963019758E-1,2.228337779E0,9.620391169E0,9.893077961E0
4.815013333E0,1.030968785E0,3.751940768E0,5.506835196E0,6.742788002E0
4.825068333E0,1.375537309E0,4.489026447E0,2.350049765E0,5.250351915E0
4.835123333E0,1.163540293E0,4.060569674E0,7.260815120E-1,4.285935890E0
4.845178333E0,6.359911946E-1,3.091572019E0,1.953601527E-1,3.162351647E0
4.855233333E0,1.356049709E-1,2.030949811E0,-7.596234798E-2,2.036888834E0
4.865288333E0,-3.788785974E-1,9.658612078E-1,-1.462423718E-1,1.047770822E0
4.875343333E0,-8.925910641E-1,3.242193371E-2,-2.304446161E-2,8.934769369E-1
4.885398333E0,-1.343826982E0,-7.232606690E-1,1.548611677E-1,1.533935766E0
4.895453333E0,-1.464342482E0,-1.075225775E0,-2.205306619E-1,1.830039110E0
4.905508333E0,-1.130191941E0,-8.832191469E-1,-1.180114299E0,1.857439002E0
4.915563333E0,-5.291446576E-1,-4.304796177E-1,-2.485645527E0,2.577545432E0
4.925618333E0,-1.996654576E-1,-1.317288516E-1,-3.829612257E0,3.837075556E0
4.935673333E0,-2.148836403E-1,-1.789975968E-1,-4.724406990E0,4.732677522E0
4.945728208E0,-4.340633031E-1,-5.085732758E-1,-5.002550853E0,5.047036037E0
4.955783208E0,-5.573247287E-1,-8.649870899E-1,-4.936726407E0,5.042824718E0
4.965838208E0,-5.158319362E-1,-1.054921611E0,-4.371432801E0,4.526407729E0
4.975893208E0,-4.579499099E-1,-1.270245620E0,-3.652358592E0,3.893965246E0
4.985948208E0,-5.036977212E-1,-1.444701977E0,-3.100132343E0,3.457122465E0
4.996003208E0,-5.437888630E-1,-1.536603250E0,-3.039278616E0,3.448778099E0
5.006058208E0,-4.822824401E-1,-1.469756419E0,-3.550905892E0,3.873204479E0
5.016113208E0,-2.697699188E-1,-1.215791962E0,-4.105875070E0,4.290586906E0
5.026168208E0,-1.968713656E-1,-1.045727157E0,-4.231094363E0,4.362850344E0
5.036223208E0,-2.030331615E-1,-1.201669182E0,-4.215209817E0,4.387849711E0
5.046278208E0,-3.904366424E-1,-1.457215603E0,-3.992792843E0,4.268291552E0
5.056333208E0,-7.240181027E-1,-1.789747634E0,-3.573489593E0,4.061677816E0
5.066388208E0,-8.872070941E-1,-1.869173873E0,-3.158709750E0,3.776028956E0
5.076443208E0,-8.494088649E-1,-1.926622182E0,-2.628920437E0,3.368173261E0
5.086498208E0,-6.974841689E-1,-1.821562335E0,-2.304157308E0,3.018892911E0
5.096553208E0,-2.844947427E-1,-1.409333046E0,-2.125188655E0,2.565849511E0
5.106608208E0,4.855937183E-1,-7.740377435E-1,-1.921165853E0,2.127396042E0
5.116662208E0,1.043512159E0,-3.648177248E-1,-1.369010355E0,1.759601929E0
5.126717208E0,9.920258899E-1,-6.039132965E-1,-1.677431685E-1,1.173441267E0
5.136772208E0,5.168131721E-1,-1.214352670E0,1.257179432E0,1.822703593E0
5.146827208E0,-3.387606315E-2,-1.495669817E0,2.112446988E0,2.588553276E0
5.156882208E0,-2.555755104E-1,-1.378801225E0,2.166618517E0,2.580823020E0
5.166937208E0,-1.363363114E-1,-1.145146780E0,1.936970292E0,2.254285396E0
5.176992208E0,-1.278917626E-2,-8.426361081E-1,1.764134198E0,1.955087886E0
5.187047208E0,9.622960143E-2,-4.958634755E-1,1.638869882E0,1.714944668E0
5.197102208E0,2.098935534E-1,-3.268251488E-1,1.537571549E0,1.585873970E0
5.207157208E0,2.415337144E-1,-2.856373617E-1,1.517330827E0,1.562760403E0
5.217212208E0,6.221305892E-2,-5.867312533E-1,1.743877689E0,1.840987079E0
5.227267208E0,-9.255177587E-2,-9.935565448E-1,2.130893199E0,2.352961169E0
5.237322208E0,-1.535327534E-1,-1.212636220E0,2.403127865E0,2.696123596E0
5.247377208E0,-6.044939250E-2,-1.292908551E0,2.550106401E0,2.859774346E0
5.257432208E0,-1.637841649E-2,-1.312608990E0,2.451155725E0,2.780535021E0
5.267487208E0,-2.421441637E-2,-1.279943227E0,2.052563313E0,2.419061214E0
5.277542208E0,-2.396788314E-2,-1.045030169E0,1.454272115E0,1.790968983E0
5.287597208E0,1.591807251E-1,-6.213993949E-1,7.898301959E-1,1.017500589E0
5.297652208E0,3.402423160E-1,-1.361942241E-1,1.665275323E-1,4.025482819E-1
5.307707208E0,3.095296696E-1,3.019706815E-2,-2.933840454E-1,4.275449419E-1
5.317762208E0,1.410238049E-1,5.320147634E-2,-5.180937123E-1,5.395731696E-1
5.327817208E0,9.151111767E-3,6.515786290E-2,-6.673982710E-1,6.706338360E-1
5.337872208E0,-3.093374424E-2,2.628908157E-2,-6.826799691E-1,6.838859207E-1
5.347927208E0,-1.235026963E-2,-7.981478602E-2,-4.806914127E-1,4.874291369E-1
5.357982208E0,-2.766770884E-2,-2.286243778E-1,-2.030521649E-1,3.070257154E-1
5.368037208E0,2.880374976E-2,-2.149831161E-1,-2.059272408E-1,2.990876539E-1
5.378092208E0,9.574062802E-2,-1.642167127E-1,-3.628670937E-1,4.096412141E-1
5.388147208E0,1.339475776E-1,-9.176620245E-2,-5.311300796E-1,5.553936901E-1
5.398202208E0,6.886185475E-2,-6.423137158E-2,-7.118488044E-1,7.180503773E-1
5.408256208E0,-5.320615411E-2,-7.505836844E-2,-8.142879295E-1,8.194690267E-1
5.418311208E0,-1.641702273E-1,-8.986673445E-2,-9.279309046E-1,9.466169538E-1
5.428366208E0,-1.966592579E-1,-4.834477901E-3,-9.750156087E-1,9.946625926E-1
5.438421208E0,-2.198768701E-1,1.277765724E-1,-9.484569705E-1,9.819589173E-1
5.448476208E0,-1.760959160E-1,2.118665501E-1,-8.776682389E-1,9.198906154E-1
5.458531208E0,-7.276509047E-2,2.811934778E-1,-7.069225252E-1,7.642669605E-1
5.468586208E0,3.859147713E-2,3.878025448E-1,-4.999673438E-1,6.339143955E-1
5.478641208E0,1.130435624E-1,4.309070492E-1,-2.574184066E-1,5.145133313E-1
5.488696208E0,1.512837680E-1,3.467904666E-1,8.162186801E-2,3.870562434E-1
5.498751208E0,1.488541038E-1,2.349247527E-1,5.333707327E-1,6.015243321E-1
5.508806208E0,9.503552690E-2,7.386115104E-2,8.752884221E-1,8.835253493E-1
5.518861208E0,2.858345591E-2,-8.253812671E-2,1.020043847E0,1.023776834E0
5.528916208E0,-3.889253564E-2,-1.514493173E-1,9.601853156E-1,9.728336782E-1
5.538971208E0,-1.145267817E-1,-2.499167213E-1,7.842168689E-1,8.310059258E-1
5.549026208E0,-1.652954509E-1,-3.237232009E-1,7.009501791E-1,7.895887857E-1
5.559081208E0,-1.331739179E-1,-3.039856321E-1,7.494142413E-1,8.196122632E-1
5.569136208E0,2.205401637E-2,-1.475009850E-1,8.015994716E-1,8.153555255E-1
5.579191208E0,1.496104411E-1,2.108359784E-2,8.018818921E-1,8.159916489E-1
5.589246208E0,2.467166863E-1,1.591764128E-1,7.045017779E-1,7.632358802E-1
5.599301208E0,2.225261705E-1,1.974268511E-1,4.372980559E-1,5.288902039E-1
5.609356208E0,1.751615310E-1,1.931347024E-1,1.677279657E-1,3.100245889E-1
5.619411208E0,7.345571972E-2,1.489554799E-1,-4.249639392E-2,1.714334309E-1
5.629466208E0,-8.471716471E-2,6.926904023E-3,-1.670754164E-1,1.874544605E-1
5.639521208E0,-1.428514253E-1,-7.837286264E-2,-1.954139471E-1,2.544316136E-1
5.649576208E0,-3.969236165E-2,-1.852836460E-2,-1.838879156E-1,1.890331965E-1
5.659631208E0,5.092033133E-2,3.911787271E-3,2.023721337E-3,5.111044580E-2
5.669686208E0,1.800342350E-1,3.166559637E-3,1.390345091E-1,2.274927419E-1
5.679741208E0,2.729001526E-1,6.859310210E-2,1.862642241E-1,3.374520234E-1
5.689795208E0,2.378633440E-1,9.876034945E-2,2.688549757E-1,3.723111266E-1
5.699850208E0,2.275313140E-1,1.055969140E-1,2.568839711E-1,3.590411978E-1
5.709905208E0,3.394525764E-1,1.697978801E-1,2.855078459E-1,4.749464199E-1
5.719960208E0,3.482485429E-1,2.100644383E-1,3.345192075E-1,5.265996734E-1
5.730015208E0,2.978161617E-1,1.742394251E-1,3.679278588E-1,5.044053457E-1
5.740070208E0,2.242533649E-1,8.866542399E-2,3.142662066E-1,3.961241948E-1
5.750125208E0,1.087673474E-1,4.061008215E-2,2.393101645E-1,2.659865964E-1
5.760180208E0,-1.375630572E-3,1.243790478E-1,-3.723506927E-3,1.244423737E-1
5.770235208E0,-1.546617776E-2,1.992921129E-1,-3.302285206E-1,3.860147986E-1
5.780290208E0,-1.176503643E-2,2.605069059E-1,-4.837612009E-1,5.495699806E-1
5.790345208E0,-9.446323067E-3,3.401179165E-1,-5.739287746E-1,6.672058666E-1
5.800400208E0,1.257692233E-2,4.132086968E-1,-6.661311793E-1,7.839836441E-1
5.810455208E0,8.763909146E-2,4.349138537E-1,-7.064056313E-1,8.341699985E-1
5.820510208E0,1.141232508E-1,4.586643666E-1,-6.511447656E-1,8.046033951E-1
5.830565208E0,1.171066464E-1,3.925478527E-1,-6.041296434E-1,7.299180840E-1
5.840620208E0,8.449584760E-2,3.418247187E-1,-6.285324132E-1,7.204420040E-1
5.850675208E0,7.433784530E-2,2.954305708E-1,-6.204673487E-1,6.912199854E-1
5.860730208E0,6.689353578E-2,2.527640229E-1,-5.544131076E-1,6.129749508E-1
5.870785208E0,1.669124253E-2,1.786447173E-1,-5.092901444E-1,5.399712806E-1
5.880840208E0,7.170148194E-4,1.673467273E-1,-5.322030437E-1,5.578938259E-1
5.890895208E0,-3.120951355E-3,1.207061192E-1,-5.806875712E-1,5.931085591E-1
5.900950208E0,-3.395258859E-2,6.870390683E-2,-5.237251657E-1,5.293024223E-1
5.911005208E0,-9.377092034E-2,1.316822201E-2,-3.924586827E-1,4.037204542E-1
5.921060208E0,-9.101037674E-2,-3.398460209E-2,-2.755623168E-1,2.921856127E-1
5.931115208E0,-5.770836398E-2,-1.176322380E-1,-9.827883124E-2,1.637874457E-1
5.941170208E0,-1.238042665E-1,-1.728115350E-1,1.624689800E-1,2.675583908E-1
5.951224125E0,-1.265099193E-1,-1.939211529E-1,2.986956561E-1,3.779275965E-1
5.961279125E0,3.341998033E-2,-1.107377860E-1,3.593575948E-1,3.775150769E-1
5.971334125E0,6.092988744E-2,4.231776148E-2,2.640579200E-1,2.742805666E-1
5.981389125E0,1.278142869E-2,1.341883367E-1,5.441360414E-2,1.453640772E-1
5.991444125E0,-4.517536886E-2,1.547439310E-1,-1.474112302E-1,2.184412253E-1
6.001499125E0,-9.277879402E-2,1.571798810E-1,-2.563957286E-1,3.147255777E-1
6.011554125E0,-7.618658870E-2,1.615553525E-1,-2.188396472E-1,2.824806531E-1
6.021609125E0,-2.574097820E-2,1.324648699E-1,-4.052061975E-2,1.408952105E-1
6.031664125E0,1.841156647E-2,1.297064459E-1,9.091777146E-2,1.594640683E-1
6.041719125E0,7.419458851E-3,9.879484802E-2,9.943716466E-2,1.403681591E-1
6.051774125E0,-4.641373605E-2,1.163420498E-2,4.732502460E-2,6.729968479E-2
6.061829125E0,-8.867075957E-2,-6.992042005E-2,-7.046304166E-2,1.331030014E-1
6.071884125E0,-1.451353477E-1,-1.290161821E-1,-2.355773020E-1,3.052967566E-1
6.081939125E0,-1.050148968E-1,-1.044827271E-1,-3.393302965E-1,3.702564232E-1
6.091994125E0,6.289579444E-2,-7.929409146E-3,-4.373647141E-1,4.419351193E-1
6.102049125E0,2.113308721E-1,9.561834812E-2,-5.069325471E-1,5.574802358E-1
6.112104125E0,2.708480722E-1,1.299818498E-1,-4.996556872E-1,5.830178087E-1
6.122159125E0,2.728734016E-1,1.153050461E-1,-5.171745300E-1,5.960072495E-1
6.132214125E0,2.250813306E-1,9.355194211E-2,-5.814658356E-1,6.304887701E-1
6.142269125E0,1.630504125E-1,4.684233695E-2,-6.489777875E-1,6.707844737E-1
6.152324125E0,8.479142435E-2,-3.961400896E-2,-6.104130614E-1,6.175459180E-1
6.162379125E0,7.128143258E-2,-5.586020529E-2,-5.807220697E-1,5.877410377E-1
6.172434125E0,1.134147144E-1,-7.186520398E-3,-5.156887525E-1,5.280619594E-1
6.182489125E0,1.131138021E-1,1.484900415E-2,-4.927664977E-1,5.058004018E-1
6.192544125E0,1.607748954E-1,1.216115606E-1,-5.739679509E-1,6.083396645E-1
6.202599125E0,1.272745159E-1,2.121559873E-1,-7.178141338E-1,7.592536440E-1
6.212653125E0,3.098212995E-2,1.930931872E-1,-8.621351105E-1,8.840372278E-1
6.222708125E0,-6.384552844E-2,1.567153198E-1,-9.657243830E-1,9.804384360E-1
6.232763125E0,-1.115244558E-1,1.496220624E-1,-9.686941838E-1,9.865053916E-1
6.242818125E0,-1.634901231E-1,1.106910083E-1,-8.730395830E-1,8.950863830E-1
6.252873125E0,-2.553731237E-1,6.715117872E-2,-7.335764730E-1,7.796532273E-1
6.262928125E0,-3.654374566E-1,6.259590536E-2,-6.781115395E-1,7.728505949E-1
6.272983125E0,-4.734600880E-1,1.080754025E-1,-6.943720615E-1,8.473472177E-1
6.283038125E0,-5.989253291E-1,2.244589676E-1,-8.291591531E-1,1.047185886E0
6.293093125E0,-7.004416906E-1,3.319470173E-1,-9.310240817E-1,1.211450876E0
6.303148125E0,-7.510601594E-1,3.764832124E-1,-9.460315454E-1,1.265229883E0
6.313203125E0,-7.582846136E-1,4.505362983E-1,-7.239981490E-1,1.141118675E0
6.323258125E0,-6.640992719E-1,4.851190706E-1,-3.635857165E-1,8.992012727E-1
6.333313125E0,-5.846620698E-1,4.922124740E-1,-5.852536619E-2,7.665037991E-1
6.343368125E0,-5.200419315E-1,5.410244456E-1,2.244909811E-1,7.832925774E-1
6.353423125E0,-4.588411718E-1,5.542461696E-1,3.906559861E-1,8.187405797E-1
6.363478125E0,-4.300923859E-1,5.974961235E-1,4.708084488E-1,8.738659356E-1
6.373533125E0,-3.800547648E-1,7.425140883E-1,4.555887312E-1,9.504366826E-1
6.383588125E0,-1.715608156E-1,9.971807952E-1,4.190372014E-1,1.095168858E0
6.393643125E0,-5.716267258E-2,1.154812812E0,4.211930698E-1,1.230554267E0
6.403698125E0,-4.875730008E-2,1.158760560E0,4.200090086E-1,1.233495390E0
6.413753125E0,-2.167635933E-1,1.088619700E0,4.231004316E-1,1.187894474E0
6.423808125E0,-3.652793625E-1,9.263071328E-1,4.271455353E-1,1.083479222E0
6.433863125E0,-4.611017784E-1,6.966770339E-1,4.695249850E-1,9.583462063E-1
6.443918125E0,-5.288778783E-1,5.125112294E-1,6.004903364E-1,9.502463968E-1
6.453972125E0,-5.214444593E-1,3.606175236E-1,7.809664017E-1,1.005911449E0
6.464027125E0,-4.741670895E-1,1.735291345E-1,9.351247340E-1,1.062734707E0
6.474082125E0,-4.372316900E-1,-5.179463625E-3,1.083218919E0,1.168144513E0
6.484137125E0,-3.995466775E-1,-8.986161813E-2,1.102017133E0,1.175650636E0
6.494192125E0,-3.914104231E-1,-1.266297872E-1,1.071932039E0,1.148161799E0
6.504247125E0,-4.189708355E-1,-1.680937091E-1,1.016080019E0,1.111850108E0
6.514302125E0,-4.042183104E-1,-3.431953061E-1,9.270076293E-1,1.067950657E0
6.524357125E0,-3.722255623E-1,-5.617034161E-1,9.614915836E-1,1.174107602E0
6.534412125E0,-3.542594075E-1,-7.839100362E-1,1.089191265E0,1.387930937E0
6.544467125E0,-2.629719459E-1,-9.316327769E-1,1.175273974E0,1.522617085E0
6.554522125E0,-1.779297490E-1,-9.720249040E-1,1.089439772E0,1.470840041E0
6.564577125E0,-9.081719935E-2,-9.310518560E-1,7.289671129E-1,1.185958842E0
6.574632125E0,-7.574132323E-2,-8.953315079E-1,2.370794517E-1,9.292803256E-1
6.584687125E0,-1.590483588E-1,-9.037263554E-1,-4.097617632E-1,1.004948958E0
6.594742125E0,-2.784439708E-1,-8.854282250E-1,-1.029939675E0,1.386466704E0
6.604797125E0,-3.447477418E-1,-8.309507400E-1,-1.575542198E0,1.814294175E0
6.614852125E0,-3.807452479E-1,-7.799891858E-1,-2.219859170E0,2.383511025E0
6.624907125E0,-3.520216781E-1,-6.850669487E-1,-2.790295402E0,2.894647547E0
6.634962125E0,-3.100753610E-1,-5.650325283E-1,-3.221624621E0,3.285463998E0
6.645017125E0,-4.191342652E-1,-5.684918873E-1,-3.490954975E0,3.561688251E0
6.655072125E0,-5.618490118E-1,-6.847732723E-1,-3.544773332E0,3.653766102E0
6.665127125E0,-6.249419305E-1,-7.954930781E-1,-3.593108171E0,3.732798948E0
6.675182125E0,-5.145960541E-1,-7.452413759E-1,-3.661772609E0,3.772104512E0
6.685236125E0,-5.020347731E-1,-6.585666364E-1,-3.739870360E0,3.830454182E0
6.695291125E0,-5.377279316E-1,-6.793610895E-1,-3.856313567E0,3.952446982E0
6.705346125E0,-5.767192121E-1,-7.722480570E-1,-4.048202228E0,4.161359560E0
6.715401125E0,-5.282775155E-1,-8.162647270E-1,-4.207513127E0,4.318394603E0
6.725456125E0,-4.468871972E-1,-7.580982336E-1,-4.093375477E0,4.186901467E0
6.735511125E0,-3.707891938E-1,-6.321280123E-1,-3.832562762E0,3.902000484E0
6.745566125E0,-3.351945609E-1,-6.304517618E-1,-3.631068295E0,3.700605597E0
6.755621125E0,-3.302013311E-1,-7.292179585E-1,-3.482586440E0,3.573401749E0
6.765676125E0,-4.042805833E-1,-7.235230628E-1,-3.499419404E0,3.596229217E0
6.775731125E0,-3.714252247E-1,-4.786081959E-1,-3.821562395E0,3.869284384E0
6.785786125E0,-2.630622853E-1,-8.496004343E-3,-4.316388282E0,4.324405364E0
6.795841125E0,-2.123528923E-1,5.111896124E-1,-4.963535306E0,4.994305889E0
6.805896125E0,-3.173351178E-1,7.365749252E-1,-5.362012528E0,5.421662342E0
6.815951125E0,-4.877435202E-1,8.004699357E-1,-5.042553409E0,5.128936610E0
6.826006125E0,-3.616491187E-1,8.235521118E-1,-4.036313084E0,4.135317579E0
6.836061125E0,-4.249566302E-2,8.426002939E-1,-2.516148112E0,2.653824120E0
6.846116125E0,2.606903623E-1,8.883619192E-1,-8.752697110E-1,1.274065709E0
6.856171125E0,5.565397400E-1,8.825511025E-1,1.123358885E0,1.533156259E0
6.866226125E0,6.907348010E-1,7.961497204E-1,2.781864302E0,2.974850910E0
6.876281125E0,7.917438434E-1,5.847386684E-1,3.224964550E0,3.371820573E0
6.886336125E0,9.695942165E-1,6.747378422E-1,2.768126269E0,3.009635716E0
6.896391125E0,1.045492684E0,1.072997986E0,1.935662854E0,2.447686727E0
6.906446125E0,1.111053054E0,1.439432174E0,1.002793976E0,2.076535487E0
6.916500125E0,1.491360857E0,1.955087597E0,6.496782839E-1,2.543345551E0
6.926555125E0,2.382949709E0,2.591213497E0,1.499079328E0,3.826235164E0
6.936610125E0,3.169832323E0,2.612518412E0,4.169900912E0,5.853303599E0
6.946665708E0,3.418419680E0,1.592652759E0,7.813095163E0,8.675632078E0
6.956720708E0,2.947034696E0,9.346379533E-2,1.061321330E1,1.101517343E1
6.966775708E0,2.040091348E0,-1.425787404E0,1.300402050E1,1.324006766E1
6.976830708E0,1.435373183E0,-2.424049934E0,1.539538903E1,1.565101650E1
6.986885708E0,1.593451635E0,-2.431726743E0,1.691311571E1,1.716117322E1
6.996940708E0,2.406608274E0,-1.640664100E0,1.746332467E1,1.770455452E1
7.006995708E0,3.320748374E0,-5.853773305E-1,1.763437912E1,1.795386764E1
7.017050708E0,3.639735915E0,-7.107904583E-2,1.781873715E1,1.818681180E1
7.027105708E0,3.486044483E0,-2.030547962E-1,1.776011063E1,1.810014549E1
7.037160708E0,3.342143337E0,-4.917971756E-1,1.766152774E1,1.798169482E1
7.047215708E0,3.691016874E0,-6.125448100E-1,1.784636992E1,1.823435593E1
7.057270708E0,3.661748636E0,-5.028070441E-1,1.753205051E1,1.791742205E1
7.067325708E0,3.500994644E0,-2.221784073E-1,1.683640960E1,1.719799450E1
7.077380708E0,3.624251319E0,1.264077392E-1,1.590121528E1,1.630950104E1
7.087435708E0,3.701942104E0,5.945463493E-1,1.459811182E1,1.507191857E1
7.097490708E0,3.649356924E0,1.563954478E0,1.308481148E1,1.367391864E1
7.107545708E0,4.177092695E0,2.985509082E0,1.104914662E1,1.218380108E1
7.117600708E0,4.685879102E0,4.465614488E0,8.046356968E0,1.032681152E1
7.127655708E0,4.192707392E0,5.554328620E0,5.256138164E0,8.721029188E0
7.137710708E0,3.179012744E0,5.877590768E0,2.886618925E0,7.279063407E0
7.147764708E0,1.927775545E0,5.574665236E0,4.327290416E-1,5.914428584E0
7.157819708E0,4.178183493E-1,4.599014913E0,-2.312111276E0,5.164433066E0
7.167874708E0,-8.635907748E-1,3.368101466E0,-4.815071577E0,5.939260123E0
7.177929708E0,-1.793819928E0,2.035197375E0,-7.017387931E0,7.523533190E0
7.187984708E0,-2.451969073E0,8.502442127E-1,-9.004232048E0,9.370766369E0
7.198039708E0,-2.891280325E0,-8.688056141E-2,-9.961138830E0,1.037262440E1
7.208094708E0,-3.048391501E0,-8.758582333E-1,-1.012277224E1,1.060803169E1
7.218149708E0,-3.106698474E0,-1.672490495E0,-9.594506130E0,1.022268789E1
7.228204708E0,-3.001210026E0,-2.539023589E0,-8.604843246E0,9.460297548E0
7.238259708E0,-3.043417860E0,-3.526185034E0,-7.383536482E0,8.730004819E0
7.248314708E0,-3.435138039E0,-4.287313002E0,-6.329366530E0,8.381056425E0
7.258369708E0,-3.838110892E0,-4.658395142E0,-5.345337439E0,8.062528936E0
7.268424708E0,-4.013946023E0,-4.643815109E0,-4.927466757E0,7.871258481E0
7.278479708E0,-3.854647111E0,-4.311106200E0,-5.317624560E0,7.856275961E0
7.288534708E0,-3.714512740E0,-3.728958579E0,-6.113152283E0,8.066806544E0
7.298589708E0,-3.735695449E0,-3.304180581E0,-7.218027534E0,8.773423009E0
7.308644708E0,-3.786164813E0,-3.023684969E0,-8.437529263E0,9.729831183E0
7.318699708E0,-3.642209580E0,-2.783795345E0,-9.376598529E0,1.043723177E1
7.328754708E0,-3.441895666E0,-2.648308927E0,-1.006610454E1,1.096296705E1
7.338809708E0,-3.242078181E0,-2.550342044E0,-1.043622276E1,1.122185640E1
7.348864708E0,-2.992211453E0,-2.347286956E0,-1.068693266E1,1.134343930E1
7.358919708E0,-2.586856152E0,-2.012683256E0,-1.087362256E1,1.135686516E1
7.368974708E0,-2.155182386E0,-1.719190160E0,-1.095122447E1,1.129290677E1
7.379028708E0,-1.831216088E0,-1.617695360E0,-1.084204526E1,1.111396581E1
7.389083708E0,-1.592656998E0,-1.864369508E0,-1.058075892E1,1.086116427E1
7.399138708E0,-1.454163795E0,-2.243685404E0,-1.024856105E1,1.059158724E1
7.409193708E0,-1.406627832E0,-2.614835956E0,-9.818656218E0,1.025777651E1
7.419248708E0,-1.431884295E0,-2.985901723E0,-9.409297328E0,9.975007666E0
7.429303708E0,-1.501823719E0,-3.393275483E0,-8.922451136E0,9.663328995E0
7.439358708E0,-1.560731639E0,-3.686084163E0,-8.525715215E0,9.418647442E0
7.449413708E0,-1.641038468E0,-3.858614739E0,-8.295630203E0,9.295127510E0
7.459468708E0,-1.690988747E0,-3.846206070E0,-8.173538001E0,9.190183215E0
7.469523708E0,-1.760058251E0,-3.804937299E0,-8.188132651E0,9.198960225E0
7.479578708E0,-1.860536804E0,-3.872603033E0,-8.335263215E0,9.377380461E0
7.489633708E0,-1.854429826E0,-3.832712743E0,-8.492820534E0,9.500347234E0
7.499688708E0,-1.761790050E0,-3.634087797E0,-8.644314290E0,9.541208930E0
7.509743708E0,-1.644730400E0,-3.421309374E0,-8.873329847E0,9.651242329E0
7.519798708E0,-1.443063879E0,-3.274689857E0,-9.003792922E0,9.688875787E0
7.529853708E0,-1.211598339E0,-3.130320348E0,-8.988933393E0,9.595196693E0
7.539908708E0,-1.036091238E0,-2.888227201E0,-8.861297446E0,9.377522800E0
7.549963708E0,-7.910807692E-1,-2.605817210E0,-8.664094836E0,9.081994905E0
7.560018708E0,-5.736830454E-1,-2.355840555E0,-7.957004496E0,8.318234038E0
7.570073708E0,-5.878495333E-1,-2.158007907E0,-6.907891216E0,7.260959045E0
7.580128708E0,-7.747119275E-1,-2.062482822E0,-5.130987868E0,5.583999505E0
7.590182708E0,-9.285913476E-1,-1.963582140E0,-2.437819396E0,3.265103385E0
7.600237708E0,-1.078015774E0,-1.468759176E0,7.188449979E-2,1.823331815E0
7.610292708E0,-1.149618877E0,-1.981247163E-1,2.070276284E0,2.376325074E0
7.620347708E0,-7.754377131E-1,1.848477945E0,3.807767644E0,4.303169622E0
7.630402708E0,3.092473952E-1,4.181294212E0,5.477678640E0,6.898102530E0
7.640457708E0,1.919767637E0,4.895674276E0,7.015924957E0,8.767915226E0
7.650512708E0,2.193450074E0,4.063529827E0,1.006711611E1,1.107566362E1
7.660567708E0,1.348428156E0,2.874833277E0,1.351612432E1,1.388411112E1
7.670622708E0,7.346181545E-1,1.665644867E0,1.604119997E1,1.614416715E1
7.680677708E0,9.832484883E-1,9.042391562E-1,1.717456110E1,1.722643245E1
7.690732708E0,1.710166737E0,1.128766975E0,1.620982080E1,1.633882112E1
7.700787708E0,2.754035649E0,2.011879264E0,1.438294130E1,1.478179187E1
7.710842708E0,3.809031812E0,2.993577655E0,1.384451799E1,1.466768246E1
7.720897708E0,3.916541643E0,3.843287725E0,1.391974593E1,1.496226873E1
7.730952708E0,3.145712266E0,4.067188137E0,1.330161220E1,1.426079984E1
7.741007708E0,2.029048589E0,3.737855118E0,1.150128023E1,1.226246492E1
7.751062708E0,1.161669696E0,3.680154794E0,8.741140673E0,9.555132446E0
7.761117708E0,8.056961770E-1,3.906508990E0,6.371610909E0,7.517139376E0
7.771172708E0,6.428449354E-1,4.176244849E0,4.520285370E0,6.187669228E0
7.781227708E0,7.116549692E-1,4.244483025E0,3.052895027E0,5.276576256E0
7.791281708E0,8.692397699E-1,3.948336462E0,2.420960119E0,4.712322834E0
7.801336708E0,6.171242762E-1,2.997255846E0,2.593848837E0,4.011537956E0
7.811391708E0,1.074047269E-1,1.868470160E0,2.773692234E0,3.346055158E0
7.821446708E0,-2.556472850E-1,9.500620311E-1,2.777030994E0,2.946162680E0
7.831501708E0,-3.820781207E-1,3.210910767E-1,2.650207810E0,2.696791539E0
7.841556708E0,-4.173298875E-1,-5.957435668E-2,2.308026411E0,2.346209550E0
7.851611708E0,-2.657571939E-1,-1.706936735E-1,1.684398057E0,1.713756118E0
7.861666708E0,-4.898621857E-2,-1.466214176E-1,9.161470109E-1,9.290978610E-1
7.871721708E0,1.706476267E-1,-1.694259971E-1,2.695993263E-1,3.612610935E-1
7.881776708E0,3.411933656E-1,-1.931893739E-1,-1.688278270E-1,4.268932912E-1
7.891831708E0,3.111452553E-1,-2.812770930E-1,-6.786336958E-1,7.977918689E-1
7.901886708E0,2.032591563E-1,-4.768799052E-1,-1.179588050E0,1.288470681E0
7.911941708E0,2.698080719E-2,-7.650514501E-1,-1.489814415E0,1.674986172E0
7.921996708E0,-1.952921788E-1,-1.052683882E0,-1.781271218E0,2.078270806E0
7.932051708E0,-3.386062650E-1,-1.292500123E0,-2.058512855E0,2.454116123E0
7.942106708E0,-3.620442443E-1,-1.575161836E0,-2.302003194E0,2.812726356E0
7.952160958E0,-3.150890560E-1,-1.626412097E0,-2.543280947E0,3.035255409E0
7.962215958E0,-1.838456695E-1,-1.418596498E0,-2.850006584E0,3.188848191E0
7.972270958E0,1.932080850E-1,-1.078897534E0,-3.107651863E0,3.295276825E0
7.982325958E0,3.080962247E-1,-8.902242574E-1,-3.153296982E0,3.291003550E0
7.992379958E0,1.633858965E-1,-9.537428534E-1,-3.199436191E0,3.342560743E0
8.002434958E0,-2.992612280E-2,-1.205053259E0,-3.064601737E0,3.293149364E0
8.012489958E0,-3.007466400E-1,-1.470675016E0,-2.873376151E0,3.241855032E0
8.022544958E0,-5.806667405E-1,-1.596298059E0,-2.831762102E0,3.302153533E0
8.032599958E0,-5.835750724E-1,-1.489219168E0,-2.747603711E0,3.179254591E0
8.042654958E0,-4.762524989E-1,-1.182306420E0,-2.467831984E0,2.777563612E0
8.052709958E0,-4.988084988E-1,-9.209244785E-1,-2.117376775E0,2.362243895E0
8.062764958E0,-4.639782431E-1,-8.087652344E-1,-1.703367010E0,1.941864100E0
8.072819958E0,-4.104472762E-1,-7.579684255E-1,-1.318327274E0,1.575109489E0
8.082874958E0,-3.216428346E-1,-5.747596639E-1,-9.709500396E-1,1.173263297E0
8.092929958E0,-2.581056006E-2,-2.660015345E-1,-7.447048938E-1,7.912069137E-1
8.102984958E0,3.340227789E-1,1.171840489E-1,-5.842613894E-1,6.831286037E-1
8.113039958E0,4.113326177E-1,3.129988226E-1,-6.018357807E-1,7.933278593E-1
8.123094958E0,4.150869687E-1,2.606829071E-1,-5.880679268E-1,7.655564356E-1
8.133149958E0,4.443265553E-1,7.294693887E-2,-2.216387093E-1,5.018675733E-1
8.143204958E0,3.698745431E-1,-1.798790646E-1,3.527730453E-1,5.418602006E-1
8.153259958E0,2.935911830E-1,-3.594561204E-1,9.070949364E-1,1.018933614E0
8.163314958E0,3.869449776E-1,-3.931866610E-1,1.353791222E0,1.461873058E0
8.173369958E0,6.541416098E-1,-2.609238124E-1,1.610320852E0,1.757588043E0
8.183424958E0,9.127873470E-1,-1.375346982E-1,1.726861707E0,1.958098028E0
8.193478958E0,9.905744648E-1,-6.093617320E-2,1.672224154E0,1.944552548E0
8.203533958E0,9.057367013E-1,-1.202716711E-1,1.500059906E0,1.756417937E0
8.213588958E0,8.082766264E-1,-1.954417214E-1,1.221540653E0,1.477724649E0
8.223643958E0,6.229513921E-1,-2.346382391E-1,8.106252337E-1,1.048921737E0
8.233698958E0,4.613456804E-1,-1.709377947E-1,3.686026275E-1,6.147580528E-1
8.243753958E0,4.632511418E-1,-6.146037608E-2,-3.894771874E-2,4.689306164E-1
8.253808958E0,5.571581561E-1,1.386363137E-1,-3.873067009E-1,6.925689272E-1
8.263863958E0,6.399407695E-1,3.616195902E-1,-7.049216080E-1,1.018433793E0
8.273918958E0,6.009120668E-1,5.385414255E-1,-1.075421072E0,1.344489740E0
8.283973958E0,5.133940127E-1,6.142283696E-1,-1.353917522E0,1.572877159E0
8.294028958E0,3.899332702E-1,7.227719879E-1,-1.551140597E0,1.755130894E0
8.304083958E0,2.315171416E-1,7.638261661E-1,-1.553581225E0,1.746609637E0
8.314138958E0,1.818842941E-1,7.382796809E-1,-1.292838092E0,1.499856365E0
8.324193958E0,2.128572147E-1,7.556944433E-1,-8.756532884E-1,1.176074388E0
8.334248958E0,2.740972969E-1,8.086544296E-1,-4.143103123E-1,9.490544503E-1
8.344303958E0,2.051134546E-1,8.088757467E-1,-1.272950542E-1,8.441300455E-1
8.354358958E0,2.850039621E-1,8.211376503E-1,-1.973739338E-1,8.913196783E-1
8.364413958E0,9.294958388E-1,6.968045032E-1,-8.835552156E-2,1.165034647E0
8.374468958E0,9.511570685E-1,8.861569342E-1,-1.218489575E-1,1.305687960E0
8.384522958E0,9.473036072E-1,8.677703646E-1,-2.893962443E-2,1.285008573E0
8.394577958E0,8.918064409E-1,5.958508632E-1,2.657764167E-1,1.104986010E0
8.404632958E0,6.827089859E-1,3.397173822E-1,5.744228643E-1,9.547047115E-1
8.414687958E0,3.921464413E-1,1.332843572E-2,7.360860980E-1,8.341338156E-1
8.424742958E0,5.220503770E-2,-2.594757494E-1,7.686720461E-1,8.129635569E-1
8.434797958E0,-1.063816834E-1,-3.534869903E-1,7.140719157E-1,8.038462638E-1
8.444852958E0,-8.163845949E-2,-1.887621546E-1,4.768977392E-1,5.193529077E-1
8.454907958E0,-4.673577145E-2,1.272418445E-1,1.051224124E-1,1.715384532E-1
8.464962958E0,-6.660168663E-2,3.622142521E-1,-2.922859383E-1,4.701765825E-1
8.475017958E0,-7.708252832E-2,5.473593190E-1,-7.253517795E-1,9.119644424E-1
8.485072958E0,-1.089637408E-1,6.778314579E-1,-1.014155116E0,1.224679216E0
8.495127958E0,-2.337439806E-1,7.204091281E-1,-1.145709282E0,1.373417387E0
8.505182958E0,-2.842327874E-1,6.608327249E-1,-1.012395689E0,1.241947341E0
8.515237958E0,-1.972308232E-1,5.727172315E-1,-5.587634361E-1,8.240883462E-1
8.525292958E0,-1.400960711E-1,5.418208364E-1,-1.961711615E-1,5.930260133E-1
8.535347958E0,-1.554020351E-1,4.175335899E-1,-7.449937463E-3,4.455778190E-1
8.545402958E0,-1.690271439E-1,2.311033049E-1,1.210168988E-1,3.108440167E-1
8.555457958E0,-1.735626829E-1,1.833917794E-1,2.733456373E-1,3.721214682E-1
8.565512958E0,-1.076383962E-1,1.066508746E-1,3.956945318E-1,4.237152297E-1
8.575566958E0,-7.817391112E-2,2.140373290E-2,5.023658717E-1,5.088622104E-1
8.585621958E0,-5.599878430E-2,-3.929562807E-2,6.258409399E-1,6.295688146E-1
8.595676958E0,5.552896053E-2,-4.500309527E-2,6.901649898E-1,6.938562223E-1
8.605731958E0,1.418998640E-1,4.790623784E-3,6.510553032E-1,6.663569084E-1
8.615786958E0,1.373832554E-1,4.825560898E-2,5.698538500E-1,5.881633897E-1
8.625841958E0,1.187804849E-1,1.824126631E-2,4.954252267E-1,5.097918228E-1
8.635896958E0,1.092186063E-1,6.592150927E-3,4.634643459E-1,4.762051662E-1
8.645951958E0,6.452738687E-2,-7.296360344E-2,5.418807703E-1,5.505653824E-1
8.656006958E0,-8.027620442E-2,-1.849424610E-1,4.882325667E-1,5.282225119E-1
8.666061958E0,-1.625525220E-1,-2.307705984E-1,4.273034102E-1,5.121197085E-1
8.676116958E0,-1.338861088E-1,-1.852386224E-1,4.328056401E-1,4.894482194E-1
8.686171958E0,-1.058874475E-1,-9.440125018E-2,3.302577567E-1,3.594355762E-1
8.696226958E0,-1.083702484E-1,-2.800231576E-2,1.467119032E-1,1.845335280E-1
8.706281958E0,-3.635118954E-2,4.383745283E-2,7.854155481E-2,9.701498381E-2
8.716336958E0,1.548727890E-1,1.722320759E-1,5.877621174E-2,2.389646665E-1
8.726391958E0,2.292540499E-1,3.093486983E-1,1.677800059E-2,3.854030848E-1
8.736446958E0,2.250979221E-1,2.482505572E-1,-1.629034281E-2,3.355037838E-1
8.746501958E0,1.462925117E-1,1.203076315E-1,-7.050221801E-2,2.021039037E-1
8.756555958E0,-2.205562435E-2,-4.703500271E-2,-1.119619006E-1,1.234269388E-1
8.766610958E0,-8.955127716E-2,-1.936887261E-1,-7.383279204E-2,2.258008748E-1
8.776665958E0,-1.136650483E-1,-1.768864596E-1,-7.414269447E-3,2.103890068E-1
8.786720958E0,-1.444544394E-1,-1.062246126E-1,-1.826681864E-1,2.559656612E-1
8.796775958E0,-2.640693586E-1,3.497512043E-3,-5.283772105E-1,5.907007155E-1
8.806830958E0,-2.919774976E-1,7.663740903E-2,-9.190682799E-1,9.673730690E-1
8.816885958E0,-5.739736520E-3,-8.674929142E-2,-9.307340598E-1,9.347856836E-1
8.826940958E0,-2.029428585E-1,-2.651390702E-2,-1.019052159E0,1.039401796E0
8.836995958E0,-2.890814083E-1,-4.030134916E-2,-1.031492695E0,1.071993209E0
8.847050958E0,-2.556795543E-1,-7.277853906E-2,-1.166595536E0,1.196500688E0
8.857105958E0,-2.129412318E-1,3.409949988E-2,-1.404278421E0,1.420740873E0
8.867160958E0,-1.629725714E-1,1.763558248E-1,-1.500669186E0,1.519759666E0
8.877215958E0,-8.855410762E-2,2.116855788E-1,-1.451354354E0,1.469381528E0
8.887270958E0,-2.486360349E-2,1.973873824E-1,-1.198872752E0,1.215267811E0
8.897325958E0,9.088400379E-4,1.006013453E-1,-6.935148597E-1,7.007740843E-1
8.907380958E0,-6.169393580E-2,-7.719903409E-2,-2.195319575E-1,2.407490663E-1
8.917435958E0,-1.240153144E-1,-2.467747200E-1,1.646494067E-1,3.215384701E-1
8.927490958E0,-1.896333532E-1,-3.558153516E-1,4.528124732E-1,6.063039740E-1
8.937545958E0,-1.936461145E-1,-3.473485833E-1,6.786471444E-1,7.865823559E-1
8.947600333E0,-1.165168085E-1,-2.779801404E-1,8.002429175E-1,8.551244659E-1
8.957655333E0,-3.905030083E-2,-1.425457621E-1,8.465183669E-1,8.593239004E-1
8.967710333E0,-1.838722743E-2,-1.268749318E-1,8.681752843E-1,8.775896892E-1
8.977765333E0,-6.232050151E-2,-1.392964643E-1,8.225675869E-1,8.366031227E-1
8.987820333E0,-1.438190664E-1,-1.755044702E-1,8.560101521E-1,8.855727657E-1
8.997875333E0,-2.222384875E-1,-2.233364484E-1,8.438906282E-1,9.007888248E-1
9.007930333E0,-2.517493483E-1,-2.201847991E-1,8.044353712E-1,8.711919114E-1
9.017985333E0,-2.172638956E-1,-1.124220765E-1,6.227202809E-1,6.690462404E-1
9.028040333E0,-2.217908465E-1,-8.031735420E-3,3.291122872E-1,3.969516166E-1
9.038095333E0,-2.508881996E-1,4.441018760E-2,-4.944405556E-2,2.595416500E-1
9.048150333E0,-2.906082259E-1,8.245568097E-2,-3.085254103E-1,4.317869950E-1
9.058205333E0,-3.471953863E-1,7.520718008E-2,-4.615113759E-1,5.824032162E-1
9.068260333E0,-3.629544730E-1,5.763805121E-2,-6.070333707E-1,7.096108846E-1
9.078315333E0,-3.180257105E-1,8.827863067E-2,-7.150992715E-1,7.875915422E-1
9.088370333E0,-2.878819616E-1,4.286856920E-2,-7.028370756E-1,7.607191945E-1
9.098425333E0,-2.560817331E-1,2.665657908E-2,-6.351070225E-1,6.853096799E-1
9.108480333E0,-2.419661160E-1,6.655593216E-3,-5.964054716E-1,6.436547092E-1
9.118535333E0,-2.359609159E-1,4.876928687E-2,-5.941320741E-1,6.411309684E-1
9.128589333E0,-2.069853311E-1,8.362717062E-2,-6.999959135E-1,7.347317265E-1
9.138644333E0,-1.339526574E-1,9.109201849E-2,-7.988688219E-1,8.151272691E-1
9.148699333E0,-1.340773858E-1,1.630189106E-1,-8.213636452E-1,8.480507934E-1
9.158754333E0,-1.452754616E-1,1.712506208E-1,-7.752834928E-1,8.071531633E-1
9.168809333E0,-1.086021270E-1,1.400162566E-1,-6.434515840E-1,6.674046112E-1
9.178864333E0,-5.157478094E-2,9.501169950E-2,-3.632641196E-1,3.790092369E-1
9.188919333E0,-3.110137660E-2,1.960571408E-2,-3.358757615E-2,4.979763973E-2
9.198974333E0,-4.025881067E-3,-1.089336276E-3,2.477786869E-1,2.478137850E-1
9.209029333E0,4.221404649E-2,4.690899521E-2,3.730348170E-1,3.783351084E-1
9.219084333E0,7.253792614E-2,6.596097797E-2,3.992075390E-1,4.110708704E-1
9.229139333E0,7.450449094E-2,1.147176933E-1,4.043893415E-1,4.268978892E-1
9.239194333E0,1.890226480E-1,1.911302769E-1,4.186296505E-1,4.975049030E-1
9.249249333E0,2.332499640E-1,2.037158239E-1,4.728198910E-1,5.652117585E-1
9.259304333E0,2.229081398E-1,1.875468108E-1,5.151332670E-1,5.917973706E-1
9.269359333E0,1.977776109E-1,2.140858608E-1,4.482493061E-1,5.346739003E-1
9.279414333E0,1.189819581E-1,1.672596037E-1,3.248765641E-1,3.842879953E-1
9.289469333E0,-1.175575398E-2,9.286694080E-2,1.194241172E-1,1.517385456E-1
9.299523333E0,-8.046554457E-2,1.309089258E-1,-1.455594170E-1,2.116586748E-1
9.309578333E0,-2.720848314E-2,2.372390807E-1,-3.958091372E-1,4.622635137E-1
9.319633333E0,4.733924065E-2,2.911179569E-1,-5.422748727E-1,6.172946671E-1
9.329688333E0,3.802656300E-2,3.295204228E-1,-5.221306300E-1,6.185871995E-1
9.339743333E0,8.660844661E-2,3.953992474E-1,-4.439200276E-1,6.007550073E-1
9.349798333E0,1.303539520E-1,4.030672860E-1,-4.339628041E-1,6.064479410E-1
9.359853333E0,8.930664428E-2,3.891032580E-1,-5.628716898E-1,6.900735912E-1
9.369908333E0,7.521273494E-3,3.418466458E-1,-7.583300757E-1,8.318534742E-1
9.379963333E0,-7.213600315E-3,2.937307853E-1,-8.759029645E-1,9.238700198E-1
9.390018333E0,-2.213796046E-2,2.909554043E-1,-8.944643658E-1,9.408568639E-1
9.400073333E0,-2.766672213E-2,2.298853299E-1,-9.026545608E-1,9.318787306E-1
9.410128333E0,-1.695535395E-2,1.791458237E-1,-9.222216833E-1,9.396135074E-1
9.420183333E0,6.173526831E-2,1.606235987E-1,-1.030401605E0,1.044671552E0
9.430238333E0,1.072657824E-1,9.233952194E-2,-1.069748104E0,1.079070684E0
9.440293333E0,1.022729181E-1,5.789035857E-2,-1.025885800E0,1.032595138E0
9.450348333E0,1.037129411E-1,-3.778441519E-2,-9.831479162E-1,9.893249523E-1
9.460403333E0,4.278846234E-2,-1.970371342E-1,-8.284533942E-1,8.526367990E-1
9.470457333E0,4.360188313E-2,-2.677016124E-1,-6.637186182E-1,7.169990806E-1
9.480512333E0,1.225941121E-1,-2.355547902E-1,-5.942607129E-1,6.508925951E-1
9.490567333E0,2.543499340E-1,-1.104328537E-1,-4.618750727E-1,5.387187456E-1
9.500622333E0,3.842977238E-1,-5.717992187E-3,-2.837659603E-1,4.777452838E-1
9.510677333E0,6.796661679E-1,2.209785587E-1,-3.863313854E-2,7.157304958E-1
9.520732333E0,1.073320021E0,1.769294366E-1,3.920897233E-1,1.156310618E0
9.530787333E0,5.497188898E-1,1.623836106E-1,7.565455055E-1,9.491682658E-1
9.540842333E0,1.458776517E-1,1.006668341E-1,9.012623388E-1,9.185248522E-1
9.550897333E0,2.019631210E-1,-2.825260583E-1,1.150757768E0,1.202020597E0
9.560952333E0,2.007958706E-1,-3.820355822E-1,1.273839903E0,1.344967757E0
9.571007333E0,6.629858159E-2,-3.363395919E-1,1.157007857E0,1.206725737E0
9.581062333E0,2.787652753E-2,-3.407909310E-1,8.735418588E-1,9.380783222E-1
9.591117333E0,-6.563499570E-4,-2.712641747E-1,4.823982149E-1,5.534371880E-1
9.601172333E0,-5.468593821E-2,-9.323809281E-2,-4.822724998E-2,1.183628380E-1
9.611227333E0,-9.152990185E-2,6.470733494E-2,-5.263950044E-1,5.381974199E-1
9.621282333E0,-3.856816135E-2,2.168032081E-1,-9.138467163E-1,9.400036995E-1
9.631337333E0,7.473399416E-3,3.288737208E-1,-1.121007720E0,1.168277400E0
9.641392333E0,1.212417973E-1,3.655152977E-1,-9.547883356E-1,1.029525022E0
9.651446333E0,1.120770177E-1,2.315485704E-1,-5.833316821E-1,6.375357634E-1
9.661501333E0,-6.375950128E-3,4.080801040E-2,-2.496199751E-1,2.530139886E-1
9.671556333E0,-9.596267603E-2,-1.110517815E-1,1.318968129E-1,1.973273996E-1
9.681611333E0,-1.326628713E-1,-2.185230204E-1,4.139542168E-1,4.865283563E-1
9.691666333E0,-1.848983145E-1,-2.138972881E-1,5.894104475E-1,6.537156203E-1
9.701721333E0,-1.743894792E-1,-2.157736596E-1,7.615097916E-1,8.104733959E-1
9.711776333E0,-2.165141364E-1,-2.387754366E-1,8.503594029E-1,9.093971599E-1
9.721831333E0,-2.448441886E-1,-1.551931433E-1,8.792984426E-1,9.258506033E-1
9.731886333E0,-2.327054420E-1,-7.639065653E-2,7.586522573E-1,7.972080047E-1
9.741941333E0,-2.413346167E-1,2.861788139E-2,5.085522258E-1,5.636370701E-1
9.751996333E0,-3.060341310E-1,1.140569580E-1,3.134844339E-1,4.527011920E-1
9.762051333E0,-3.871833978E-1,1.076571804E-1,2.586357969E-1,4.779053541E-1
9.772106333E0,-4.420756696E-1,4.232360870E-3,3.635822082E-1,5.723991899E-1
9.782161333E0,-4.844696642E-1,-4.716393381E-2,4.761732692E-1,6.809377904E-1
9.792216333E0,-4.562032004E-1,3.482835531E-2,4.706032115E-1,6.563549018E-1
9.802271333E0,-4.412748934E-1,1.052814567E-1,2.765259379E-1,5.312949379E-1
9.812325333E0,-4.595597215E-1,1.476990594E-1,-1.341994464E-1,5.010186036E-1
9.822380333E0,-4.376938393E-1,2.917605659E-1,-6.251936531E-1,8.170478742E-1
9.832435333E0,-4.650252602E-1,3.471101631E-1,-1.098984182E0,1.242779220E0
9.842490333E0,-4.630011003E-1,3.726696584E-1,-1.569311405E0,1.678091469E0
9.852545333E0,-4.370062067E-1,3.887961330E-1,-1.998467798E0,2.082308910E0
9.862600333E0,-4.582139848E-1,2.772414909E-1,-2.378024599E0,2.437585669E0
9.872655333E0,-5.105223721E-1,5.711560249E-2,-2.785069746E0,2.832050277E0
9.882710333E0,-5.373728594E-1,-1.351442103E-1,-3.179675526E0,3.227595080E0
9.892765333E0,-5.398738597E-1,-3.394967960E-1,-3.552907394E0,3.609691512E0
9.902820333E0,-5.090756247E-1,-4.615436818E-1,-3.877462946E0,3.937880072E0
9.912875333E0,-4.051069410E-1,-4.700857329E-1,-4.296215388E0,4.340801642E0
9.922930333E0,-2.133773976E-1,-3.518241884E-1,-4.736004358E0,4.753845544E0
9.932985333E0,-1.209400810E-1,-2.402088815E-1,-5.163083235E0,5.170082717E0
9.943040333E0,-2.154592256E-1,-2.869962546E-1,-5.603486162E0,5.614966313E0
9.953095458E0,-3.626299160E-1,-3.828530230E-1,-5.970273814E0,5.993517023E0
9.963150458E0,-5.494352999E-1,-4.533261511E-1,-6.260895050E0,6.301284835E0
9.973204458E0,-6.976930607E-1,-5.020441286E-1,-6.390621961E0,6.448168187E0
9.983259458E0,-8.054124409E-1,-5.026561859E-1,-6.270197970E0,6.341666581E0
9.993314458E0,-8.758795025E-1,-4.091611080E-1,-6.011415408E0,6.088652801E0
1.000336946E1,-9.462748627E-1,-1.835205643E-1,-5.871217888E0,5.949816417E0
1.001342446E1,-1.020070379E0,1.106470080E-1,-5.834093916E0,5.923633864E0
1.002347946E1,-9.276327697E-1,3.984123176E-1,-5.732403819E0,5.820626124E0
1.003353446E1,-7.154598255E-1,6.403721479E-1,-5.443455471E0,5.527491901E0
1.004358946E1,-4.292170577E-1,6.312037137E-1,-4.781551829E0,4.842094929E0
1.005364446E1,-3.327311289E-1,4.160548291E-1,-3.740907072E0,3.778650201E0
1.006369946E1,-3.291616230E-1,5.755765200E-2,-2.359381337E0,2.382926887E0
1.007375446E1,-2.084215169E-1,-4.309791161E-1,-7.280567014E-1,8.713490045E-1
1.008380946E1,-1.119507909E-2,-9.117009343E-1,1.060873784E0,1.398848494E0
1.009386446E1,-7.116331883E-2,-1.429418671E0,3.001647690E0,3.325385813E0
1.010391946E1,-2.579141043E-1,-1.597295740E0,4.573876271E0,4.851620091E0
1.011397446E1,-1.735322043E-2,-1.343532282E0,5.648716714E0,5.806322472E0
1.012402946E1,6.001158953E-1,-6.987525031E-1,6.616304605E0,6.680110836E0
1.013408446E1,1.113637816E0,-1.550493018E-1,7.380104751E0,7.465264604E0
1.014413846E1,1.545732069E0,1.046995126E-1,8.146805701E0,8.292809701E0
1.015419346E1,1.796605103E0,-1.280641092E-1,9.190478146E0,9.365312534E0
1.016424846E1,1.772282293E0,-7.913706449E-1,1.043206305E1,1.061108814E1
1.017430346E1,1.419476504E0,-1.171285003E0,1.130160717E1,1.145046491E1
1.018435846E1,1.412857456E0,-9.930865748E-1,1.182633280E1,1.195175864E1
1.019441346E1,1.883804191E0,-4.370678218E-1,1.234810558E1,1.249861824E1
1.020446846E1,2.270232348E0,1.676140912E-1,1.258639832E1,1.279060093E1
1.021452346E1,2.247293428E0,2.999842362E-1,1.275389766E1,1.295384977E1
1.022457846E1,1.805088243E0,-5.438159063E-2,1.309153110E1,1.321550179E1
1.023463346E1,1.255631528E0,-5.741797663E-1,1.342325651E1,1.349407678E1
1.024468846E1,8.425261804E-1,-1.084792697E0,1.372215915E1,1.379073158E1
1.025474346E1,8.295260659E-1,-1.033358688E0,1.366771924E1,1.373180588E1
1.026479846E1,1.199601388E0,-4.864310396E-1,1.313423565E1,1.319787122E1
1.027485346E1,1.805267460E0,3.831475765E-1,1.258158373E1,1.271621177E1
1.028490846E1,2.450492066E0,1.350117270E0,1.188145216E1,1.220641771E1
1.029496246E1,2.663010581E0,1.903602279E0,1.118776773E1,1.165682091E1
1.030501746E1,2.729785491E0,1.750590585E0,1.052646869E1,1.101466474E1
1.031507246E1,2.371169470E0,1.640822560E0,1.009103823E1,1.049494145E1
1.032512746E1,2.294428711E0,1.638610558E0,9.984404901E0,1.037486332E1
1.033518246E1,2.561195938E0,1.863066748E0,9.774596279E0,1.027489536E1
1.034523746E1,2.606892513E0,2.054598144E0,9.294810015E0,9.869688715E0
1.035529246E1,2.123606983E0,2.041524355E0,8.386117035E0,8.888446840E0
1.036534746E1,1.538212988E0,1.942230739E0,7.270922617E0,7.681450068E0
1.037540246E1,1.148448995E0,1.705884967E0,6.211212428E0,6.542792863E0
1.038545746E1,8.432433414E-1,1.478840068E0,5.164215256E0,5.437568068E0
1.039551246E1,6.843071030E-1,1.199205020E0,4.050217178E0,4.279091969E0
1.040556746E1,4.122488764E-1,9.429895315E-1,2.930813935E0,3.106259602E0
1.041562246E1,1.280832589E-3,6.816394570E-1,1.833576901E0,1.956179501E0
1.042567746E1,-2.299565198E-1,3.988999754E-1,6.998444706E-1,8.377251783E-1
1.043573246E1,-3.618947017E-1,1.362999125E-1,-3.529706812E-1,5.235778290E-1
1.044578746E1,-5.255654307E-1,-1.146671149E-1,-1.354478855E0,1.457388259E0
1.045584146E1,-6.374761681E-1,-5.074548496E-1,-2.436756372E0,2.569371111E0
1.046589646E1,-8.149738079E-1,-1.000591038E0,-3.486498812E0,3.717665759E0
1.047595146E1,-9.735396253E-1,-1.475446344E0,-4.489959955E0,4.825397571E0
1.048600646E1,-1.086636178E0,-1.815323940E0,-5.492797785E0,5.886170801E0
1.049606146E1,-1.175753592E0,-2.049984837E0,-6.510978709E0,6.926592098E0
1.050611646E1,-1.287402520E0,-2.230160502E0,-7.536436493E0,7.964226022E0
1.051617146E1,-1.548389775E0,-2.482450316E0,-8.556241774E0,9.042640309E0
1.052622646E1,-1.879156532E0,-2.787905061E0,-9.382617068E0,9.966802242E0
1.053628146E1,-2.257799121E0,-3.167355735E0,-1.004609653E1,1.077282947E1
1.054633646E1,-2.441152893E0,-3.512431798E0,-1.061723385E1,1.144648676E1
1.055639146E1,-2.655733429E0,-3.620654989E0,-1.138775420E1,1.224103788E1
1.056644646E1,-2.756516622E0,-3.672448748E0,-1.243636345E1,1.325701322E1
1.057650146E1,-2.554307041E0,-3.630242084E0,-1.343502461E1,1.414931194E1
1.058655646E1,-2.258670502E0,-3.482870030E0,-1.401357737E1,1.461548243E1
1.059661146E1,-2.022937664E0,-3.342034578E0,-1.398034062E1,1.451590148E1
1.060666546E1,-1.796308795E0,-3.363384809E0,-1.342825822E1,1.395912610E1
1.061672046E1,-1.681570198E0,-3.539184271E0,-1.244651655E1,1.304872706E1
1.062677546E1,-2.036935606E0,-3.761230532E0,-1.134228742E1,1.212202317E1
1.063683046E1,-1.533027385E0,-4.266018612E0,-1.038871297E1,1.133465680E1
1.064688546E1,-1.107462060E0,-4.955508249E0,-9.539977335E0,1.080715975E1
1.065694046E1,-1.109148031E0,-5.395842764E0,-8.798971390E0,1.038109946E1
1.066699546E1,-1.198774884E0,-5.689423860E0,-8.309880452E0,1.014202732E1
1.067705046E1,-1.341920789E0,-5.980802895E0,-8.051402530E0,1.011908283E1
1.068710546E1,-1.454299304E0,-6.331094382E0,-8.079894258E0,1.036737352E1
1.069716046E1,-1.558518468E0,-6.645119684E0,-8.317819802E0,1.075977331E1
1.070721546E1,-1.733855123E0,-6.824478346E0,-8.609590015E0,1.112226589E1
1.071727046E1,-1.806374777E0,-6.914269359E0,-8.796481061E0,1.133349856E1
1.072732546E1,-1.741351692E0,-6.976065073E0,-8.889757015E0,1.143352830E1
1.073738046E1,-1.676580330E0,-6.988368784E0,-8.920810407E0,1.145552610E1
1.074743546E1,-1.618567472E0,-6.956151211E0,-8.953053124E0,1.145272721E1
1.075749046E1,-1.521669461E0,-6.825202231E0,-9.057639931E0,1.144288882E1
1.076754446E1,-1.456273909E0,-6.658187626E0,-9.187627044E0,1.143961043E1
1.077759946E1,-1.387681684E0,-6.439999359E0,-9.324030306E0,1.141651406E1
1.078765446E1,-1.446409948E0,-5.952947345E0,-9.312679106E0,1.114700300E1
1.079770946E1,-1.746303114E0,-5.112932251E0,-9.293055850E0,1.074953663E1
1.080776446E1,-1.909164004E0,-4.151864591E0,-9.129392869E0,1.020924585E1
1.081781946E1,-1.969001047E0,-2.914117211E0,-8.177286066E0,8.901519626E0
1.082787446E1,-1.952911848E0,-1.288244519E0,-7.154999228E0,7.527778728E0
1.083792946E1,-2.005361957E0,4.205633247E-1,-5.787726080E0,6.139716872E0
1.084798446E1,-2.297702859E0,1.730178832E0,-3.695312238E0,4.682765183E0
1.085803946E1,-2.147917367E0,2.918137171E0,-3.415786094E0,4.979625308E0
1.086809446E1,-1.955639428E0,4.451268345E0,-4.342886694E0,6.519124196E0
1.087814946E1,-6.282563516E-1,5.554530934E0,-2.731732029E0,6.221726434E0
1.088820446E1,2.488097264E0,5.071126413E0,1.915208709E0,5.964476129E0
1.089825946E1,5.795499369E0,4.017426870E0,8.746475673E0,1.123513989E1
1.090831346E1,8.017317941E0,3.108190099E0,1.491588928E1,1.721690988E1
1.091836846E1,9.177701980E0,1.050884401E0,1.953523408E1,2.160925594E1
1.092842346E1,8.603164510E0,-1.416785323E0,2.238864258E1,2.402650696E1
1.093847846E1,7.320484201E0,-2.784375097E0,2.454989744E1,2.576896774E1
1.094853350E1,6.842341005E0,-2.669626121E0,2.545163399E1,2.649019077E1
1.095858850E1,7.579670806E0,-1.093469527E0,2.378893612E1,2.499120979E1
1.096864350E1,8.340318718E0,1.937252128E0,2.017841611E1,2.191990737E1
1.097869850E1,7.725381666E0,4.314149676E0,1.760986759E1,1.970788791E1
1.098875350E1,6.283535469E0,4.840148531E0,1.536478236E1,1.729122300E1
1.099880850E1,4.261555433E0,3.560266992E0,1.397498574E1,1.503783835E1
1.100886350E1,2.100242533E0,1.341134047E0,1.322924940E1,1.346189804E1
1.101891850E1,3.641179593E-1,-1.970323102E-1,1.205552260E1,1.206262943E1
1.102897350E1,-4.838644043E-1,-6.110588133E-1,1.023999488E1,1.026961600E1
1.103902850E1,-4.681912351E-1,-1.995225663E-1,8.141736165E0,8.157627110E0
1.104908350E1,-1.087856930E-1,4.796530934E-1,6.140611392E0,6.160276754E0
1.105913750E1,5.015468229E-1,1.214530572E0,4.297255608E0,4.493666597E0
1.106919250E1,1.207591242E0,1.951108274E0,2.550197033E0,3.430540047E0
1.107924750E1,1.406902213E0,2.446488478E0,9.793595052E-1,2.987277146E0
1.108930250E1,1.241906212E0,2.538280115E0,-5.583184630E-1,2.880436858E0
1.109935750E1,9.180834626E-1,2.277935762E0,-1.934500428E0,3.126365379E0
1.110941250E1,4.631885035E-1,1.846957962E0,-3.128041103E0,3.662026549E0
1.111946750E1,-3.227867693E-2,1.355755302E0,-4.142008524E0,4.358365400E0
1.112952250E1,-3.719611220E-1,9.276350355E-1,-5.031160110E0,5.129467213E0
1.113957750E1,-5.668685541E-1,6.160203950E-1,-5.624018660E0,5.685983378E0
1.114963250E1,-7.160883281E-1,3.900389586E-1,-5.893231485E0,5.949377297E0
1.115968750E1,-7.706054279E-1,2.116246216E-1,-5.987207935E0,6.040304344E0
1.116974250E1,-8.131541544E-1,8.395709977E-2,-6.072145759E0,6.126926032E0
1.117979750E1,-8.984640075E-1,-3.416264981E-2,-6.229380897E0,6.293932873E0
1.118985250E1,-9.701928252E-1,-1.012173495E-1,-6.422193418E0,6.495851550E0
1.119990750E1,-9.737074403E-1,-2.314284101E-2,-6.457936862E0,6.530971619E0
1.120996250E1,-9.717337127E-1,2.132691510E-1,-6.386890268E0,6.463908836E0
1.122001650E1,-8.816736547E-1,6.045111743E-1,-6.371862339E0,6.460914166E0
1.123007150E1,-7.731124216E-1,8.951166227E-1,-6.349431835E0,6.458654753E0
1.124012650E1,-8.383419860E-1,9.893959585E-1,-6.139682270E0,6.275143028E0
1.125018150E1,-8.963857609E-1,1.023143895E0,-5.863149900E0,6.018875112E0
1.126023650E1,-9.872216713E-1,8.714253129E-1,-5.372635165E0,5.531654121E0
1.127029150E1,-9.931668279E-1,6.875770122E-1,-4.891653730E0,5.038592930E0
1.128034650E1,-7.474735504E-1,7.606537592E-1,-4.508086908E0,4.632511028E0
1.129040150E1,-4.521540036E-1,9.344748160E-1,-3.930455677E0,4.065239015E0
1.130045650E1,-3.540405024E-1,8.744753668E-1,-2.634436115E0,2.798268302E0
1.131051150E1,-3.666870066E-1,4.819130422E-1,-7.375923407E-1,9.543280370E-1
1.132056650E1,-2.071885584E-1,-3.096961690E-1,1.398674449E0,1.447456055E0
1.133062150E1,-3.170228764E-2,-1.342947853E0,3.430360864E0,3.684004564E0
1.134067650E1,-2.413817599E-1,-2.535011522E0,4.834244598E0,5.463924359E0
1.135073150E1,-6.761307952E-1,-3.199918294E0,5.364644360E0,6.282996025E0
1.136078550E1,-9.321145874E-1,-2.931406550E0,5.137836712E0,5.988267533E0
1.137084050E1,-8.082098950E-1,-2.189180437E0,4.511141494E0,5.078987281E0
1.138089550E1,-3.817408825E-1,-1.429772866E0,3.702596700E0,3.987379950E0
1.139095050E1,2.359465536E-1,-5.364489993E-1,2.961698343E0,3.019123280E0
1.140100550E1,7.379326487E-1,3.322270989E-1,2.391089033E0,2.524326881E0
1.141106050E1,8.348607731E-1,9.489957914E-1,1.934452481E0,2.310777342E0
1.142111550E1,7.146158530E-1,1.142928639E0,1.623616835E0,2.110235371E0
1.143117050E1,5.732442118E-1,9.315434606E-1,1.412498437E0,1.786486490E0
1.144122550E1,2.470061235E-1,4.433800372E-1,1.234512116E0,1.334772657E0
1.145128050E1,-5.609730989E-2,2.325466901E-2,1.023128838E0,1.024929416E0
1.146133550E1,-2.506088854E-1,-2.804964897E-1,7.903856814E-1,8.753242939E-1
1.147139050E1,-3.991161762E-1,-6.301943381E-1,5.250975072E-1,9.122313402E-1
1.148144550E1,-5.325543883E-1,-8.288271774E-1,2.228946912E-1,1.010074606E0
1.149150050E1,-5.288621639E-1,-7.972359869E-1,-3.036985338E-2,9.571847968E-1
1.150155550E1,-4.713622532E-1,-6.514673857E-1,9.930911064E-3,8.041708472E-1
1.151160950E1,-1.839198560E-1,-3.405897868E-1,1.178377676E-1,4.046154418E-1
1.152166450E1,1.632118687E-1,9.834607422E-2,4.733788848E-2,1.963439332E-1
1.153171950E1,1.974704859E-1,2.849416892E-1,-9.843144357E-2,3.603818921E-1
1.154177450E1,5.897852540E-2,1.719534561E-1,-2.902622169E-1,3.424888496E-1
1.155182950E1,3.998472244E-3,9.172410250E-2,-4.912117231E-1,4.997181762E-1
1.156188450E1,1.142939164E-1,2.755437519E-1,-6.088851839E-1,6.780329090E-1
1.157193950E1,1.832452335E-1,5.021982028E-1,-5.818488282E-1,7.901454988E-1
1.158199450E1,3.187483167E-1,6.028900337E-1,-3.611556137E-1,7.716931122E-1
1.159204950E1,5.037906189E-1,5.848250610E-1,-1.071326852E-1,7.792963184E-1
1.160210450E1,7.143772866E-1,6.482156029E-1,9.939214110E-2,9.697407763E-1
1.161215950E1,1.004712082E0,9.410812926E-1,2.304188883E-1,1.395769763E0
1.162221450E1,1.016202226E0,1.266019399E0,3.205677509E-1,1.654761543E0
1.163226950E1,5.716579353E-1,1.170084716E0,3.255513328E-1,1.342339267E0
1.164232450E1,-4.298799857E-2,5.630079299E-1,2.883957857E-1,6.340331430E-1
1.165237850E1,-5.289126693E-1,-1.963234815E-1,3.119939786E-1,6.446950937E-1
1.166243350E1,-7.365838422E-1,-6.597606379E-1,4.174087518E-1,1.073345202E0
1.167248850E1,-7.602853847E-1,-7.223392940E-1,5.101847684E-1,1.166231718E0
1.168254350E1,-5.860243980E-1,-4.926366895E-1,6.474189198E-1,1.002629922E0
1.169259850E1,-4.040110266E-1,-2.630902058E-1,9.408000416E-1,1.057140522E0
1.170265350E1,-3.033831496E-1,-1.299727866E-1,1.107876043E0,1.155994631E0
1.171270850E1,-1.872245561E-1,-3.318148702E-3,9.640374613E-1,9.820551264E-1
1.172276350E1,-9.970299371E-2,1.141968526E-1,5.156706262E-1,5.374921421E-1
1.173281850E1,-6.615503244E-2,2.744063222E-1,-7.152080297E-2,2.911881578E-1
1.174287350E1,-1.309337765E-1,3.696228205E-1,-5.534430546E-1,6.782801028E-1
1.175292850E1,-2.499949278E-1,3.034497347E-1,-7.604467678E-1,8.560715461E-1
1.176298350E1,-2.686800709E-1,1.682067065E-1,-8.247363192E-1,8.835567173E-1
1.177303850E1,-1.521740797E-1,1.495698760E-1,-8.542822999E-1,8.805261758E-1
1.178309350E1,-9.000735998E-2,1.451767167E-1,-8.170519084E-1,8.347163739E-1
1.179314750E1,-6.823890701E-2,5.611689806E-2,-6.311262381E-1,6.372801449E-1
1.180320250E1,-3.262168922E-2,-1.584814712E-2,-5.079423612E-1,5.092354865E-1
1.181325750E1,3.060885832E-2,-1.208182396E-1,-5.034534538E-1,5.186514527E-1
1.182331250E1,1.398911262E-1,-1.979588015E-1,-5.405142760E-1,5.923790145E-1
1.183336750E1,3.168402971E-1,-3.610363305E-3,-6.782448560E-1,7.486099741E-1
1.184342250E1,4.626126990E-1,2.553688113E-1,-8.048113471E-1,9.627798521E-1
1.185347750E1,6.071839365E-1,3.119061242E-1,-8.039979994E-1,1.054689787E0
1.186353250E1,6.341397469E-1,2.814412536E-1,-7.738579416E-1,1.039325989E0
1.187358750E1,5.916231801E-1,2.384162714E-1,-7.674102169E-1,9.978871413E-1
1.188364250E1,5.700336519E-1,2.457368392E-1,-9.031661922E-1,1.095917027E0
1.189369750E1,5.563804033E-1,1.900815788E-1,-9.118095464E-1,1.084936315E0
1.190375250E1,4.643576543E-1,1.417847469E-2,-8.280978835E-1,9.495131199E-1
1.191380750E1,3.398802271E-1,-1.007935725E-1,-7.724049085E-1,8.498748471E-1
1.192386250E1,2.732715239E-1,-1.072581080E-1,-9.198541456E-1,9.655637093E-1
1.193391750E1,2.737064105E-1,-4.019653782E-2,-9.821766937E-1,1.020393071E0
1.194397150E1,1.882905766E-1,-5.502098367E-2,-8.921102768E-1,9.134229009E-1
1.195402633E1,9.964430228E-2,-9.641035348E-2,-8.048060846E-1,8.166619724E-1
1.196408133E1,1.165287222E-1,-9.645143017E-2,-7.619968647E-1,7.768661682E-1
1.197413633E1,1.224064896E-1,-1.537235919E-1,-5.007309902E-1,5.379087431E-1
1.198419133E1,6.315957695E-2,-1.419293194E-1,-2.090040457E-1,2.604145829E-1
1.199424633E1,5.952465534E-2,-8.267232031E-2,-1.449828815E-1,1.771946192E-1
1.200430133E1,2.132289514E-2,-9.830850586E-2,-1.101463401E-1,1.491691806E-1
1.201435633E1,-2.657091737E-2,-7.814876810E-2,-1.192539632E-2,8.339939258E-2
1.202441133E1,-1.429293394E-2,5.820757002E-3,-2.067341566E-2,2.579843576E-2
1.203446633E1,7.945518225E-2,1.397509392E-1,-3.039967418E-3,1.607877246E-1
1.204452133E1,6.433282077E-2,1.271861498E-1,2.069025564E-1,2.512442962E-1
1.205457633E1,5.380900204E-3,5.922352374E-2,4.673135680E-1,4.710821061E-1
1.206463133E1,3.980199695E-2,8.854117066E-2,5.655736881E-1,5.738443470E-1
1.207468633E1,1.270880628E-1,1.753695457E-1,6.218864679E-1,6.585200318E-1
1.208474033E1,1.062080942E-1,1.927477629E-1,7.711822557E-1,8.019687843E-1
1.209479533E1,4.685213104E-2,1.320783690E-1,9.887770307E-1,9.986590180E-1
1.210485033E1,3.124825135E-2,2.405778408E-2,1.126919255E0,1.127609080E0
1.211490533E1,6.087273091E-2,-6.933482140E-3,1.153751543E0,1.155377075E0
1.212496033E1,5.298893005E-2,4.934026748E-2,1.060850396E0,1.063318320E0
1.213501533E1,5.122131675E-2,1.171790788E-1,9.037514985E-1,9.127548032E-1
1.214507033E1,6.989279196E-2,1.895556217E-1,7.279689932E-1,7.554834155E-1
1.215512533E1,1.012037547E-1,2.433647700E-1,5.651784164E-1,6.236146675E-1
1.216518033E1,1.130771108E-1,2.630282253E-1,5.458761728E-1,6.164017167E-1
1.217523533E1,1.212645283E-1,2.682309316E-1,4.500549263E-1,5.377753761E-1
1.218529033E1,1.245057862E-1,3.219460858E-1,2.212323278E-1,4.099935559E-1
1.219534533E1,1.429712932E-1,4.230277799E-1,-9.613641143E-2,4.567663548E-1
1.220540033E1,1.411044234E-1,4.467025714E-1,-2.612395620E-1,5.363765043E-1
1.221545533E1,1.133435977E-1,3.571195731E-1,-3.592131686E-1,5.190522720E-1
1.222550933E1,6.141886085E-2,2.648857395E-1,-4.464898789E-1,5.227714065E-1
1.223556433E1,7.003765672E-2,1.981519058E-1,-5.926614994E-1,6.288219971E-1
1.224561933E1,1.532376882E-1,2.001004905E-1,-7.451960599E-1,7.866633099E-1
1.225567433E1,1.722858703E-1,1.851459441E-1,-6.640922552E-1,7.106194236E-1
1.226572933E1,2.664878766E-1,9.896251693E-2,-3.063239336E-1,4.179039608E-1
1.227578433E1,3.979549192E-1,2.052518874E-2,5.884930193E-2,4.028059600E-1
1.228583933E1,5.239448749E-1,6.922518611E-2,1.284960723E-1,5.438948417E-1
1.229589433E1,4.325162029E-1,3.971925884E-2,-6.029064059E-2,4.385006803E-1
1.230594933E1,3.108056782E-1,-5.728619501E-2,-3.178125429E-1,4.482038489E-1
1.231600433E1,2.123480684E-1,-1.979175787E-1,-4.429020274E-1,5.295519577E-1
1.232605933E1,9.662523866E-2,-2.580133608E-1,-6.147891176E-1,6.737009650E-1
1.233611433E1,4.172719270E-3,-2.995395555E-1,-7.001309842E-1,7.615279062E-1
1.234616933E1,-3.358567581E-2,-3.321329588E-1,-6.015141839E-1,6.879386697E-1
1.235622333E1,1.524369121E-2,-3.470502292E-1,-4.757347280E-1,5.890668579E-1
1.236627833E1,1.041108441E-1,-2.318394694E-1,-4.292411774E-1,4.988352392E-1
1.237633333E1,2.249334691E-1,-4.992952064E-2,-4.017925930E-1,4.631687709E-1
1.238638833E1,2.229312363E-1,2.221605733E-2,-3.436011028E-1,4.101872831E-1
1.239644333E1,1.780759294E-1,-3.964894608E-2,-2.019768620E-1,2.721722402E-1
1.240649833E1,1.432627769E-1,-1.783390541E-1,6.495671868E-3,2.288476245E-1
1.241655333E1,1.454177682E-1,-2.435749774E-1,2.360380626E-1,3.690380250E-1
1.242660833E1,1.640370570E-1,-2.244659843E-1,4.231501329E-1,5.063093611E-1
1.243666333E1,2.180267380E-1,-1.673753786E-1,5.717647201E-1,6.344013485E-1
1.244671833E1,2.061511892E-1,-1.416587394E-1,6.844534296E-1,7.287262919E-1
1.245677333E1,1.484853637E-1,-1.604543218E-1,7.054110199E-1,7.385107986E-1
1.246682833E1,1.292540176E-1,-1.983950038E-1,6.183956802E-1,6.621785227E-1
1.247688333E1,1.257108973E-1,-1.094081292E-1,4.350802070E-1,4.659057361E-1
1.248693833E1,1.524912912E-1,3.931916311E-2,2.472015667E-1,2.931010151E-1
1.249699233E1,2.109203245E-1,1.749846527E-1,1.032121271E-1,2.928476654E-1
1.250704733E1,2.075460425E-1,2.386298409E-1,3.138843834E-2,3.178125152E-1
1.251710233E1,1.747789769E-1,2.516803877E-1,4.450140417E-2,3.096305594E-1
1.252715733E1,2.029083234E-1,1.938270128E-1,2.156289411E-1,3.538877489E-1
1.253721233E1,1.944599739E-1,6.065419123E-2,4.619914323E-1,5.049056307E-1
1.254726733E1,1.307585062E-1,-4.970308721E-2,4.856720710E-1,5.054162090E-1
1.255732233E1,4.649735123E-2,-4.382751256E-2,3.545681405E-1,3.602796425E-1
1.256737733E1,1.754310876E-2,-2.227906108E-2,1.536256510E-1,1.562208625E-1
1.257743233E1,2.299680680E-2,1.802623495E-2,-6.401824057E-2,7.037139615E-2
1.258748733E1,7.765540928E-3,9.146112397E-2,-3.335766363E-1,3.459751626E-1
1.259754233E1,-5.696474433E-2,1.376243068E-1,-5.476654208E-1,5.675586710E-1
1.260759733E1,-8.343172744E-2,1.683157571E-1,-7.395154899E-1,7.630034122E-1
1.261765233E1,-1.286758742E-1,1.140383931E-1,-9.189922661E-1,9.349379770E-1
1.262770633E1,-2.636986086E-1,-1.257180601E-2,-1.049459435E0,1.082155308E0
1.263776133E1,-3.641976276E-1,-6.083881706E-2,-1.165867558E0,1.222942532E0
1.264781633E1,-4.643829435E-1,-1.746273878E-1,-1.135543313E0,1.239195246E0
1.265787133E1,-5.107747525E-1,-2.858471306E-1,-1.037479659E0,1.191202532E0
1.266792633E1,-4.772865790E-1,-3.156350398E-1,-9.348645329E-1,1.096083780E0
1.267798133E1,-4.194068916E-1,-2.765526889E-1,-7.990629494E-1,9.438671133E-1
1.268803633E1,-2.604444869E-1,-2.035548793E-1,-7.372748369E-1,8.079852132E-1
1.269809133E1,-1.492795618E-1,-1.497134252E-1,-7.297792912E-1,7.597870169E-1
1.270814633E1,-5.750122637E-2,-1.779645400E-1,-6.627970970E-1,6.886782705E-1
1.271820133E1,-3.095296696E-2,-2.376704590E-1,-6.177366990E-1,6.626039258E-1
1.272825633E1,-1.639456943E-2,-2.161168912E-1,-5.204630041E-1,5.637881084E-1
1.273831133E1,-1.123864084E-2,-2.926097278E-1,-3.468088853E-1,4.538977449E-1
1.274836633E1,2.881829470E-2,-4.802183729E-1,-1.537232995E-3,4.810847565E-1
1.275842133E1,8.065956250E-2,-6.376480763E-1,4.243862343E-1,7.701978382E-1
1.276847533E1,1.232134053E-1,-7.521491303E-1,7.078159797E-1,1.040150623E0
1.277853033E1,2.210152499E-1,-6.962484330E-1,8.016743159E-1,1.084569652E0
1.278858533E1,2.914282979E-1,-5.151382372E-1,6.982247919E-1,9.153227388E-1
1.279864033E1,3.902306011E-1,-3.191286050E-1,4.756236309E-1,6.930662500E-1
1.280869533E1,5.090895849E-1,-8.735769421E-2,3.326159388E-1,6.143589626E-1
1.281875033E1,5.212042849E-1,2.197617531E-2,1.943076539E-1,5.566797313E-1
1.282880533E1,4.744448322E-1,5.088510185E-2,4.530422688E-3,4.771872977E-1
1.283886033E1,3.589976987E-1,-1.273362771E-2,-1.337948191E-1,3.833308579E-1
1.284891533E1,1.789302076E-1,-5.900936946E-2,-2.908323205E-1,3.465278683E-1
1.285897033E1,6.851255670E-2,-1.420768154E-1,-4.038742018E-1,4.335829364E-1
1.286902533E1,1.868813977E-2,-2.523311828E-1,-4.135542673E-1,4.848168772E-1
1.287908033E1,-8.348186731E-2,-2.736014530E-1,-5.083569288E-1,5.833127329E-1
1.288913533E1,-2.182446930E-1,-2.097098047E-1,-7.456977510E-1,8.047820103E-1
1.289918933E1,-2.901438108E-1,-1.208389972E-1,-1.063925446E0,1.109379488E0
1.290924433E1,-2.911474854E-1,-5.440103263E-3,-1.426891358E0,1.456301961E0
1.291929933E1,-2.522506374E-1,1.975684999E-1,-1.840287166E0,1.867972309E0
1.292935433E1,-2.576277369E-1,3.878288573E-1,-2.210951521E0,2.259444601E0
1.293940933E1,-3.217988822E-1,4.341243334E-1,-2.476098193E0,2.534379750E0
1.294946471E1,-3.844361566E-1,3.223792183E-1,-2.456235786E0,2.506953082E0
1.295951971E1,-4.798751414E-1,1.773064359E-1,-2.237731769E0,2.295465355E0
1.296957471E1,-4.779079919E-1,1.495966271E-2,-1.885525319E0,1.945205791E0
1.297962971E1,-4.412601292E-1,-1.081904465E-1,-1.574580331E0,1.638816308E0
1.298968471E1,-4.788533404E-1,-1.928508201E-1,-1.408017715E0,1.499668579E0
1.299973971E1,-5.569679023E-1,-1.990094000E-1,-1.038477779E0,1.195095847E0
1.300979471E1,-4.865022294E-1,-1.606734462E-1,-9.456415361E-1,1.075517685E0
1.301984971E1,-3.946367705E-1,3.264602825E-2,-1.034561314E0,1.107754962E0
1.302990371E1,-3.205712593E-1,1.449689944E-1,-1.032670909E0,1.090958821E0
1.303995871E1,-1.974331369E-1,1.608683047E-1,-9.815335000E-1,1.014034746E0
1.305001371E1,-1.234303370E-1,1.048725902E-1,-8.365131962E-1,8.520490806E-1
1.306006871E1,-1.400077781E-1,6.598743662E-2,-6.033560568E-1,6.228924875E-1
1.307012371E1,-2.597333193E-1,-1.802550405E-3,-3.915178657E-1,4.698413407E-1
1.308017871E1,-3.793714446E-1,-9.076018900E-2,-2.936103326E-1,4.882285656E-1
1.309023371E1,-4.550870401E-1,-8.873588294E-2,-2.845857400E-1,5.440287808E-1
1.310028871E1,-5.075484051E-1,-3.320546061E-2,-3.450219762E-1,6.146121950E-1
1.311034371E1,-4.947891958E-1,9.210358679E-2,-4.774503011E-1,6.937277629E-1
1.312039871E1,-4.052367492E-1,2.641790304E-1,-6.489280862E-1,8.093917741E-1
1.313045371E1,-2.925424848E-1,4.145585997E-1,-7.172165483E-1,8.785439745E-1
1.314050871E1,-2.128401116E-1,5.497118732E-1,-7.750536972E-1,9.737516573E-1
1.315056371E1,-2.155042492E-1,5.825750524E-1,-7.709974837E-1,9.900873158E-1
1.316061771E1,-3.180402920E-1,5.529597091E-1,-8.627408820E-1,1.072956615E0
1.317067271E1,-3.955879663E-1,5.546956012E-1,-1.105444770E0,1.298531936E0
1.318072771E1,-4.432562225E-1,4.738670542E-1,-1.181547452E0,1.347991263E0
1.319078271E1,-4.778520048E-1,2.796219655E-1,-1.037360376E0,1.175860337E0
1.320083771E1,-5.055770163E-1,1.314500856E-1,-8.728793693E-1,1.017253969E0
1.321089271E1,-4.828462578E-1,4.999011241E-2,-7.837970388E-1,9.219421446E-1
1.322094771E1,-4.645130441E-1,-8.909351327E-2,-7.216142392E-1,8.628077031E-1
1.323100271E1,-5.096759145E-1,-2.383810419E-1,-7.620874965E-1,9.472974249E-1
1.324105771E1,-5.822125250E-1,-3.471018308E-1,-9.679480791E-1,1.181682948E0
1.325111271E1,-6.421029237E-1,-3.465413021E-1,-1.309905530E0,1.499413064E0
1.326116771E1,-7.248360550E-1,-3.410805143E-1,-1.692259639E0,1.872288949E0
1.327122271E1,-8.135555658E-1,-3.362761496E-1,-2.088994390E0,2.266903586E0
1.328127771E1,-9.110904850E-1,-2.836455077E-1,-2.477977488E0,2.655355546E0
1.329133171E1,-1.024260713E0,-2.350535376E-1,-2.944026303E0,3.125964019E0
1.330138671E1,-1.038425008E0,-1.442508101E-1,-3.397553891E0,3.555630357E0
1.331144171E1,-1.051369574E0,-4.320186049E-2,-3.656865041E0,3.805247208E0
1.332149671E1,-1.100253905E0,-4.493658319E-2,-3.677079450E0,3.838423014E0
1.333155171E1,-1.112362757E0,-1.183110997E-2,-3.439915214E0,3.615315693E0
1.334160671E1,-1.105851298E0,6.881880462E-2,-3.166975374E0,3.355201356E0
1.335166171E1,-1.098742546E0,1.301524423E-1,-2.817474430E0,3.026935250E0
1.336171671E1,-1.100037850E0,3.826710284E-2,-2.242403110E0,2.497983056E0
1.337177171E1,-1.212881511E0,-1.827795759E-1,-1.713935267E0,2.107620467E0
1.338182671E1,-1.268982475E0,-3.283721758E-1,-1.378706793E0,1.902360962E0
1.339188171E1,-1.177989275E0,-3.058124484E-1,-1.011193501E0,1.582306001E0
1.340193671E1,-8.999756590E-1,-1.444816290E-1,-5.878083104E-1,1.084596578E0
1.341199171E1,-5.509467320E-1,9.137034595E-2,-1.437409329E-1,5.766734756E-1
1.342204571E1,-3.702227448E-1,1.798536292E-1,3.476842135E-1,5.387917232E-1
1.343210071E1,-3.051065433E-1,2.833136782E-2,8.716309887E-1,9.239227509E-1
1.344215571E1,-2.775136788E-1,-2.471319848E-1,1.429110376E0,1.476632834E0
1.345221071E1,-2.726140045E-1,-4.237031333E-1,1.969031745E0,2.032468635E0
1.346226571E1,-2.578281502E-1,-4.949454626E-1,2.406117547E0,2.469989476E0
1.347232071E1,-3.603522062E-2,-3.214601822E-1,2.778476425E0,2.797242648E0
1.348237571E1,4.780113414E-1,2.002148035E-1,3.046333866E0,3.090102075E0
1.349243071E1,1.224821964E0,7.268866736E-1,3.464143152E0,3.745509426E0
1.350248571E1,1.811064828E0,1.028397910E0,4.274493567E0,4.754876794E0
1.351254071E1,2.065638418E0,9.029868288E-1,5.503573034E0,5.947399720E0
1.352259571E1,2.329740631E0,5.684177738E-1,6.743149424E0,7.156874620E0
1.353265071E1,2.243898827E0,2.585206068E-1,7.842297328E0,8.161099327E0
1.354270471E1,2.065275014E0,2.743570594E-1,8.756256310E0,9.000703153E0
1.355275971E1,2.049746417E0,1.668133150E-1,9.632561563E0,9.849646152E0
1.356281471E1,2.073365368E0,4.471117303E-2,1.033152954E1,1.053761575E1
1.357286971E1,1.989935248E0,-7.552687660E-2,1.086469503E1,1.104568444E1
1.358292471E1,1.767964709E0,-2.297603457E-1,1.111107682E1,1.125320030E1
1.359297971E1,1.900419639E0,-8.648031950E-2,1.092357649E1,1.108799337E1
1.360303471E1,2.201992125E0,4.920284329E-1,1.078111610E1,1.101468682E1
1.361308971E1,2.434799309E0,9.588097581E-1,1.081500072E1,1.112707528E1
1.362314471E1,2.639888351E0,1.066912058E0,1.099862785E1,1.136121148E1
1.363319971E1,2.581036126E0,9.721219678E-1,1.150339224E1,1.182940412E1
1.364325471E1,2.577338639E0,6.828793591E-1,1.207885299E1,1.236962765E1
1.365330971E1,2.400541203E0,2.842169268E-1,1.238135986E1,1.261512780E1
1.366336471E1,1.942179576E0,-5.913230717E-2,1.261551512E1,1.276427749E1
1.367341871E1,1.730560656E0,2.553859144E-2,1.256559627E1,1.268423045E1
1.368347371E1,1.777877202E0,5.180039576E-1,1.229584784E1,1.243451043E1
1.369352871E1,1.819821326E0,9.965685917E-1,1.188566800E1,1.206540519E1
1.370358371E1,1.823946244E0,1.330338771E0,1.127393464E1,1.149774688E1
1.371363871E1,1.648924608E0,1.608022311E0,1.061164157E1,1.085871194E1
1.372369371E1,1.329504958E0,1.678588264E0,9.847398791E0,1.007752474E1
1.373374871E1,9.536380421E-1,1.583566917E0,8.905987716E0,9.095808204E0
1.374380371E1,6.273242323E-1,1.425091731E0,8.091722590E0,8.240169696E0
1.375385871E1,3.390402015E-1,1.169996569E0,7.734616758E0,7.829951253E0
1.376391371E1,3.433444101E-1,9.332638577E-1,7.490546376E0,7.556265732E0
1.377396871E1,4.644442662E-1,8.501658601E-1,6.903374827E0,6.971016746E0
1.378402371E1,7.649674695E-1,9.511408424E-1,6.043645261E0,6.165670456E0
1.379407771E1,1.040133930E0,1.018836251E0,4.894075647E0,5.106063291E0
1.380413271E1,1.007632035E0,1.056153327E0,3.149875191E0,3.471670476E0
1.381418771E1,6.183035865E-1,6.954171051E-1,1.304835994E0,1.602654437E0
1.382424271E1,2.935579269E-1,2.124120954E-1,-5.301728904E-1,6.421669942E-1
1.383429771E1,2.914800458E-1,-1.867170909E-1,-2.213310873E0,2.240216264E0
1.384435271E1,5.735000275E-1,-5.831695680E-1,-3.549603133E0,3.642618759E0
1.385440771E1,2.553592365E-1,-1.020539691E0,-4.316829747E0,4.443166513E0
1.386446271E1,2.037648674E-2,-1.521698259E0,-5.049195846E0,5.273552833E0
1.387451771E1,-1.291784058E-1,-2.266527844E0,-5.974719452E0,6.391487156E0
1.388457271E1,-7.358190995E-2,-2.837957227E0,-6.965259418E0,7.521585889E0
1.389462771E1,-1.186893049E-1,-3.191757335E0,-8.129965720E0,8.734858021E0
1.390468271E1,-5.108305569E-1,-3.229077774E0,-9.350785995E0,9.905810914E0
1.391473771E1,-9.298968847E-1,-3.147216755E0,-1.061829103E1,1.111385558E1
1.392479171E1,-1.160379873E0,-2.942201387E0,-1.172594312E1,1.214498960E1
1.393484671E1,-1.312738359E0,-2.752208101E0,-1.254681969E1,1.291203376E1
1.394490171E1,-1.314672472E0,-2.594711009E0,-1.318625015E1,1.350326190E1
1.395495621E1,-1.012731904E0,-2.578760097E0,-1.385849751E1,1.413271322E1
1.396501121E1,-6.944899560E-1,-2.560094908E0,-1.429993657E1,1.454388490E1
1.397506621E1,-4.942153281E-1,-2.667998841E0,-1.425448850E1,1.451044138E1
1.398512121E1,-2.736161076E-1,-2.978734498E0,-1.370253356E1,1.402523265E1
1.399517621E1,-1.916661742E-1,-3.417542890E0,-1.296333090E1,1.340762034E1
1.400523121E1,-1.934167575E-1,-3.856314152E0,-1.233555745E1,1.292573195E1
1.401528621E1,-2.028825043E-1,-4.253801732E0,-1.173700371E1,1.248572171E1
1.402534121E1,-1.459018446E-1,-4.580803175E0,-1.109143719E1,1.200104262E1
1.403539621E1,-1.039228013E-1,-4.845411318E0,-1.059437825E1,1.165030735E1
1.404545021E1,-7.517355859E-2,-5.007301716E0,-1.016390390E1,1.133065152E1
1.405550521E1,-1.229486726E-3,-5.058025142E0,-9.844568739E0,1.106793357E1
1.406556021E1,-2.532922458E-2,-5.165406919E0,-9.645049462E0,1.094116307E1
1.407561521E1,-2.387635594E-1,-5.411984003E0,-9.726184841E0,1.113307013E1
1.408567021E1,-2.457811684E-1,-5.398983888E0,-1.007137171E1,1.142987154E1
1.409572521E1,-2.435925190E-1,-5.063412182E0,-1.056966909E1,1.172243084E1
1.410578021E1,-3.245613992E-1,-4.881745331E0,-1.118048912E1,1.220410236E1
1.411583521E1,-4.599545182E-1,-5.087945929E0,-1.177191627E1,1.283264449E1
1.412589021E1,-8.574160420E-1,-5.443325078E0,-1.206362918E1,1.326258267E1
1.413594521E1,-1.302471818E0,-5.831296608E0,-1.209296583E1,1.348852384E1
1.414600021E1,-1.579557481E0,-6.028105701E0,-1.188052713E1,1.341566193E1
1.415605521E1,-1.636106488E0,-6.074532008E0,-1.117814789E1,1.282683803E1
1.416610921E1,-1.669991980E0,-6.058311247E0,-1.031563914E1,1.207909017E1
1.417616421E1,-1.746881404E0,-6.195402727E0,-9.532285908E0,1.150213390E1
1.418621921E1,-1.791410582E0,-6.323968381E0,-8.993253901E0,1.113913568E1
1.419627421E1,-1.836260773E0,-6.231599915E0,-8.607209029E0,1.078372563E1
1.420632921E1,-1.941936917E0,-5.690116755E0,-8.196714610E0,1.016536660E1
1.421638421E1,-2.353872236E0,-4.656394517E0,-7.676208336E0,9.281535370E0
1.422643921E1,-2.818637149E0,-3.482714202E0,-7.604968784E0,8.826639440E0
1.423649421E1,-3.166690907E0,-2.939705796E0,-6.736805195E0,8.003395885E0
1.424654921E1,-3.423713749E0,-2.266960538E0,-4.593201903E0,6.161041279E0
1.425660421E1,-3.277581890E0,-3.733698624E-1,-2.197453224E0,3.963678691E0
1.426665921E1,-2.436770698E0,1.708344160E0,1.565738171E-1,2.980068214E0
1.427671421E1,-8.243721838E-1,2.954029135E0,3.254629229E0,4.471967022E0
1.428676821E1,9.487264540E-1,3.611242141E0,7.733146768E0,8.587357604E0
1.429682321E1,2.572108889E0,4.060074122E0,1.208417396E1,1.300489163E1
1.430687821E1,3.721631725E0,3.657632488E0,1.562853857E1,1.647665123E1
1.431693321E1,4.052662776E0,2.541468017E0,1.780026580E1,1.843183653E1
1.432698821E1,4.554809085E0,1.292627884E0,1.849405782E1,1.909050411E1
1.433704321E1,5.163086743E0,2.888495296E-2,2.003993066E1,2.069437411E1
1.434709821E1,5.169340925E0,-9.138509555E-1,2.222100291E1,2.283265598E1
1.435715321E1,4.418084519E0,-1.431293434E0,2.431327466E1,2.475284623E1
1.436720821E1,3.087291858E0,-1.297319398E0,2.532512831E1,2.554557756E1
1.437726321E1,1.843907469E0,-4.944661371E-1,2.328666731E1,2.336478902E1
1.438731821E1,7.701347271E-1,5.608452641E-1,1.913107571E1,1.915478302E1
1.439737321E1,5.377823838E-1,1.851579893E0,1.467408352E1,1.480021234E1
1.440742721E1,9.889303008E-1,3.285686131E0,1.077721835E1,1.131026754E1
1.441748221E1,1.140665182E0,3.921238711E0,8.249498595E0,9.204969155E0
1.442753721E1,7.366789325E-1,3.729771634E0,7.023480729E0,7.986436868E0
1.443759221E1,5.039400883E-2,3.199535594E0,6.500108736E0,7.245065986E0
1.444764721E1,-5.190977523E-1,2.477039595E0,6.314204115E0,6.802526093E0
1.445770221E1,-8.883464241E-1,1.658083833E0,6.194145575E0,6.473472080E0
1.446775721E1,-1.146253146E0,1.021623618E0,5.765044731E0,5.966016413E0
1.447781221E1,-1.140188780E0,7.166344580E-1,5.097762820E0,5.272644608E0
1.448786721E1,-8.538050209E-1,8.447793319E-1,4.015259600E0,4.191055331E0
1.449792221E1,-3.813161554E-1,1.216964475E0,2.531162007E0,2.834287504E0
1.450797721E1,-6.783892091E-2,1.573582796E0,7.787859750E-1,1.757063610E0
1.451803221E1,-7.590928450E-3,1.767532162E0,-8.568831414E-1,1.964300456E0
1.452808621E1,2.276394144E-3,1.769489079E0,-2.186333574E0,2.812676888E0
1.453814121E1,1.819339223E-2,1.643590193E0,-3.078951389E0,3.490223686E0
1.454819621E1,1.233562236E-1,1.542587290E0,-3.526270988E0,3.850893323E0
1.455825121E1,2.407830781E-1,1.389951573E0,-3.688689097E0,3.949223863E0
1.456830621E1,1.748248775E-1,1.067274439E0,-3.734998460E0,3.888425384E0
1.457836121E1,2.530704170E-2,7.655120645E-1,-3.801179586E0,3.877578550E0
1.458841621E1,6.034326553E-4,3.940141882E-1,-3.740241074E0,3.760937494E0
1.459847121E1,-6.423297957E-2,-1.173777379E-1,-3.593877665E0,3.596367623E0
1.460852621E1,-2.714214648E-1,-5.261796076E-1,-3.615505931E0,3.663661792E0
1.461858121E1,-3.457848186E-1,-7.841171739E-1,-3.790666292E0,3.886329608E0
1.462863621E1,-3.309163725E-1,-1.018373297E0,-4.048143171E0,4.187368261E0
1.463869121E1,-3.602098265E-1,-1.218102928E0,-4.325089524E0,4.507762777E0
1.464874521E1,-4.553688759E-1,-1.437004117E0,-4.562184178E0,4.804775346E0
1.465880021E1,-4.822814168E-1,-1.363066075E0,-4.860973390E0,5.071450166E0
1.466885521E1,-2.469938444E-1,-1.075528661E0,-5.028717143E0,5.148374886E0
1.467891021E1,2.213171124E-2,-7.434635299E-1,-5.083003863E0,5.137135009E0
1.468896521E1,1.922984044E-1,-4.052075131E-1,-5.109085953E0,5.128735817E0
1.469902021E1,4.603040721E-1,-2.120331958E-2,-5.110471158E0,5.131203063E0
1.470907521E1,6.915683947E-1,3.089629282E-1,-5.020215291E0,5.077035208E0
1.471913021E1,5.734130502E-1,3.799023718E-1,-4.715254928E0,4.765160793E0
1.472918521E1,3.019938511E-1,8.860066608E-2,-4.095123795E0,4.107199686E0
1.473924021E1,7.866259217E-2,-3.016948391E-1,-3.222740854E0,3.237787237E0
1.474929521E1,1.887386195E-2,-5.541672322E-1,-2.091910982E0,2.164150896E0
1.475934921E1,5.448947176E-2,-6.612918775E-1,-8.545974648E-1,1.081948648E0
1.476940421E1,6.801028088E-2,-9.345708565E-1,5.082177651E-1,1.065989391E0
1.477945921E1,7.173912339E-2,-1.367666811E0,1.969487827E0,2.398862503E0
1.478951421E1,5.707781486E-2,-1.729635626E0,3.182502655E0,3.622598573E0
1.479956921E1,1.348897833E-1,-2.021681390E0,4.222656831E0,4.683612025E0
1.480962421E1,3.865239049E-1,-2.121417347E0,5.160513968E0,5.592916655E0
1.481967921E1,6.059397221E-1,-1.895022367E0,5.684619203E0,6.022720997E0
1.482973421E1,6.411270234E-1,-1.662159050E0,5.763272440E0,6.032339992E0
1.483978921E1,5.987618995E-1,-1.513327531E0,5.467575821E0,5.704652608E0
1.484984421E1,4.634693161E-1,-1.348247184E0,4.698335425E0,4.909880859E0
1.485989921E1,2.831075639E-1,-1.144551387E0,3.579837331E0,3.769002930E0
1.486995421E1,2.726691145E-1,-8.519036525E-1,2.509571164E0,2.664213900E0
1.488000821E1,3.402491865E-1,-5.279994804E-1,1.676114307E0,1.789947522E0
1.489006321E1,3.612517273E-1,-3.274100165E-1,9.512683117E-1,1.068930087E0
1.490011821E1,3.719499392E-1,-1.213933133E-1,1.905473095E-1,4.351911890E-1
1.491017321E1,3.895888692E-1,7.882777601E-2,-4.328886706E-1,5.876954197E-1
1.492022821E1,3.900553308E-1,2.297698474E-1,-9.495422137E-1,1.051935245E0
1.493028321E1,3.970833917E-1,3.275656986E-1,-1.427194244E0,1.517187502E0
1.494033821E1,3.950989198E-1,3.839299339E-1,-1.860416206E0,1.940271581E0
1.495039321E1,1.638127432E-1,2.404768302E-1,-2.038998358E0,2.059654831E0
1.496044821E1,-9.212887600E-2,-4.407558069E-2,-1.983883088E0,1.986510129E0
1.497050321E1,-2.312744822E-1,-2.673373309E-1,-1.870233096E0,1.903346781E0
1.498055821E1,-2.766496065E-1,-2.969866611E-1,-1.761794727E0,1.807942683E0
1.499061321E1,-2.904065701E-1,-4.293607530E-1,-1.552549776E0,1.636794868E0
1.500066721E1,-2.707580251E-1,-5.437840390E-1,-1.262717915E0,1.401237853E0
1.501072221E1,-1.687136601E-1,-4.583516867E-1,-1.161212590E0,1.259748088E0
1.502077721E1,4.065963730E-2,-1.558430614E-1,-1.183421484E0,1.194331058E0
1.503083221E1,2.573387383E-1,9.688690156E-2,-1.193971615E0,1.225225904E0
1.504088721E1,2.902892603E-1,7.866259217E-2,-1.013319549E0,1.057010958E0
1.505094221E1,2.130268570E-1,2.341400564E-2,-7.354826653E-1,7.660701067E-1
1.506099721E1,2.137019911E-1,-1.230444208E-2,-5.933631653E-1,6.307929820E-1
1.507105221E1,2.239514293E-1,5.349617600E-3,-5.061741632E-1,5.535297143E-1
1.508110721E1,1.580556478E-1,-3.434069753E-2,-2.793308473E-1,3.227794813E-1
1.509116221E1,1.580491427E-1,-7.055805892E-2,-9.550023437E-2,1.976822348E-1
1.510121721E1,1.897019483E-1,3.778646171E-2,-1.560189164E-1,2.485086480E-1
1.511127121E1,1.556243755E-1,2.193273050E-1,-3.415972620E-1,4.347552212E-1
1.512132621E1,1.215715802E-1,2.695298906E-1,-7.298693383E-1,7.874866742E-1
1.513138121E1,1.458690271E-2,3.627502955E-1,-1.030986911E0,1.093039142E0
1.514143621E1,-7.220054179E-2,4.153582795E-1,-1.079022372E0,1.158457897E0
1.515149121E1,-1.271422957E-1,3.508016565E-1,-8.597517854E-1,9.372300134E-1
1.516154621E1,-2.106666284E-1,2.727134071E-1,-5.585751557E-1,6.563225086E-1
1.517160121E1,-2.806553147E-1,1.422934547E-2,-1.896988785E-1,3.390509467E-1
1.518165621E1,-3.920876037E-1,-2.116105883E-1,9.561425507E-2,4.556904825E-1
1.519171121E1,-3.534471562E-1,-2.711700346E-1,3.369744533E-1,5.585784296E-1
1.520176621E1,-2.002928638E-1,-2.678967632E-1,6.553401428E-1,7.357693999E-1
1.521182121E1,2.701055489E-2,-1.469373134E-1,9.229987782E-1,9.350117051E-1
1.522187521E1,3.078905489E-1,6.075344771E-2,1.113777637E0,1.157146576E0
1.523193021E1,5.589118092E-1,2.642188646E-1,1.147656990E0,1.303576076E0
1.524198521E1,7.005353922E-1,3.735642824E-1,1.029447924E0,1.300024283E0
1.525204021E1,7.900866694E-1,4.011463295E-1,8.866062927E-1,1.253485557E0
1.526209521E1,8.397602282E-1,3.689363573E-1,8.444133693E-1,1.246733819E0
1.527215021E1,7.988406090E-1,2.247700395E-1,7.953066981E-1,1.149426219E0
1.528220521E1,6.944714642E-1,2.180324391E-2,8.620947647E-1,1.107236822E0
1.529226021E1,5.788022827E-1,-2.002557340E-1,1.118277070E0,1.275012959E0
1.530231521E1,5.770780119E-1,-2.989073253E-1,1.203986726E0,1.368191748E0
1.531237021E1,6.453501018E-1,-2.048807354E-1,8.589846307E-1,1.093758413E0
1.532242521E1,6.719980562E-1,-3.913629144E-2,4.647267598E-1,8.179755486E-1
1.533248021E1,7.272282971E-1,5.408016667E-2,1.502003521E-1,7.445440258E-1
1.534253421E1,7.415932249E-1,1.430541775E-1,-1.558873540E-1,7.711847224E-1
1.535258921E1,8.481090289E-1,3.023340860E-1,-4.314473319E-1,9.984195634E-1
1.536264421E1,8.695321307E-1,3.740437540E-1,-5.882386655E-1,1.114459323E0
1.537269921E1,6.994571657E-1,1.778157283E-1,-6.437538850E-1,9.670976292E-1
1.538275421E1,5.409115212E-1,-9.543810770E-2,-6.435550797E-1,8.460832387E-1
1.539280921E1,3.953273267E-1,-2.833347282E-1,-5.764728981E-1,7.542435056E-1
1.540286421E1,2.792261090E-1,-4.197569937E-1,-4.564178663E-1,6.800591315E-1
1.541291921E1,2.235326225E-1,-4.898013747E-1,-4.444287354E-1,6.981325954E-1
1.542297421E1,3.023612025E-1,-3.657377842E-1,-5.679920965E-1,7.401360992E-1
1.543302921E1,3.297153544E-1,-1.974375223E-1,-7.455416304E-1,8.387646349E-1
1.544308421E1,3.260184523E-1,-1.181924012E-1,-9.616956514E-1,1.022309151E0
1.545313821E1,3.259107904E-1,-3.829224586E-2,-1.165432525E0,1.210750639E0
1.546319321E1,3.921951925E-1,1.126026092E-1,-1.287332354E0,1.350452148E0
1.547324821E1,2.904245503E-1,1.015598501E-1,-1.271192869E0,1.307896071E0
1.548330321E1,1.241896711E-1,-4.882147327E-2,-1.228798217E0,1.236022519E0
1.549335821E1,3.847942986E-2,-1.059932090E-1,-1.123379350E0,1.129024531E0
1.550341321E1,-8.090901934E-2,-1.866761604E-1,-8.788172168E-1,9.020609507E-1
1.551346821E1,-2.355082317E-1,-3.094298284E-1,-6.458816868E-1,7.539058955E-1
1.552352321E1,-4.076259946E-1,-3.993499187E-1,-5.189514989E-1,7.713299989E-1
1.553357821E1,-4.821883730E-1,-3.126861428E-1,-4.931518292E-1,7.572826273E-1
1.554363321E1,-5.012634522E-1,-5.551638901E-2,-5.324883878E-1,7.334105270E-1
1.555368821E1,-5.840918932E-1,2.100195609E-1,-6.408753008E-1,8.921842337E-1
1.556374221E1,-5.945267612E-1,5.239527686E-1,-7.585294658E-1,1.096975626E0
1.557379721E1,-5.923591252E-1,8.259120481E-1,-6.047979802E-1,1.182709026E0
1.558385221E1,-7.009615812E-1,9.083539881E-1,-2.608010209E-1,1.176635576E0
1.559390721E1,-8.400941773E-1,7.304331560E-1,7.620500743E-2,1.115839606E0
1.560396221E1,-1.049139592E0,4.966231750E-1,5.132218122E-1,1.269143447E0
1.561401721E1,-1.137957848E0,3.542911287E-1,9.857423258E-1,1.546660338E0
1.562407221E1,-1.119380586E0,3.009002025E-1,1.419692266E0,1.832779299E0
1.563412721E1,-9.772271718E-1,3.329518613E-1,1.690830579E0,1.981095135E0
1.564418221E1,-6.929111347E-1,4.576415424E-1,1.956659621E0,2.125577214E0
1.565423721E1,-4.347140982E-1,5.923480886E-1,2.065304396E0,2.192107400E0
1.566429221E1,-2.867034553E-1,6.443479621E-1,2.099436348E0,2.214727104E0
1.567434621E1,-1.540881658E-1,6.922015750E-1,1.969518233E0,2.093296026E0
1.568440121E1,-7.055045754E-2,7.731244084E-1,1.707885738E0,1.876052348E0
1.569445621E1,2.300923213E-2,8.097788492E-1,1.396120970E0,1.614132886E0
1.570451121E1,6.426908612E-2,8.135783699E-1,1.097655694E0,1.367804190E0
1.571456621E1,1.271658307E-1,8.172217700E-1,8.070859140E-1,1.155599516E0
1.572462121E1,2.004536623E-1,7.963040869E-1,5.914259827E-1,1.011961740E0
1.573467621E1,2.631494819E-1,7.246223393E-1,4.966467100E-1,9.170513285E-1
1.574473121E1,2.448353447E-1,5.209360439E-1,4.799669427E-1,7.494577866E-1
1.575478621E1,1.916081406E-1,3.051793411E-1,4.761136276E-1,5.971032542E-1
1.576484121E1,1.654339568E-1,1.359442556E-1,3.988596296E-1,4.527010480E-1
1.577489621E1,1.439170072E-1,1.328838229E-2,2.460204291E-1,2.853326789E-1
1.578495021E1,1.992980332E-1,-9.035907000E-2,1.350046080E-1,2.571200338E-1
1.579500521E1,2.413072810E-1,-2.253930603E-1,1.305379200E-1,3.550653236E-1
1.580506021E1,1.985786795E-1,-4.280217406E-1,8.531087637E-2,4.794935328E-1
1.581511521E1,1.747871630E-1,-5.073189019E-1,-2.703167796E-3,5.365913973E-1
1.582517021E1,2.419078631E-1,-4.839750628E-1,-1.340807480E-1,5.574306438E-1
1.583522521E1,3.049011599E-1,-3.923078245E-1,-3.220675617E-1,5.921128784E-1
1.584528021E1,3.774019562E-1,-2.993666241E-1,-5.287508476E-1,7.152832103E-1
1.585533521E1,3.543920662E-1,-2.770152037E-1,-7.526378113E-1,8.768094632E-1
1.586539021E1,2.947479815E-1,-1.827075090E-1,-8.854409426E-1,9.509280043E-1
1.587544521E1,3.141517474E-1,-8.391836196E-2,-9.523652494E-1,1.006346451E0
1.588550021E1,3.701858342E-1,-3.757099181E-2,-9.574137354E-1,1.027175833E0
1.589555421E1,3.374826495E-1,-6.865040481E-2,-9.039035261E-1,9.672895126E-1
1.590560921E1,2.668576399E-1,-1.742519966E-1,-8.354741460E-1,8.942000933E-1
1.591566421E1,1.298438555E-1,-2.393244901E-1,-7.878608537E-1,8.335828472E-1
1.592571921E1,5.496324241E-2,-2.871289864E-1,-7.580149108E-1,8.124349930E-1
1.593577421E1,1.073355836E-1,-2.529014325E-1,-8.227125978E-1,8.673730920E-1
1.594582921E1,1.514376960E-1,-2.062051298E-1,-8.179044324E-1,8.569840091E-1
1.595588408E1,1.860175446E-1,-1.643218164E-1,-7.241706419E-1,7.655242027E-1
1.596593908E1,2.462968563E-1,-1.287765925E-1,-6.395783883E-1,6.973564849E-1
1.597599408E1,2.516397496E-1,-1.098557335E-1,-5.944864154E-1,6.548319966E-1
1.598604908E1,1.898416237E-1,-9.564349115E-2,-6.379844373E-1,6.724668481E-1
1.599610408E1,1.498750276E-1,-7.301476657E-2,-7.747601670E-1,7.924941618E-1
1.600615808E1,2.414037600E-1,1.741096169E-2,-8.509300911E-1,8.846812629E-1
1.601621308E1,2.092603730E-1,7.817873508E-3,-8.007416850E-1,8.276703867E-1
1.602626808E1,7.160047129E-2,-9.659293279E-2,-6.739804816E-1,6.846214368E-1
1.603632308E1,-7.146298863E-2,-2.817681129E-1,-5.206185400E-1,5.962750141E-1
1.604637808E1,-2.138354538E-1,-4.107620756E-1,-4.731806642E-1,6.620808297E-1
1.605643308E1,-3.105793179E-1,-4.463270339E-1,-6.090939295E-1,8.164941818E-1
1.606648808E1,-3.244519101E-1,-3.963500047E-1,-8.444010901E-1,9.876110415E-1
1.607654308E1,-2.828412232E-1,-2.983499394E-1,-1.036393831E0,1.114954715E0
1.608659808E1,-2.949817239E-1,-2.060257664E-1,-1.226704913E0,1.278384050E0
1.609665308E1,-2.927571508E-1,-1.237205051E-1,-1.342248818E0,1.379364130E0
1.610670808E1,-3.195883423E-1,-1.140737687E-1,-1.463004346E0,1.501842619E0
1.611676208E1,-3.465221525E-1,-1.095027079E-1,-1.560056432E0,1.601825370E0
1.612681708E1,-3.464662385E-1,-1.011505450E-1,-1.572661275E0,1.613546954E0
1.613687208E1,-4.243334632E-1,-1.156538326E-1,-1.539322205E0,1.600920844E0
1.614692708E1,-5.428031686E-1,-7.942696944E-2,-1.518801402E0,1.614837955E0
1.615698208E1,-5.343977230E-1,4.126043871E-2,-1.498840762E0,1.591793636E0
1.616703708E1,-4.881818421E-1,9.812256441E-2,-1.383356498E0,1.470246493E0
1.617709208E1,-4.694458283E-1,4.797450408E-2,-1.206572365E0,1.295568528E0
1.618714708E1,-4.399070835E-1,5.003023893E-2,-9.612436616E-1,1.058305553E0
1.619720208E1,-3.547245535E-1,5.598402008E-2,-6.177723670E-1,7.145672934E-1
1.620725708E1,-2.987481348E-1,6.322594285E-3,-8.436830521E-2,3.104970760E-1
1.621731208E1,-2.867646318E-1,-1.108459595E-1,5.962341481E-1,6.708322743E-1
1.622736608E1,-2.134655444E-1,-1.260702087E-1,9.807324314E-1,1.011581602E0
1.623742108E1,-9.725227945E-2,5.075383186E-4,1.076734942E0,1.081118124E0
1.624747608E1,1.688164249E-2,1.682355040E-1,1.056008316E0,1.069458619E0
1.625753108E1,1.031548244E-1,3.578131990E-1,8.730863607E-1,9.491843848E-1
