"Time (s)","Linear Acceleration x (m/s^2)","Linear Acceleration y (m/s^2)","Linear Acceleration z (m/s^2)","Absolute acceleration (m/s^2)"
5.660208320E-3,-2.484921934E-1,1.513043064E-1,2.262463152E-1,3.685495332E-1
1.562620833E-2,-2.217321186E-1,8.495039552E-2,-1.631893569E-1,2.881188441E-1
2.559120834E-2,-3.517769721E-1,5.409113020E-2,-4.875250536E-1,6.036170693E-1
3.555620834E-2,-5.791441986E-1,8.923552752E-2,-6.219192123E-1,8.544907775E-1
4.552220833E-2,-7.010640536E-1,1.384825319E-1,-5.631166881E-1,9.098179067E-1
5.548720833E-2,-6.820932010E-1,1.125390208E-1,-4.185717630E-1,8.081574641E-1
6.545220834E-2,-5.204192962E-1,7.828544676E-3,-1.324809498E-1,5.370742332E-1
7.541720834E-2,-3.028192587E-1,-8.867594898E-2,1.507377112E-1,3.496924148E-1
8.538320832E-2,-2.498534252E-1,-6.458425105E-2,4.001945490E-1,4.761864515E-1
9.534820833E-2,-3.064698216E-1,-5.486705571E-2,3.882586277E-1,4.976734947E-1
1.053132083E-1,-4.316591473E-1,-1.038079584E-1,7.610326588E-2,4.504413599E-1
1.152792083E-1,-5.605722722E-1,-1.326686454E-1,-2.364403510E-1,6.226927665E-1
1.252442083E-1,-5.518188442E-1,-1.243480575E-1,-2.631784987E-1,6.238825198E-1
1.352092083E-1,-4.277011670E-1,-8.472469300E-2,-8.394087374E-2,4.440187295E-1
1.451752083E-1,-2.642501472E-1,-5.136866659E-2,1.326288843E-1,3.000954867E-1
1.551402083E-1,-1.304686305E-1,2.386219472E-2,2.371765155E-1,2.717428331E-1
1.651052083E-1,-5.036747709E-2,1.237893561E-1,2.592140865E-1,2.916378406E-1
1.750702083E-1,3.926990032E-3,1.532724792E-1,1.877155030E-1,2.423736458E-1
1.850362083E-1,1.265644446E-2,1.096075192E-1,-4.165556431E-2,1.179371862E-1
1.950012083E-1,-3.006199747E-3,6.270232469E-2,-2.658530152E-1,2.731637685E-1
2.049662083E-1,-6.778794050E-2,8.327721477E-2,-3.622794485E-1,3.778580397E-1
2.149322083E-1,-1.142233112E-1,1.116712940E-1,-3.131721926E-1,3.515597601E-1
2.248972083E-1,-7.078858539E-2,1.021034950E-1,-1.351993203E-1,1.836164582E-1
2.348622083E-1,5.098304272E-2,1.047973073E-1,-2.199839473E-2,1.185988011E-1
2.448282083E-1,8.477293253E-2,1.432380724E-1,-1.050411361E-1,1.968177730E-1
2.547932083E-1,2.214589074E-2,1.456094107E-1,-2.884484106E-1,3.238750169E-1
2.647582083E-1,-2.546184674E-2,1.118812090E-1,-4.570119435E-1,4.711959540E-1
2.747242083E-1,-1.013109049E-1,9.150278538E-2,-4.491918772E-1,4.694784359E-1
2.846892083E-1,-1.703386013E-1,1.022119609E-1,-3.804607809E-1,4.292003376E-1
2.946542083E-1,-2.019974734E-1,1.428433853E-1,-4.500648665E-1,5.135811485E-1
3.046192083E-1,-1.699901073E-1,1.596058908E-1,-5.940771103E-1,6.381992557E-1
3.145852083E-1,-9.899189919E-2,2.559472471E-1,-7.534435576E-1,8.018638188E-1
3.245502083E-1,-3.790559873E-1,2.815405101E-1,-7.441114014E-1,8.812776396E-1
3.345152083E-1,-1.116108484E0,2.057845688E-1,-2.848365855E-1,1.170118505E0
3.444812083E-1,-1.737840439E0,2.191331774E-2,4.123596811E-1,1.786227895E0
3.544462083E-1,-1.920343149E0,-1.940489146E-1,7.162178439E-1,2.058723098E0
3.644112083E-1,-1.543228145E0,-4.274028128E-1,7.936712319E-1,1.787215795E0
3.743762083E-1,-4.555524784E-1,-4.725184670E-1,1.231400228E0,1.395402552E0
3.843422083E-1,1.432756408E-1,-3.905709091E-1,1.975903977E0,2.019225117E0
3.943072083E-1,-3.607767141E-1,-1.152157007E0,1.624793880E0,2.024248196E0
4.042722083E-1,-8.664773990E-1,-1.501633392E0,1.673276069E0,2.409468557E0
4.142382083E-1,8.070541929E-1,7.709349185E-2,8.238469577E-1,1.155856257E0
4.242032083E-1,1.945729128E0,1.771382699E0,4.193932968E-1,2.664497935E0
4.341682083E-1,2.567757684E0,2.674814647E0,-7.377157170E-1,3.780507558E0
4.441342083E-1,3.402702657E0,3.122305570E0,-2.546229113E0,5.273562376E0
4.540992083E-1,3.033528171E0,1.580514962E0,-4.762203392E0,5.863352442E0
4.640642083E-1,2.515446446E0,9.375513285E-2,-6.192197868E0,6.684278217E0
4.740302083E-1,1.387099594E0,1.133353238E0,-4.658127047E0,4.990659519E0
4.839952083E-1,-2.663525721E0,6.370275405E-1,-1.878212206E0,3.320821351E0
4.939602083E-1,-4.772840062E0,-6.520806125E-1,-3.175255616E0,5.769528543E0
5.039252083E-1,-3.297134686E0,-9.277883787E-1,-4.628379922E0,5.757932712E0
5.138912083E-1,-8.944149569E-1,-4.071330012E-1,-3.682357147E0,3.811232026E0
5.238562083E-1,1.228365815E0,-3.357471228E-3,-2.815918486E0,3.072180133E0
5.338212083E-1,2.599248156E0,4.101957728E-1,-1.771010524E0,3.171881118E0
5.437872083E-1,3.147107120E0,9.299534565E-1,1.722794384E-1,3.286149245E0
5.537522083E-1,2.727159507E0,7.770245013E-1,1.024288341E0,3.015017853E0
5.637172083E-1,1.944495512E0,8.585452124E-2,3.715884497E0,4.194786215E0
5.736832083E-1,2.034248957E0,-2.387666073E0,7.283644989E0,7.930359539E0
5.836482083E-1,3.009022783E0,-4.187263049E0,2.357454679E0,5.669654533E0
5.936132083E-1,1.773270473E0,-2.842180670E0,2.204201496E-1,3.357240560E0
6.035782083E-1,-1.221083693E0,-2.388638757E-1,1.157567436E-1,1.249600320E0
6.135442083E-1,-1.839844678E0,1.170464054E0,-1.880702536E0,2.879593125E0
6.235092083E-1,-7.223983508E-1,1.312170156E0,-3.350801309E0,3.670356836E0
6.334742083E-1,2.987488657E-2,9.007564084E-1,-2.561248271E0,2.715188266E0
6.434402083E-1,5.272314486E-1,4.931075366E-1,-4.629164618E-1,8.575661453E-1
6.534052083E-1,5.904261088E-1,2.117940447E-1,1.694814872E0,1.807168271E0
6.633702083E-1,2.716616392E-1,2.574986596E-1,3.493938224E0,3.513930836E0
6.733362083E-1,4.139045886E-1,4.454908821E-1,3.574449121E0,3.625805518E0
6.833012083E-1,7.893670233E-1,7.151888801E-1,2.138884588E0,2.389439833E0
6.932662083E-1,1.028340900E0,9.991559847E-1,1.197403346E0,1.868039738E0
7.032312083E-1,9.052679738E-1,9.422348021E-1,8.293953806E-1,1.547647642E0
7.131972083E-1,2.454789770E-1,7.149343070E-1,5.532518506E-1,9.367382781E-1
7.231622083E-1,-6.140370926E-1,4.179051074E-1,3.542605770E-1,8.229135958E-1
7.331272083E-1,-1.036040733E0,4.041325025E-2,7.234362316E-1,1.264268014E0
7.430932083E-1,-1.218473642E0,-3.589047280E-1,1.129937587E0,1.700073402E0
7.530582083E-1,-1.498376785E0,-7.218253968E-1,8.208561069E-1,1.854715515E0
7.630232083E-1,-1.299263305E0,-6.297100425E-1,2.624119288E-1,1.467473984E0
7.729892083E-1,-8.522921269E-1,-1.668374348E-1,-8.343099654E-2,8.724662346E-1
7.829542083E-1,-6.385063013E-1,1.523693767E-1,-4.429125524E-1,7.918827267E-1
7.929192083E-1,-4.562542174E-1,2.463852954E-1,-6.455823094E-1,8.280399404E-1
8.028842083E-1,-1.294503379E-1,2.081266710E-1,-4.646542543E-1,5.253357757E-1
8.128502083E-1,-7.512670778E-2,2.495620877E-2,-1.602370977E-2,8.076876780E-2
8.228152083E-1,-1.508882770E-1,-2.396604127E-1,5.621220767E-2,2.887285885E-1
8.327802083E-1,-3.550071933E-1,-3.216547483E-1,-1.738500005E-1,5.096231030E-1
8.427462083E-1,-6.984159227E-1,-4.079061493E-1,-4.655430311E-1,9.332215930E-1
8.527112083E-1,-8.367519088E-1,-5.454111730E-1,-4.956398195E-1,1.115027325E0
8.626762083E-1,-6.752024766E-1,-7.502718817E-1,-2.224614125E-1,1.033583746E0
8.726422083E-1,-5.597771605E-1,-1.046050800E0,-1.233054990E-1,1.192802160E0
8.826072083E-1,-4.759482975E-1,-1.062917386E0,-3.440940231E-1,1.214380850E0
8.925722083E-1,-1.545054011E-1,-7.795294484E-1,-5.436437058E-1,9.628533424E-1
9.025372083E-1,2.203300111E-1,-5.260052875E-1,-1.020917421E0,1.169401239E0
9.125032083E-1,1.267655980E-1,-7.393967915E-1,-2.081221687E0,2.212297638E0
9.224682083E-1,-4.867699954E-1,-1.094272934E0,-3.194294735E0,3.411436227E0
9.324332083E-1,-1.148665123E0,-1.489752581E0,-4.025245475E0,4.443129015E0
9.423992083E-1,-1.782504981E0,-1.987898955E0,-4.561284876E0,5.285299044E0
9.523642083E-1,-2.633181887E0,-2.788785651E0,-4.928889384E0,6.245392127E0
9.623297083E-1,-2.988216636E0,-3.742910036E0,-5.354064993E0,7.183649918E0
9.722957083E-1,-2.936684832E0,-4.676212192E0,-5.559313372E0,7.835626550E0
9.822607083E-1,-3.430459682E0,-5.646357363E0,-5.412713735E0,8.540894278E0
9.922257083E-1,-3.875564940E0,-6.275220144E0,-4.651971098E0,8.720047394E0
1.002190708E0,-3.664185755E0,-6.388381308E0,-3.465509062E0,8.139252180E0
1.012156708E0,-3.791607694E0,-6.672427350E0,-2.540039250E0,8.083896031E0
1.022121708E0,-4.988979465E0,-7.058307915E0,-2.420047953E0,8.975870923E0
1.032086708E0,-5.259345362E0,-7.482041016E0,-3.400632450E0,9.757353763E0
1.042052708E0,-4.862917004E0,-8.171024283E0,-4.789905746E0,1.064691489E1
1.052017708E0,-4.585077782E0,-8.670872929E0,-5.703590494E0,1.134627340E1
1.061982708E0,-3.187744684E0,-8.355261862E0,-5.180022619E0,1.033463842E1
1.071948708E0,-9.158961654E-2,-7.481062192E0,-3.658631485E0,8.328281006E0
1.081913708E0,3.007376792E0,-6.102212727E0,-2.160239205E0,7.137783182E0
1.091878708E0,4.648108428E0,-4.110373918E0,-1.166873864E0,6.313610719E0
1.101843708E0,6.452998304E0,-2.189994954E0,-9.627370405E-1,6.882160098E0
1.111809708E0,8.331869491E0,-4.775453549E-1,-7.855704993E-1,8.382435195E0
1.121774708E0,8.637160222E0,1.045145651E0,1.890463293E-1,8.702218375E0
1.131739708E0,9.642625206E0,2.924530809E0,1.252106388E0,1.015385994E1
1.141705708E0,1.110702470E1,3.358325798E0,2.787868223E0,1.193384092E1
1.151670708E0,1.055176374E1,4.319764464E0,6.697163996E0,1.322316485E1
1.161635708E0,1.112758117E1,5.152006854E0,5.765093848E0,1.355000164E1
1.171601708E0,1.079617385E1,5.391012379E0,4.133293834E0,1.275556750E1
1.181566708E0,8.453026139E0,5.446538708E0,5.262734408E0,1.134966115E1
1.191531708E0,7.050693671E0,4.705355300E0,5.263207448E0,9.977675199E0
1.201496708E0,5.485533205E0,3.877655612E0,5.147619689E0,8.463171748E0
1.211462708E0,3.768959674E0,3.497619047E0,4.535548357E0,6.856354346E0
1.221427708E0,1.740113837E0,3.280974444E0,2.890662274E0,4.706242434E0
1.231392708E0,-2.762020022E-1,2.343637416E0,1.546490307E0,2.821445756E0
1.241358708E0,-2.452731842E0,1.037953869E-1,9.523202258E-1,2.633169342E0
1.251323708E0,-4.931507767E0,-2.021100031E0,4.763317287E-1,5.350841626E0
1.261288708E0,-6.390848833E0,-3.412914819E0,3.671291292E-1,7.254358701E0
1.271254708E0,-6.163792094E0,-3.945557573E0,2.904078126E-1,7.324212875E0
1.281219708E0,-5.252280171E0,-3.504377551E0,-4.703090966E-1,6.331532173E0
1.291184708E0,-5.039516366E0,-2.808203670E0,-2.943058589E0,6.476444002E0
1.301149708E0,-4.515468433E0,-3.837823209E0,-6.098351811E0,8.503425014E0
1.311115708E0,-4.251463138E0,-4.494920148E0,-6.911525846E0,9.276229593E0
1.321080708E0,-2.861331471E0,-4.130740647E0,-5.941647601E0,7.781607308E0
1.331045708E0,-2.929279625E-2,-3.197621800E0,-2.914030087E0,4.326339630E0
1.341011708E0,8.278312504E-1,-1.857563349E0,1.686436397E-1,2.040658436E0
1.350976708E0,3.268102384E-1,-1.382061048E0,8.341488746E-1,1.647028238E0
1.360941708E0,-9.558607149E-1,-2.102590629E0,9.952846894E-1,2.514984825E0
1.370906708E0,-6.983078223E-1,-2.664407188E0,3.255953039E0,4.264730903E0
1.380872708E0,-2.525342274E0,-3.550815845E0,1.893064134E0,4.750719796E0
1.390837708E0,-1.267044854E-1,-3.948691973E0,4.936496612E0,6.322754236E0
1.400802708E0,2.516437549E0,-2.652385898E0,6.728858829E0,7.658012146E0
1.410768708E0,5.422521855E0,-1.097013670E0,7.432197595E0,9.265243837E0
1.420733708E0,7.095017320E0,3.376229095E-1,8.107427627E0,1.077885164E1
1.430698708E0,6.845839394E0,9.873549879E-1,7.697425543E0,1.034846592E1
1.440664708E0,6.552816122E0,1.294563020E0,4.956444388E0,8.317549730E0
1.450629708E0,6.565480607E0,2.115308030E0,1.446982976E0,7.047965904E0
1.460594708E0,8.852383951E0,3.315660127E0,-5.448189377E0,1.091059445E1
1.470559708E0,9.252013659E0,5.161246625E0,-4.639790763E0,1.156572012E1
1.480525708E0,9.067797130E0,5.952635103E0,-2.722702759E0,1.118355578E1
1.490490708E0,8.436364498E0,5.145629881E0,-2.655531115E0,1.023237989E1
1.500455708E0,6.703739775E0,3.514713382E0,-1.958557042E-1,7.571769713E0
1.510421708E0,4.754660484E0,2.162716670E0,-4.348159128E-1,5.241488776E0
1.520386708E0,3.347405246E0,3.345308434E0,-4.375090819E0,6.444969362E0
1.530351708E0,2.857943010E0,2.746528409E0,-4.811836605E0,6.234182229E0
1.540317708E0,1.666661114E0,1.083053443E0,-1.657584627E0,2.588117235E0
1.550282708E0,8.325838673E-1,1.028618204E0,-3.305337453E-1,1.364002882E0
1.560247708E0,7.318182153E-1,1.538771982E0,-4.521665020E-1,1.762904325E0
1.570212708E0,1.110006768E0,1.266442006E0,-9.242595841E-1,1.921001343E0
1.580178708E0,1.448838297E0,3.954764307E-2,-1.398117502E-1,1.456105681E0
1.590143708E0,2.117579089E0,-4.343288398E-1,5.178057370E-1,2.222814774E0
1.600108708E0,2.171078188E0,-5.116489112E-2,4.515143913E-1,2.218121636E0
1.610074708E0,1.254581514E0,1.201484703E0,7.401481587E-1,1.888215974E0
1.620039708E0,9.610922188E-1,2.405352731E0,5.525425833E-1,2.648532295E0
1.630004708E0,4.578896105E-2,2.947303668E0,-9.631475151E-2,2.949232454E0
1.639970708E0,-1.859841424E0,2.844204392E0,-3.168097454E-1,3.413045145E0
1.649935708E0,-3.451675719E0,2.511114244E0,-2.456274962E-1,4.275522527E0
1.659900708E0,-4.080297595E0,2.485023968E0,-5.977631950E-1,4.814716338E0
1.669865708E0,-3.486457297E0,2.630326107E0,-5.861362260E-1,4.406535554E0
1.679831708E0,-1.681372123E0,2.786811047E0,-4.985382843E-1,3.292699265E0
1.689796708E0,-1.125793666E0,3.518939749E0,-9.520009679E-1,3.815318359E0
1.699761708E0,-6.035367358E-1,3.799154111E0,-6.669116364E-1,3.904177209E0
1.709727708E0,8.884200990E-2,3.872081169E0,-2.949201089E-1,3.884312468E0
1.719692708E0,7.117207503E-1,5.400260920E0,1.324265707E-1,5.448568732E0
1.729657708E0,3.464469427E-1,6.891365231E0,6.368721507E-2,6.900362040E0
1.739622708E0,-1.169209242E0,7.321350759E0,8.926944137E-2,7.414660897E0
1.749588708E0,-1.293091861E0,6.533137318E0,1.627163756E0,6.855773601E0
1.759553708E0,-1.066104704E0,3.981984265E0,2.424263211E0,4.782241111E0
1.769518708E0,-2.710111365E0,1.298543805E-1,-1.247205982E-1,2.716085602E0
1.779484708E0,-2.131908860E0,-5.511076766E-1,-9.417034364E-1,2.394903009E0
1.789449708E0,-1.202072348E0,1.339029926E-1,-1.021002206E0,1.582830833E0
1.799414708E0,1.172352705E0,-1.970920980E-2,-2.404245853E0,2.674920081E0
1.809380708E0,1.554325576E0,6.699973583E-2,-2.454994422E0,2.906443630E0
1.819345708E0,1.465994905E0,2.642122865E-2,-3.749136443E0,4.025650657E0
1.829310708E0,1.546889087E0,7.943892699E-1,-1.810954608E0,2.510672570E0
1.839275708E0,2.306508766E0,5.339092612E-1,-2.327022260E-1,2.378905655E0
1.849241708E0,1.858222623E0,-1.821024683E0,-3.606702948E-1,2.626633829E0
1.859206708E0,7.543253177E-1,-1.757905744E0,6.046465373E-1,2.006199573E0
1.869171708E0,3.384394732E-1,-4.914559613E0,4.705359685E-1,4.948620168E0
1.879137708E0,-1.720288852E-1,-7.925306155E0,2.001538171E0,8.175954173E0
1.889102708E0,-2.363736928E-1,-8.517231490E0,3.330271150E0,9.148213526E0
1.899067708E0,4.546876752E-1,-8.963420237E0,5.589365137E-1,8.992333026E0
1.909033708E0,1.405076566E0,-7.643107249E0,-1.830418235E0,7.983843654E0
1.918998708E0,1.622130766E0,-5.810507417E0,-2.943856734E0,6.712644571E0
1.928963708E0,1.320822866E0,-3.551225150E0,-3.815830954E0,5.377391466E0
1.938928708E0,1.794880028E0,-1.350288155E0,-2.742861035E0,3.545159950E0
1.948894708E0,5.887985364E-1,-2.011951477E0,-1.148803775E0,2.390477478E0
1.958859708E0,-6.437763968E-1,-3.259440903E0,9.327956419E-1,3.450871015E0
1.968824250E0,-8.640050501E-1,-3.618456436E0,1.905787675E0,4.179923249E0
1.978790250E0,-8.013509649E-1,-2.709459400E0,1.175632116E0,3.060301371E0
1.988755250E0,-1.890246361E0,-2.232003837E0,1.283479038E0,3.194086861E0
1.998720250E0,-4.511542028E0,-2.486726092E0,7.855582201E-1,5.211038270E0
2.008685250E0,-7.752146711E0,-1.677598915E0,-9.777714014E-3,7.931595826E0
2.018651250E0,-8.051254596E0,-3.502721912E-1,-1.156067040E0,8.141368569E0
2.028616250E0,-8.339274405E0,4.951024604E-1,-7.083564086E-1,8.383936596E0
2.038581250E0,-6.758577302E0,1.166660441E0,7.246887052E-1,6.896712075E0
2.048547250E0,-1.710450034E0,2.842091793E0,4.946730409E0,5.955943822E0
2.058512250E0,5.311625901E0,3.667388860E0,9.006511878E0,1.108063026E1
2.068477250E0,5.726454277E0,2.972674152E0,5.088735888E0,8.217317271E0
2.078442250E0,6.781665618E0,2.460638155E0,2.909158187E0,7.778748616E0
2.088408250E0,8.900096646E0,3.226395949E0,3.430195972E-2,9.466917542E0
2.098373250E0,8.944703300E0,3.514577726E0,-1.029923595E0,9.665439272E0
2.108338250E0,6.343503343E0,2.751903169E0,-6.058906786E-1,6.941189324E0
2.118304250E0,5.195498444E0,1.568488117E0,-4.075262265E-1,5.442374177E0
2.128269250E0,6.263591201E0,1.370021923E0,-4.879090695E-1,6.430209178E0
2.138234250E0,6.843472441E0,1.321244450E0,-7.685077393E-1,7.012089995E0
2.148200250E0,6.074994523E0,7.257716095E-1,-1.182988790E0,6.231513890E0
2.158165250E0,5.024259226E0,7.867416966E-1,-1.096488590E0,5.202348556E0
2.168130250E0,4.307484142E0,1.698349514E0,-1.077947069E0,4.754027828E0
2.178095250E0,4.058814924E0,2.759847196E0,-1.266207533E0,5.068926578E0
2.188061250E0,2.551423779E0,4.421299610E0,-1.259385002E0,5.257728038E0
2.198026250E0,-7.826049377E-1,5.246650472E0,-8.161450052E-1,5.367113221E0
2.207991250E0,-3.331272193E0,5.246348755E0,5.507609367E-2,6.214867904E0
2.217957250E0,-3.077279086E0,7.810548116E0,4.027725863E-1,8.404554372E0
2.227922250E0,-2.921528556E0,8.707130343E0,8.945199144E-1,9.227654837E0
2.237887250E0,-3.416274921E0,8.121588414E0,1.271838402E0,8.902174207E0
2.247853250E0,-3.821150166E0,7.417833325E0,1.833350029E0,8.543220246E0
2.257818250E0,-4.099941023E0,6.314048579E0,2.473551438E0,7.924341144E0
2.267783250E0,-4.094323603E0,5.668906565E0,3.065954783E0,7.635447999E0
2.277748250E0,-3.887317843E0,5.292827103E0,3.452723540E0,7.419336803E0
2.287714250E0,-3.875992371E0,5.159071460E0,4.005486563E0,7.594949493E0
2.297679250E0,-3.258192230E0,5.243883569E0,3.806544406E0,7.252855425E0
2.307644250E0,-2.450417222E0,5.422946947E0,2.985162635E0,6.657634273E0
2.317610250E0,-1.759123719E0,4.578775653E0,1.439336572E0,5.111887372E0
2.327575250E0,5.074093875E0,-1.949627292E1,-1.150149892E1,2.319774911E1
2.337540250E0,5.280145662E0,-1.182712100E1,-1.091862507E1,1.694039854E1
2.347505250E0,-3.727526888E0,-4.995161726E0,4.943842469E0,7.955355161E0
2.357471250E0,-3.404661182E0,3.979878682E0,1.166377435E1,1.278572580E1
2.367436250E0,-7.611151046E-1,3.849467647E0,1.057684479E1,1.128128287E1
2.377401250E0,3.759256804E-1,3.876697546E0,4.887255455E0,6.249429563E0
2.387367250E0,1.259411460E0,-4.033690023E-1,3.232912670E0,3.492928301E0
2.397332250E0,-1.746499727E-1,-1.733625532E1,-8.274121805E0,1.921034468E1
2.407297250E0,-1.938308866E0,-2.511403915E1,-1.106463238E1,2.751178099E1
2.417262250E0,3.282190957E0,-2.422036240E1,-5.567871357E0,2.506790625E1
2.427228250E0,5.651387138E0,-1.559110703E1,-6.088089947E0,1.766594561E1
2.437193250E0,2.165073536E0,-1.998783547E0,-6.887893739E0,7.491712704E0
2.447158250E0,-8.109998940E-1,3.787148607E0,-1.844293093E0,4.289712393E0
2.457124250E0,-6.968450683E-1,3.365317606E0,-4.527873302E-1,3.466406209E0
2.467089250E0,-3.262041745E-1,2.256444029E0,1.945926472E0,2.997428673E0
2.477054250E0,6.082890603E-1,2.831353966E0,3.540119534E0,4.573732302E0
2.487020250E0,7.374454294E-1,3.339534309E0,4.537594882E0,5.682084343E0
2.496985250E0,1.006778050E0,3.167976417E0,4.261113968E0,5.404328716E0
2.506950250E0,1.221728714E0,2.783098065E0,3.301654876E0,4.487669864E0
2.516915250E0,1.090181783E0,2.122128807E0,1.833872770E0,3.009155418E0
2.526881250E0,9.760586789E-1,1.431472651E0,8.274738394E-2,1.734546519E0
2.536846250E0,8.915251167E-1,9.677814335E-1,-1.310979663E0,1.857440608E0
2.546811250E0,5.525823444E-1,5.095538539E-1,-1.393675665E0,1.583453263E0
2.556777250E0,-3.587382285E-1,-4.093711692E-1,-1.276048543E0,1.387291518E0
2.566742250E0,-6.772930755E-1,9.539556921E-2,-5.894297433E-1,9.029139754E-1
2.576707250E0,-5.160281834E-1,6.417716789E-1,-2.268579340E-1,8.541782578E-1
2.586672250E0,-6.195689240E-1,-6.874746859E-2,-6.883561537E-1,9.286689724E-1
2.596638250E0,-7.501217544E-1,-1.163162636E0,-1.670075741E0,2.169051163E0
2.606603250E0,-2.741022670E-1,-2.382875449E0,-2.077789371E0,3.173395048E0
2.616568250E0,-2.672651178E-1,-3.794876872E0,-7.780622359E-1,3.883027422E0
2.626534250E0,-5.755468453E-1,-3.498994896E0,5.054800987E-2,3.546374847E0
2.636499250E0,-7.453030640E-1,-1.807811730E0,3.579685888E-1,1.987913836E0
2.646464250E0,-6.200273457E-1,-4.007839483E-1,7.241036913E-1,1.034112101E0
2.656430250E0,2.442747429E-2,2.288834095E-2,1.550831426E0,1.551192667E0
2.666395250E0,1.022172233E-1,-2.968151915E-1,2.627458048E0,2.646145010E0
2.676360250E0,-1.140647055E-1,-2.881064070E0,2.113255073E0,3.574826980E0
2.686325250E0,-3.752257687E-1,-6.282639091E0,1.738517693E0,6.529532303E0
2.696291250E0,-1.318910534E0,-9.470535218E0,1.467225451E0,9.673846847E0
2.706256250E0,-1.926616919E0,-1.166317794E1,1.647956894E0,1.193554918E1
2.716221250E0,-1.591302052E0,-1.302523069E1,1.009769997E0,1.316087050E1
2.726187250E0,-1.062169089E0,-1.368977260E1,5.683517003E-1,1.374267443E1
2.736152250E0,-1.028224248E0,-1.394136191E1,4.947807173E-1,1.398798145E1
2.746117250E0,-1.284165209E0,-1.426134027E1,5.034652944E-1,1.432788832E1
2.756082250E0,-1.768089986E0,-1.463002475E1,8.456583146E-1,1.476072168E1
2.766048250E0,-1.868977991E0,-1.445264830E1,1.246014905E0,1.462616405E1
2.776013250E0,-1.533612399E0,-1.388270499E1,1.348496568E0,1.403210275E1
2.785978250E0,-9.206541909E-1,-1.299097653E1,9.477529657E-1,1.305799797E1
2.795944250E0,-4.478495758E-2,-1.043906685E1,3.910617828E-1,1.044648514E1
2.805909250E0,1.181578807E0,-6.244673120E0,-6.239657378E-1,6.386031952E0
2.815874250E0,2.385381273E0,-2.840704249E0,-2.031952463E0,4.229476949E0
2.825840250E0,3.418534578E0,-1.597517788E-2,-2.836760302E0,4.442279018E0
2.835805250E0,3.956718446E0,1.438814415E0,-3.164848157E0,5.267074296E0
2.845770250E0,4.600971391E0,2.744321669E0,-2.852935454E0,6.069553515E0
2.855735250E0,5.015929282E0,4.480045416E0,-2.221174793E0,7.082652819E0
2.865701250E0,4.862590145E0,6.922713908E0,-1.507443185E0,8.593086508E0
2.875666250E0,3.895130016E0,9.499483028E0,-1.260950301E0,1.034418732E1
2.885631250E0,2.363344287E0,1.147021397E1,-3.114177355E0,1.211813952E1
2.895597250E0,1.315712692E0,1.326111088E1,-8.181897765E0,1.563750660E1
2.905562250E0,1.548614308E0,1.332803928E1,-1.386737008E1,1.929608225E1
2.915527250E0,1.140012340E0,8.076371310E0,-1.228595552E1,1.474693544E1
2.925492250E0,1.108712048E0,4.518875606E0,-6.368530011E0,7.887182872E0
2.935458250E0,1.147498969E0,5.177551585E0,-1.531854141E0,5.519997411E0
2.945423250E0,1.665782862E0,7.233984001E0,1.628813256E0,7.599894058E0
2.955388250E0,2.828648752E0,8.339065660E0,2.587315743E0,9.177988483E0
2.965354750E0,3.391556694E0,8.943550814E0,3.131040140E0,1.006445082E1
2.975319750E0,3.445169522E0,9.837241008E0,3.610325882E0,1.103063718E1
2.985284750E0,3.412340330E0,1.068989837E1,3.791542790E0,1.184456797E1
2.995249750E0,3.099199420E0,1.125473238E1,3.679098494E0,1.223968152E1
3.005215750E0,2.494022248E0,1.181000737E1,3.959180124E0,1.270320937E1
3.015180750E0,2.217518237E0,1.206140490E1,3.979517909E0,1.289307714E1
3.025145750E0,1.706579616E0,1.215536264E1,3.215292671E0,1.268871001E1
3.035111750E0,-1.014158259E-1,1.216489126E1,1.477656884E0,1.225472702E1
3.045076750E0,-2.308814031E0,1.153420824E1,-1.668740383E0,1.188079444E1
3.055041750E0,-2.915271159E0,1.068428036E1,-2.524304978E0,1.135890701E1
3.065007750E0,-3.774874132E0,1.035684213E1,2.011255439E-1,1.102516690E1
3.074972750E0,-4.762647196E0,9.906169156E0,1.386444998E0,1.107868338E1
3.084937750E0,-4.736234738E0,9.252543417E0,1.250087929E-1,1.039505201E1
3.094902750E0,-1.894457964E0,9.844826016E0,-1.976172145E-1,1.002739362E1
3.104868750E0,-1.819227761E-1,9.943124728E0,6.204597473E-1,9.964125429E0
3.114833750E0,8.929761764E-1,9.675947903E0,-2.361409005E-1,9.719935021E0
3.124798750E0,1.515007728E0,9.331792485E0,-1.019631618E0,9.508798453E0
3.134764750E0,1.449160186E0,8.543859125E0,-1.510429358E0,8.796532888E0
3.144729750E0,1.164774714E0,6.591481420E0,-2.168856246E0,7.036210974E0
3.154694750E0,2.033031274E0,3.041844959E0,-6.950515079E-1,3.724128557E0
3.164659750E0,3.521790851E0,-2.543958054E0,1.196409173E0,4.506232161E0
3.174625750E0,3.780739767E0,-9.873133557E0,2.180029106E0,1.079468787E1
3.184590750E0,2.435470861E0,-1.900024777E1,6.634867176E0,2.027220748E1
3.194555750E0,1.319906753E0,-2.615287419E1,5.615198135E0,2.678143821E1
3.204521750E0,-4.167488059E0,-2.615892723E1,6.651011338E0,2.731104872E1
3.214486750E0,-3.644154949E0,-1.712205778E1,-5.126242268E0,1.824069866E1
3.224451750E0,3.280751738E-1,-6.970447068E0,-6.129257269E0,9.287764011E0
3.234417750E0,3.795715948E0,-7.350186303E0,3.899133897E-1,8.281589865E0
3.244382750E0,4.525584409E0,-1.582345433E1,5.144759231E0,1.724329344E1
3.254347750E0,3.049629942E0,-1.718515625E1,1.673508203E-1,1.745445056E1
3.264312750E0,6.779100298E-1,-1.445326226E1,-4.667715311E0,1.520341797E1
3.274278750E0,-4.512105188E-1,-1.117028923E1,-1.206507227E1,1.644824980E1
3.284243750E0,-1.955863669E0,-6.634152646E0,-1.459897955E1,1.615449126E1
3.294208750E0,-3.594235514E0,-3.113479782E0,-4.588659786E0,6.608183103E0
3.304174750E0,-3.426243547E0,-1.053586984E0,4.568077587E0,5.806593082E0
3.314139750E0,-2.807143570E0,-1.488964230E-1,6.896861029E0,7.447745781E0
3.324104750E0,-2.081580121E0,2.901698309E-1,6.344536546E0,6.683585738E0
3.334069750E0,-2.757262142E0,1.014127634E0,6.350375576E0,6.997015030E0
3.344035750E0,-2.815278216E0,1.692833835E0,7.963959174E0,8.614878035E0
3.354000750E0,-2.699792199E0,2.289829876E0,7.301102436E0,8.114080080E0
3.363965750E0,-4.202683619E0,2.202649060E0,7.817822052E0,9.145083604E0
3.373931750E0,-3.932274746E0,3.152397096E0,6.553863358E0,8.267618584E0
3.383896750E0,-2.337628086E0,3.694769032E0,3.273283017E0,5.461703487E0
3.393861750E0,-3.840886493E-1,3.340397358E0,-6.582327604E-1,3.426229555E0
3.403826750E0,6.839316387E-1,3.378798947E0,-4.415666403E0,5.601977739E0
3.413792750E0,1.095822739E0,3.256931863E0,-5.460098401E0,6.451442256E0
3.423757750E0,7.566978255E-1,2.669057479E0,-3.587921691E0,4.535376664E0
3.433722750E0,7.784916408E-1,2.541248454E0,-1.128596821E0,2.887511684E0
3.443688750E0,1.355590995E0,2.568425728E0,2.264930677E-1,2.913028798E0
3.453653750E0,1.334339728E0,2.086318120E0,6.495934993E-1,2.560304185E0
3.463618750E0,6.208816239E-1,9.879169053E-1,3.864372200E-1,1.229149107E0
3.473583750E0,-3.745277573E-1,-4.396644241E-1,-3.848169565E-1,6.940172453E-1
3.483549750E0,-1.011498799E0,-1.649201328E0,-7.171031123E-1,2.063306015E0
3.493514750E0,-8.368285804E-1,-2.475505870E0,-1.660601644E0,3.096128099E0
3.503479750E0,-3.254081857E-1,-3.247789741E0,-2.293517130E0,3.989266789E0
3.513445750E0,7.087592818E-1,-3.783808093E0,-2.221716830E0,4.444723735E0
3.523410750E0,1.713967573E0,-3.834421007E0,-1.765450991E0,4.556016517E0
3.533375750E0,2.703540556E0,-2.880992734E0,-1.264534060E0,4.148288449E0
3.543341750E0,3.282308486E0,-1.555633013E0,-1.009402499E0,3.769938524E0
3.553306750E0,3.302905596E0,-4.391223872E-1,-8.584414244E-1,3.440775425E0
3.563271750E0,2.791213708E0,5.545803380E-1,-6.673053002E-1,2.922965904E0
3.573236750E0,2.264244653E0,1.361918267E0,-4.658248669E-1,2.683024044E0
3.583202750E0,1.415482563E0,1.641471893E0,-2.632866722E-1,2.183424085E0
3.593167750E0,6.289276850E-1,1.512213929E0,3.360143405E-1,1.671899111E0
3.603132750E0,1.878673844E-3,1.177842071E0,5.164266711E-1,1.286083971E0
3.613098750E0,-7.055783965E-1,6.870858461E-1,4.221286243E-1,1.071503807E0
3.623063750E0,-1.454362600E0,1.464382535E-1,6.699098328E-2,1.463250671E0
3.633028750E0,-2.107351578E0,-3.898841536E-1,-5.077938420E-1,2.202452022E0
3.642993750E0,-2.197923340E0,-7.380794138E-1,-1.039260721E0,2.540805203E0
3.652959750E0,-1.244881568E0,-5.534991878E-1,-1.029587088E0,1.707671233E0
3.662924750E0,-8.903957270E-2,-1.036740571E-1,-5.294805801E-1,5.468327352E-1
3.672889750E0,6.370817003E-1,1.362909955E-1,-8.249485731E-2,6.566991167E-1
3.682855750E0,1.282867420E0,3.078822166E-1,1.769893889E-1,1.331114390E0
3.692820750E0,1.861489608E0,3.380608660E-1,3.203566299E-1,1.918868698E0
3.702785750E0,1.907541255E0,1.943339664E-1,1.241749617E-1,1.921431433E0
3.712750750E0,1.570853316E0,-6.051868200E-3,-3.398033363E-1,1.607197272E0
3.722716750E0,1.284555219E0,-5.920832098E-2,-6.147897023E-1,1.425325967E0
3.732681750E0,7.941583049E-1,-9.857586980E-2,-6.478855276E-1,1.029640846E0
3.742646750E0,3.357858606E-1,-2.423138791E-1,-4.916140115E-1,6.427693961E-1
3.752612750E0,3.385799160E-2,-3.911775577E-1,-4.374155849E-1,5.877913228E-1
3.762577750E0,2.426521406E-3,-3.694013572E-1,-4.583480322E-1,5.886817216E-1
3.772542750E0,1.470561032E-1,-2.207002312E-1,-2.263597512E-1,3.486729507E-1
3.782508750E0,2.135001526E-1,-2.728310823E-2,1.951163238E-1,2.905117260E-1
3.792473750E0,1.154616510E-1,2.388201678E-1,4.257802105E-1,5.016525222E-1
3.802438750E0,-8.173950668E-3,4.105762804E-1,3.627197438E-1,5.479099452E-1
3.812403750E0,-6.007188164E-2,3.905671084E-1,1.275429761E-1,4.152330766E-1
3.822369750E0,-1.124054759E-1,2.334442377E-1,-3.290229161E-2,2.611776482E-1
3.832334750E0,-2.096978910E-1,6.749674916E-2,-5.704836865E-2,2.275599547E-1
3.842299750E0,-2.749154685E-1,3.103468180E-2,-3.185271640E-2,2.784892491E-1
3.852265750E0,-2.406760375E-1,1.466370589E-1,3.865018683E-3,2.818551408E-1
3.862230750E0,-8.042213813E-2,1.942521054E-1,4.127549529E-2,2.142551452E-1
3.872195750E0,-9.698365470E-3,8.108333945E-2,-1.729460210E-1,1.912560911E-1
3.882160750E0,6.934097012E-2,-6.111802161E-2,-3.481736255E-1,3.602338909E-1
3.892126750E0,2.096335716E-1,-1.625742298E-1,-2.932565761E-1,3.954440971E-1
3.902091750E0,3.166329402E-1,-2.005249983E-1,-1.459891965E-1,4.022182732E-1
3.912056750E0,3.519619634E-1,-1.733418775E-1,8.908407549E-2,4.023190310E-1
3.922022750E0,2.741491909E-1,-5.037376285E-2,4.069159234E-1,4.932300311E-1
3.931987750E0,2.674965031E-2,6.703481913E-2,5.864880091E-1,5.909123417E-1
3.941952750E0,-1.742590863E-1,7.020927250E-2,5.154361528E-1,5.486073265E-1
3.951917750E0,-3.129209816E-1,-1.194644630E-2,2.596239763E-1,4.067761883E-1
3.961883750E0,-3.257519654E-1,-2.449515581E-2,6.162497064E-2,3.324334409E-1
3.971848625E0,-2.772875378E-1,-1.398946345E-2,-1.924200813E-2,2.783061957E-1
3.981813625E0,-1.699916422E-1,1.757088304E-3,-9.808353424E-2,1.962667202E-1
3.991779625E0,-8.804371879E-2,-3.100076795E-2,-2.438815176E-1,2.611339478E-1
4.001744625E0,-2.970382811E-2,-9.654980958E-2,-3.252075166E-1,3.405350378E-1
4.011709625E0,1.234898872E-1,-6.884336293E-2,-2.853031933E-1,3.184133681E-1
4.021674625E0,2.831880362E-1,-2.975063324E-2,-1.239229649E-1,3.105438218E-1
4.031640625E0,3.782982247E-1,-4.528434634E-2,4.583690822E-2,3.837463237E-1
4.041605625E0,4.999238551E-1,-4.256831467E-2,3.293350661E-1,6.001645675E-1
4.051570625E0,5.211317429E-1,7.442336082E-3,4.180484372E-1,6.681303598E-1
4.061536625E0,4.176434445E-1,8.649727643E-2,1.175834137E-1,4.424179977E-1
4.071501625E0,3.591348525E-1,1.348654443E-1,-4.448035419E-2,3.861929987E-1
4.081466625E0,2.742647465E-1,8.592892706E-2,-3.091189484E-2,2.890682911E-1
4.091431625E0,2.477951322E-1,9.551368296E-2,5.122102439E-2,2.704605045E-1
4.101397625E0,3.001115959E-1,8.773103893E-2,1.304250687E-1,3.387837123E-1
4.111362625E0,3.726774059E-1,7.380472541E-2,1.557838583E-1,4.106144139E-1
4.121327625E0,4.752878545E-1,2.244336784E-2,1.573310316E-1,5.011539713E-1
4.131293625E0,5.619208229E-1,3.738241911E-2,8.836955488E-2,5.700540630E-1
4.141258625E0,5.959262922E-1,-3.463715136E-2,-6.637758295E-2,6.006112400E-1
4.151223625E0,5.973077335E-1,-1.081302202E-1,-2.027609736E-1,6.399849103E-1
4.161188625E0,5.028313100E-1,-7.592551053E-2,-1.793984234E-1,5.392474421E-1
4.171154625E0,3.053508290E-1,5.234427452E-3,-5.827392678E-2,3.109057390E-1
4.181119625E0,4.174921112E-2,6.781893075E-2,7.425145268E-2,1.088838015E-1
4.191084625E0,-1.512946768E-1,7.574424684E-2,1.437918129E-1,2.220435894E-1
4.201050625E0,-2.319112074E-1,6.733361185E-2,2.159962376E-2,2.424524018E-1
4.211015625E0,-1.209592489E-1,1.268682075E-1,-4.576498747E-2,1.811659903E-1
4.220980625E0,1.012839620E-1,1.397034305E-1,-3.671642125E-2,1.764187775E-1
4.230946625E0,3.257918727E-1,1.009118325E-1,-4.051302751E-2,3.434601107E-1
4.240911625E0,5.164394619E-1,-1.405319810E-2,-2.873907407E-2,5.174293619E-1
4.250876625E0,5.845388032E-1,-6.568177342E-2,2.230244081E-2,5.886400485E-1
4.260841625E0,5.108210917E-1,-8.377656698E-2,9.830338041E-2,5.268968167E-1
4.270807625E0,3.326976171E-1,-1.294351351E-1,1.772630203E-1,3.985766388E-1
4.280772625E0,1.305522365E-1,-1.382924974E-1,1.372943868E-1,2.345601201E-1
4.290737625E0,-4.000573587E-3,-8.397829592E-2,-1.255397201E-1,1.510912972E-1
4.300703625E0,2.396332414E-2,-7.948880374E-2,-3.584892833E-1,3.679772779E-1
4.310668625E0,1.313394454E-1,-9.532715678E-2,-3.446003920E-1,3.809025425E-1
4.320633625E0,2.282258536E-1,-1.431708294E-1,-1.532707250E-1,3.099626458E-1
4.330598625E0,2.268518492E-1,-1.071929115E-1,9.184397042E-2,2.671841999E-1
4.340564625E0,1.199851758E-1,5.284479618E-2,2.872725356E-1,3.157760672E-1
4.350529625E0,-9.167023502E-2,1.731781554E-1,1.950853336E-1,2.765002584E-1
4.360494625E0,-1.771281140E-1,2.620739597E-1,-1.007668306E-1,3.319805466E-1
4.370460625E0,-7.543127462E-3,2.552046508E-1,-3.099234796E-1,4.015456085E-1
4.380425625E0,2.886097207E-1,2.019669217E-1,-2.591310561E-1,4.373043706E-1
4.390390625E0,5.014007156E-1,1.985913241E-1,-7.524313132E-2,5.445206336E-1
4.400355625E0,5.257678905E-1,2.161739016E-1,7.374332964E-2,5.732373933E-1
4.410321625E0,4.334821995E-1,1.714731073E-1,1.742113584E-1,4.976539372E-1
4.420286625E0,3.744549229E-1,1.361956859E-1,7.179913044E-2,4.048714232E-1
4.430251625E0,3.192244262E-1,2.109570158E-1,-3.213296431E-1,4.996597206E-1
4.440217625E0,2.957979953E-1,2.718165904E-1,-7.255143321E-1,8.293080000E-1
4.450182625E0,2.797090708E-1,2.064751250E-1,-1.076173024E0,1.130936567E0
4.460147625E0,3.130049988E-1,6.458483577E-2,-1.172229913E0,1.215016996E0
4.470112625E0,4.288849358E-1,-1.124068737E-2,-1.128001574E0,1.206837269E0
4.480078625E0,6.036610987E-1,7.160851121E-2,-1.150495813E0,1.301220626E0
4.490043625E0,7.246729908E-1,2.939021087E-1,-1.259138249E0,1.482214061E0
4.500008625E0,8.043747794E-1,4.705114102E-1,-1.342866869E0,1.634530881E0
4.509974625E0,7.915245728E-1,7.031510711E-1,-1.408228215E0,1.761828392E0
4.519939625E0,6.017909764E-1,1.044106309E0,-1.416289186E0,1.859619699E0
4.529904625E0,3.023045210E-1,1.289484129E0,-1.464223491E0,1.974362625E0
4.539870625E0,5.516555973E-1,1.598236996E0,-1.755460439E0,2.437278553E0
4.549835625E0,6.592112189E-1,1.734140906E0,-1.335065514E0,2.285651775E0
4.559800625E0,7.784021053E-1,1.827453112E0,-3.564170301E-1,2.018050498E0
4.569765625E0,1.126823945E0,2.198765924E0,4.707149664E-1,2.515129494E0
4.579731625E0,1.638951889E0,2.481731985E0,7.497158846E-1,3.067120938E0
4.589696625E0,1.793755754E0,2.385304382E0,1.243306620E-1,2.987088016E0
4.599661625E0,2.024252118E0,1.881345145E0,-4.549810593E-1,2.800725612E0
4.609627625E0,2.113378011E0,1.238510442E0,1.012772834E-1,2.451638599E0
4.619592625E0,1.951898526E0,9.397147983E-1,1.151022135E0,2.453125295E0
4.629557625E0,1.861066124E0,8.843901980E-1,1.943757009E0,2.832649722E0
4.639522625E0,9.107725427E-1,3.578303021E-1,9.322014186E-1,1.351498662E0
4.649488625E0,3.518091318E-1,-8.854146302E-2,-9.199073553E-1,9.888573195E-1
4.659453625E0,1.190281949E0,-1.887381810E-1,-7.099607384E-1,1.398727089E0
4.669418625E0,2.760990327E0,-9.436178148E-2,1.458615134E0,3.124024622E0
4.679384625E0,3.218865319E0,-4.727473855E-2,1.721671572E0,3.650682381E0
4.689349625E0,2.045530721E0,-5.864096564E-1,-6.712219115E-1,2.231280141E0
4.699314625E0,6.450168836E-1,-1.584053990E0,-2.572119999E0,3.088863077E0
4.709279625E0,2.801898032E-2,-2.507204795E0,-2.800444415E0,3.758902748E0
4.719245625E0,-1.469096853E-1,-2.854581445E0,-1.996096752E0,3.486347649E0
4.729210625E0,-9.528432593E-2,-2.459306744E0,-1.045912368E0,2.674173039E0
4.739175625E0,4.745895508E-1,-1.707296923E0,-7.542776629E-2,1.773636765E0
4.749141625E0,9.235188881E-1,-1.191103556E0,8.158621462E-1,1.713839508E0
4.759106625E0,7.848261487E-1,-1.129166340E0,1.593790773E0,2.105026778E0
4.769071625E0,3.940890326E-1,-1.363275406E0,2.088057228E0,2.524640367E0
4.779036625E0,3.298721328E-1,-1.712999128E0,2.929970766E0,3.409972189E0
4.789002625E0,1.043138010E0,-2.023913126E0,4.519151595E0,5.060345086E0
4.798967625E0,1.159472312E0,-2.799374374E0,4.737690403E0,5.623751709E0
4.808932625E0,-3.709116930E-1,-3.978957161E0,3.841977364E0,5.543506619E0
4.818898625E0,-2.068377693E0,-5.534370319E0,2.719810726E0,6.504214902E0
4.828863625E0,-2.393078402E0,-7.861364513E0,2.514637484E0,8.593676624E0
4.838828625E0,-2.128579748E0,-1.139713781E1,1.374479548E0,1.167539276E1
4.848793625E0,-3.087776007E0,-1.507831791E1,-8.489712739E-1,1.541462890E1
4.858759625E0,-4.485986480E0,-1.723792854E1,-1.611494827E0,1.788483074E1
4.868724625E0,-4.464834470E0,-1.695180674E1,-4.798925368E-1,1.753649895E1
4.878689625E0,-2.704840392E0,-1.531035882E1,1.324813006E0,1.560379371E1
4.888655625E0,-4.952731260E-1,-1.376403574E1,2.653316774E0,1.402619212E1
4.898620625E0,1.233475112E0,-1.322234852E1,3.673370562E0,1.377844739E1
4.908585625E0,1.701159540E0,-1.289761404E1,4.269838014E0,1.369211117E1
4.918550625E0,1.294286447E0,-1.187044887E1,4.455519855E0,1.274497512E1
4.928516625E0,1.078420402E0,-9.049260287E0,3.991732743E0,9.949172457E0
4.938481625E0,1.159811597E0,-5.434229150E0,3.542149687E0,6.589600428E0
4.948446625E0,1.109187427E0,-2.404726494E0,3.066215569E0,4.051503940E0
4.958412625E0,1.204274556E0,1.170910782E-1,1.611304353E0,2.015015942E0
4.968377708E0,2.013921112E0,2.472710901E0,-2.691502601E-1,3.200409240E0
4.978342708E0,3.156608845E0,4.631646761E0,-3.018973575E0,6.366359444E0
4.988308708E0,3.737415407E0,6.996081846E0,-6.566869905E0,1.029743733E1
4.998273708E0,3.712606840E0,9.378860232E0,-1.135578396E1,1.518882149E1
5.008238708E0,3.716266028E0,1.132255073E1,-1.570071309E1,1.971099134E1
5.018203708E0,3.258522305E0,8.874371236E0,-1.978733094E1,2.192968076E1
5.028169708E0,3.018814530E0,1.615024937E0,-2.189557261E1,2.216162554E1
5.038134708E0,2.614223460E0,-1.280968829E0,-1.432613794E1,1.461893545E1
5.048099708E0,3.653438281E0,1.346170546E0,-3.306002281E0,5.107782052E0
5.058065708E0,6.196621871E0,6.252837002E0,3.853060176E0,9.609483124E0
5.068030708E0,7.746223481E0,9.054879461E0,6.775380446E0,1.370768399E1
5.077995708E0,7.085347779E0,1.054250643E1,7.513777363E0,1.475816538E1
5.087960708E0,5.647591125E0,1.211253763E1,7.180922273E0,1.517150283E1
5.097926708E0,3.743486571E0,1.294846026E1,6.041379465E0,1.477073392E1
5.107891708E0,2.296740700E0,1.340318419E1,4.897231389E0,1.445348537E1
5.117856708E0,9.882251266E-1,1.344864395E1,4.522367563E0,1.422302434E1
5.127822708E0,2.631626199E-1,1.298934165E1,2.268665879E0,1.318859719E1
5.137787708E0,-1.400246181E0,1.254137710E1,4.222208934E0,1.330691088E1
5.147752708E0,-2.218142427E0,1.194752687E1,5.276287669E0,1.324774568E1
5.157717708E0,-3.439825167E0,1.127786514E1,4.746638689E0,1.271035869E1
5.167683708E0,-4.864402782E0,1.086015876E1,3.933830105E0,1.253317526E1
5.177648708E0,-5.896807643E0,1.040719952E1,2.403116755E0,1.220070131E1
5.187613708E0,-6.735398355E0,9.672955298E0,5.185182202E0,1.287702488E1
5.197579708E0,-6.714470585E0,9.470191401E0,2.460199614E0,1.186681181E1
5.207544708E0,-5.383943680E0,9.509604558E0,-2.277138494E0,1.116265148E1
5.217509708E0,-4.039281131E0,9.456832852E0,-2.703768890E0,1.063286631E1
5.227474708E0,-1.666173748E0,9.412895120E0,-2.050887501E0,9.776751456E0
5.237440708E0,-1.480455983E-1,9.231171259E0,-3.817308692E-1,9.240246683E0
5.247405708E0,9.180981537E-1,9.202037507E0,8.355682862E-1,9.285395676E0
5.257370708E0,2.167543985E0,9.310119195E0,1.046866852E0,9.616262089E0
5.267336708E0,3.123668263E0,9.118724624E0,1.145949968E0,9.706783376E0
5.277301708E0,4.031909254E0,8.397116817E0,9.904021181E-2,9.315453399E0
5.287266708E0,4.129132955E0,6.859172800E0,-9.867644922E-1,8.066702835E0
5.297231708E0,2.672049207E0,4.563474659E0,4.706435573E-1,5.309110404E0
5.307197708E0,2.332640996E0,8.792510802E-1,3.118893135E0,3.992717228E0
5.317162708E0,3.515199578E0,-8.733815866E0,4.554361188E0,1.045841161E1
5.327127708E0,1.321034097E0,-2.012624024E1,6.062753377E0,2.106104593E1
5.337093708E0,-2.967467498E0,-2.873718213E1,8.969897783E0,3.025046390E1
5.347058708E0,-5.674698817E0,-3.129073839E1,6.149989157E0,3.239035168E1
5.357023708E0,-3.221637484E0,-1.899012156E1,-1.050831542E1,2.194147575E1
5.366989708E0,-1.322271221E0,-7.497322714E0,-1.540538426E1,1.718383290E1
5.376954708E0,1.355717149E0,-5.006322892E0,-4.567164252E0,6.910877454E0
5.386919708E0,3.876287948E0,-7.832660531E0,4.027577344E0,9.622762520E0
5.396884708E0,2.687223901E0,-1.221449670E1,6.169118907E0,1.394536231E1
5.406850708E0,-1.049611462E0,-1.612385621E1,4.267392708E0,1.671200358E1
5.416815708E0,-5.445434754E0,-1.947028087E1,-2.388391128E0,2.035802076E1
5.426780708E0,-7.878499194E0,-1.410959683E1,-1.126724192E1,1.970030997E1
5.436746708E0,-5.149127685E0,-5.009221357E0,-1.062373361E1,1.282456746E1
5.446711708E0,-2.078020336E0,-1.151608538E0,-5.470058548E-1,2.437947117E0
5.456676708E0,1.083468888E0,1.686600119E-1,6.059028701E0,6.157449133E0
5.466641708E0,1.953508995E0,5.900764453E-1,8.814006336E0,9.047159515E0
5.476607708E0,1.121671671E0,1.222996609E0,9.503055092E0,9.646860843E0
5.486572708E0,-5.205305395E-1,2.562378538E0,9.206294864E0,9.570402340E0
5.496537708E0,-1.960231685E0,3.699091879E0,7.996129385E0,9.025733994E0
5.506503708E0,-3.390151608E0,4.134755638E0,6.273049657E0,8.242601781E0
5.516468708E0,-4.693229344E0,3.877884530E0,4.000033450E0,7.284549246E0
5.526433708E0,-4.200393265E0,2.778782235E0,5.842667980E-1,5.070138260E0
5.536398708E0,-2.982890699E0,2.225840871E0,-2.648435519E0,4.567955254E0
5.546364708E0,-1.211232596E0,2.229788911E0,-4.216208521E0,4.920920370E0
5.556329708E0,4.621792010E-1,1.155282344E0,-5.547109648E0,5.684954912E0
5.566294708E0,9.230198282E-1,-4.076152503E-1,-5.053987055E0,5.153726899E0
5.576260708E0,9.934632086E-1,-1.492615231E0,-4.314020745E0,4.671792414E0
5.586225708E0,7.012619819E-1,-1.308700418E0,-3.207329932E0,3.534321781E0
5.596190708E0,-1.240844577E-1,6.838318706E-2,-1.914835657E0,1.920070000E0
5.606155708E0,-7.786530970E-1,1.025383524E0,-3.146888872E-1,1.325421108E0
5.616121708E0,-6.873198078E-1,1.116831053E0,8.866542399E-1,1.582995850E0
5.626086708E0,-1.674865488E-2,6.584280574E-1,1.011322652E0,1.206889195E0
5.636051708E0,4.174520212E-1,-8.286089301E-2,4.925577887E-1,6.509572127E-1
5.646017708E0,9.133004402E-1,-6.017007101E-1,-2.516080284E-1,1.122260237E0
5.655982708E0,1.334943161E0,-9.232478696E-1,-1.285655372E0,2.070596438E0
5.665947708E0,1.461599991E0,-1.054740055E0,-2.327646743E0,2.943924333E0
5.675912708E0,1.301609062E0,-8.851643693E-1,-2.653079377E0,3.084887728E0
5.685878708E0,1.041159897E0,-7.237192369E-1,-1.955235239E0,2.330392307E0
5.695843708E0,1.099045431E0,-5.474134058E-1,-9.258375283E-1,1.537770277E0
5.705808708E0,1.332788900E0,-2.377606523E-1,8.854204774E-2,1.356722549E0
5.715774708E0,1.252274934E0,1.264308357E-1,8.979031134E-1,1.546094197E0
5.725739708E0,6.241247821E-1,4.826502299E-1,1.268034203E0,1.493450276E0
5.735704708E0,-3.376766308E-1,7.721815449E-1,1.276400399E0,1.529538435E0
5.745669708E0,-1.073126406E0,9.894184703E-1,1.060351628E0,1.804132691E0
5.755635708E0,-1.506045409E0,1.135598277E0,7.027745835E-1,2.012870670E0
5.765600708E0,-1.577938094E0,1.052724520E0,-1.133066140E-2,1.896904301E0
5.775565708E0,-1.018258107E0,5.522823822E-1,-8.361600244E-1,1.428645859E0
5.785531708E0,-2.582494421E-1,8.765560985E-3,-1.165433183E0,1.193735362E0
5.795496708E0,4.319042187E-1,-3.846707761E-1,-1.205106468E0,1.336710313E0
5.805461708E0,1.052655304E0,-4.554992688E-1,-1.229096425E0,1.681142704E0
5.815427708E0,1.543381488E0,-2.596912193E-1,-1.080625021E0,1.901898100E0
5.825392708E0,1.505282347E0,5.833884001E-2,-8.960845562E-1,1.752782330E0
5.835357708E0,1.010855386E0,1.644622958E-1,-7.657759202E-1,1.278784274E0
5.845322708E0,6.015022336E-1,1.234709752E-1,-6.910626105E-1,9.244552723E-1
5.855288708E0,4.548566232E-1,1.282563365E-1,-7.189433042E-1,8.603625458E-1
5.865253708E0,4.917977237E-1,1.488391203E-1,-7.512783337E-1,9.101852665E-1
5.875218708E0,6.264168906E-1,1.373756540E-1,-8.378731855E-1,1.055131113E0
5.885184708E0,9.656029071E-1,5.225364268E-2,-1.031399724E0,1.413826301E0
5.895149708E0,1.286189661E0,-2.071083784E-2,-1.075912385E0,1.676991426E0
5.905114708E0,1.266441275E0,-9.313386619E-2,-9.906023853E-1,1.610540439E0
5.915079708E0,1.245626649E0,-1.030507439E-1,-8.865396345E-1,1.532369971E0
5.925045708E0,7.986863887E-1,6.833640933E-3,-5.172855540E-1,9.515939211E-1
5.935010708E0,1.976141447E-1,1.739844865E-1,1.099230496E-1,2.853156648E-1
5.944975708E0,-5.730447487E-1,2.671955359E-1,6.029789845E-1,8.737032643E-1
5.954941708E0,-1.122588368E0,2.712318689E-1,4.409209907E-1,1.236196866E0
5.964906708E0,-1.078221596E0,1.404518741E-1,3.182977156E-1,1.132961595E0
5.974871500E0,-6.655634147E-1,7.351177990E-2,4.559949665E-1,8.101296503E-1
5.984836500E0,-3.353036845E-1,-9.049501777E-2,6.060579090E-1,6.985156392E-1
5.994802500E0,-1.047579116E-1,-2.194746548E-1,5.961188118E-1,6.438175067E-1
6.004767500E0,-5.490933839E-2,-2.140560400E-1,3.213255501E-1,3.899809391E-1
6.014732500E0,-8.701216031E-2,-1.838943475E-1,-5.142275333E-2,2.098393354E-1
6.024698500E0,-3.040131871E-2,-9.386593759E-2,-2.932271938E-1,3.093820318E-1
6.034663500E0,1.408110028E-1,4.506566048E-2,-2.975343990E-1,3.322429395E-1
6.044628500E0,3.704296997E-1,1.765636933E-1,-2.205862105E-1,4.658875148E-1
6.054593500E0,5.669095211E-1,2.551146036E-1,-1.775344773E-1,6.465201905E-1
6.064559500E0,7.283945243E-1,3.196187478E-1,1.222068071E-3,7.954346110E-1
6.074524500E0,7.139877158E-1,2.788402659E-1,2.069269685E-1,7.939452894E-1
6.084489500E0,4.619098637E-1,6.888955593E-2,1.595962429E-1,4.935356662E-1
6.094455500E0,8.572500542E-2,-2.450778580E-1,-4.809817269E-2,2.640556139E-1
6.104420500E0,-1.984238745E-1,-4.587438887E-1,-1.367279287E-1,5.181819332E-1
6.114385500E0,-3.693575396E-1,-4.090168279E-1,-1.150382669E-1,5.629862880E-1
6.124350500E0,-3.331925108E-1,-2.449053651E-1,1.711713910E-2,4.138706121E-1
6.134316500E0,-2.149124744E-1,-1.302110606E-1,2.079059386E-1,3.261398033E-1
6.144281500E0,-3.079390807E-1,-1.624578702E-1,2.914484708E-1,4.540498301E-1
6.154246500E0,-4.974827157E-1,-2.197079587E-1,3.846263373E-1,6.661066423E-1
6.164212500E0,-6.478399193E-1,-1.088886040E-1,3.537610786E-1,7.461234414E-1
6.174177500E0,-6.079783173E-1,1.174495125E-1,2.210127649E-1,6.574790221E-1
6.184142500E0,-2.698656304E-1,3.650820190E-1,5.934821561E-2,4.578586569E-1
6.194107500E0,2.143510686E-1,5.519783270E-1,-1.102901816E-2,5.922398951E-1
6.204073500E0,3.362777941E-1,4.212690836E-1,2.820009783E-2,5.397644312E-1
6.214038500E0,6.169080023E-1,-6.141330600E-3,-2.266483113E-2,6.173547553E-1
6.224003500E0,7.780566810E-1,-5.341261929E-1,-6.080168724E-2,9.457059977E-1
6.233969500E0,8.909205146E-1,-6.688606596E-1,-4.889700468E-1,1.216637026E0
6.243934500E0,9.624720155E-1,-3.897654551E-1,-9.143093772E-1,1.383557418E0
6.253899500E0,1.169100045E0,-2.690362394E-2,-1.307789276E0,1.754374963E0
6.263864500E0,1.078169044E0,1.804333806E-2,-1.522336628E0,1.865551624E0
6.273830500E0,6.900979661E-1,-1.129196745E-1,-1.573201557E0,1.721612383E0
6.283795500E0,4.006265486E-1,-1.385316485E-1,-1.333436626E0,1.399194727E0
6.293760500E0,1.441920822E-1,-1.671040678E-1,-1.199518869E0,1.219655953E0
6.303726500E0,6.432185724E-2,-1.667842251E-1,-1.271819837E0,1.284320823E0
6.313691500E0,1.755228524E-1,-9.415888309E-2,-1.159528445E0,1.176511956E0
6.323656500E0,2.135782129E-1,4.761095345E-2,-1.036788518E0,1.059628656E0
6.333621500E0,4.287922209E-1,1.730132639E-1,-8.221476106E-1,9.432513196E-1
6.343587500E0,3.666168765E-1,3.227996331E-1,-2.013077943E-1,5.283297885E-1
6.353552500E0,1.328002443E-1,6.458407563E-1,2.402724700E-1,7.017670890E-1
6.363517500E0,7.961740594E-2,9.201435828E-1,4.620352864E-1,1.032705064E0
6.373483500E0,6.717729019E-2,1.054737132E0,6.280726759E-1,1.229413881E0
6.383448500E0,-1.245758248E-1,1.059160550E0,8.652967000E-1,1.373345764E0
6.393413500E0,-3.660421318E-1,9.975729972E-1,9.335652816E-1,1.414454970E0
6.403379500E0,-5.744469841E-1,8.870688075E-1,8.888668263E-1,1.380928905E0
6.413344500E0,-5.967324771E-1,8.193516183E-1,8.294637930E-1,1.309746887E0
6.423309500E0,-4.924163591E-1,8.522416216E-1,7.906077294E-1,1.262477815E0
6.433274500E0,-3.681839669E-1,9.072697681E-1,6.065360650E-1,1.151774224E0
6.443240500E0,-3.574264788E-1,9.469390333E-1,5.197790261E-1,1.137812575E0
6.453205500E0,-4.241932762E-1,1.029618663E0,2.509696586E-1,1.141507904E0
6.463170500E0,-3.854027013E-1,9.574809784E-1,-3.063837214E-1,1.076650385E0
6.473136500E0,-4.236159002E-1,5.764103329E-1,-5.207319029E-1,8.847943363E-1
6.483101500E0,-7.061103469E-1,1.771834981E-1,-3.040060973E-1,7.889268161E-1
6.493066500E0,-9.537333517E-1,4.229524970E-2,1.384094417E-1,9.646519413E-1
6.503031500E0,-9.916811965E-1,1.171331781E-1,6.206423266E-1,1.175733250E0
6.512997500E0,-7.786156748E-1,1.008545297E-1,1.164936097E0,1.404809636E0
6.522962500E0,-4.366839155E-1,-1.546828276E-1,1.478674300E0,1.549547451E0
6.532927500E0,-1.494374183E-1,-5.688919830E-1,1.148292728E0,1.290172787E0
6.542893500E0,-9.122149777E-2,-7.555204886E-1,1.673181490E-1,7.791841460E-1
6.552858500E0,-2.991147552E-1,-7.061313969E-1,-1.240643360E0,1.458522243E0
6.562823500E0,-2.832345763E-1,-6.204053682E-1,-2.635835938E0,2.722637644E0
6.572788500E0,9.071613388E-2,-7.516730207E-1,-3.191094553E0,3.279683856E0
6.582754500E0,6.542556305E-1,-8.284791219E-1,-2.468973945E0,2.685192810E0
6.592719500E0,5.439727214E-1,-6.918589282E-1,-1.131120479E0,1.433181299E0
6.602684500E0,-3.264630234E-2,-4.914035118E-1,-1.248297950E-1,5.080606953E-1
6.612650500E0,-5.209101334E-1,-3.707041168E-1,7.128072361E-1,9.575296680E-1
6.622615500E0,-1.011922503E0,-4.154282999E-1,8.828803738E-1,1.405718883E0
6.632580500E0,-1.182285955E0,-5.227270460E-1,2.457573044E-1,1.315842048E0
6.642545500E0,-8.813413867E-1,-5.455732870E-1,-1.997548469E-1,1.055611126E0
6.652511500E0,-2.270272840E-1,-4.910918552E-1,-1.154380703E-1,5.532075071E-1
6.662476500E0,3.074312135E-1,-3.148234463E-1,3.497618023E-1,5.621041467E-1
6.672441500E0,7.286392303E-1,4.761387706E-3,8.008042502E-1,1.082693514E0
6.682407500E0,8.909006341E-1,4.110674465E-1,8.746849164E-1,1.314440599E0
6.692372500E0,8.006528074E-1,6.516698456E-1,5.712074804E-1,1.179829009E0
6.702337500E0,6.986435256E-1,5.686382139E-1,1.058264903E-1,9.070013452E-1
6.712302500E0,6.562167867E-1,2.793068737E-1,-2.501110316E-1,7.557700238E-1
6.722268500E0,6.076472918E-1,-3.377936482E-2,-4.472477511E-1,7.552528237E-1
6.732233500E0,5.404039829E-1,-2.992622513E-1,-6.025813007E-1,8.629592017E-1
6.742198500E0,4.787745858E-1,-4.531083423E-1,-5.976894836E-1,8.898117737E-1
6.752164500E0,4.591341173E-1,-4.749512011E-1,-4.209141211E-1,7.832952690E-1
6.762129500E0,5.022087277E-1,-3.990689600E-1,-2.117440875E-1,6.755036637E-1
6.772094500E0,4.927737337E-1,-3.115390652E-1,-7.580794495E-2,5.879025313E-1
6.782059500E0,3.826880218E-1,-2.688888896E-1,-8.272753995E-2,4.749686335E-1
6.792025500E0,1.996515705E-1,-3.048141825E-1,-8.156284768E-2,3.733964831E-1
6.801990500E0,-1.388605179E-1,-3.141036540E-1,-1.379685616E-1,3.701062995E-1
6.811955500E0,-4.013477295E-1,-2.202540886E-1,-3.424445601E-1,5.717168358E-1
6.821921500E0,-5.072768019E-1,-4.877864242E-2,-3.552686735E-1,6.212285731E-1
6.831886500E0,-2.959559066E-1,1.611340606E-1,-3.145638664E-1,4.609821149E-1
6.841851500E0,9.221091975E-2,2.410573125E-1,-2.392564432E-1,3.519305716E-1
6.851816500E0,5.036077837E-1,1.472130096E-1,-8.664173920E-2,5.317887372E-1
6.861782500E0,7.646010683E-1,8.937586069E-2,6.088007648E-2,7.722106072E-1
6.871747500E0,7.800565749E-1,1.408208334E-1,1.400817637E-1,8.049482392E-1
6.881712500E0,8.227591563E-1,2.300867665E-1,-7.507821243E-2,8.576183810E-1
6.891678500E0,8.289761353E-1,3.599335456E-1,-3.052281654E-1,9.538961280E-1
6.901643500E0,8.070963659E-1,3.936854285E-1,-3.469983351E-1,9.627048380E-1
6.911608500E0,7.737813431E-1,2.252142817E-1,-4.076175527E-1,9.031119027E-1
6.921573500E0,7.375435895E-1,-1.243644297E-2,-5.760630083E-1,9.359347206E-1
6.931539500E0,7.384860876E-1,-2.005846399E-1,-7.679335427E-1,1.084120761E0
6.941504500E0,7.116632283E-1,-3.035488451E-1,-8.754976793E-1,1.168376069E0
6.951469500E0,5.595203216E-1,-3.475508970E-1,-8.999882305E-1,1.115272806E0
6.961435500E0,2.822431992E-1,-3.155485010E-1,-9.781538093E-1,1.065840961E0
6.971404083E0,-1.047177120E-1,-2.114499360E-1,-9.117060506E-1,9.417456118E-1
6.981369083E0,-5.403316967E-1,-1.032056952E-1,-5.102023101E-1,7.502773855E-1
6.991334083E0,-7.823721454E-1,2.674282551E-2,-2.401685357E-2,7.831973965E-1
7.001300083E0,-7.371106032E-1,1.737049896E-1,3.648732734E-1,8.406176125E-1
7.011265083E0,-5.624669163E-1,2.205903035E-1,5.175405292E-1,7.955358655E-1
7.021230083E0,-2.563481469E-1,3.620186627E-2,3.265984961E-1,4.167631524E-1
7.031196083E0,1.923514679E-2,-1.902303904E-1,1.457348335E-1,2.404084732E-1
7.041161083E0,6.820524897E-2,-3.280790842E-1,8.643705010E-2,3.460624295E-1
7.051126083E0,-6.672159109E-2,-2.898178285E-1,-1.378375840E-1,3.277885660E-1
7.061091083E0,-1.116078151E-1,-1.540536672E-1,1.704848913E-1,2.554484977E-1
7.071057083E0,-9.780966528E-3,3.147731602E-2,4.208568549E-1,4.221456870E-1
7.081022083E0,2.524638415E-1,2.577119368E-1,5.451359153E-1,6.537022256E-1
7.090987083E0,4.759949291E-1,3.839082992E-1,5.049748993E-1,7.930677169E-1
7.100953083E0,5.127414635E-1,3.482782906E-1,3.918733764E-1,7.333255206E-1
7.110918083E0,4.103698736E-1,1.657475138E-1,1.016386414E-1,4.540992016E-1
7.120883083E0,2.075503914E-1,-5.372246325E-2,-2.834332172E-1,3.553838159E-1
7.130848083E0,-9.440450270E-2,-1.547395456E-1,-6.751171803E-1,6.990277135E-1
7.140814083E0,-4.219904839E-1,-2.063768917E-1,-9.918421412E-1,1.097459896E0
7.150779083E0,-6.954067263E-1,-2.536791122E-1,-1.044988654E0,1.280603332E0
7.160744083E0,-9.116968413E-1,-2.145846283E-1,-9.014465261E-1,1.299939819E0
7.170710083E0,-1.086452868E0,-2.011997670E-1,-6.369044566E-1,1.275346411E0
7.180675083E0,-1.167737205E0,-1.957256037E-1,-2.003302860E-1,1.200854244E0
7.190640083E0,-1.107172915E0,-1.415833104E-1,1.561323524E-1,1.127055903E0
7.200605083E0,-6.408542508E-1,2.011559129E-2,1.793516823E-1,6.657821218E-1
7.210571083E0,-3.571986932E-1,1.468364489E-1,-1.181359391E-1,4.038662517E-1
7.220536083E0,-1.409008307E-1,3.400553513E-1,-6.242206764E-1,7.246669158E-1
7.230501083E0,-5.869626934E-2,4.724140942E-1,-1.215252630E0,1.305166381E0
7.240467083E0,-2.922145291E-1,5.817956185E-1,-1.556025946E0,1.686740116E0
7.250432083E0,-4.933795052E-1,8.351367617E-1,-1.518599088E0,1.801948928E0
7.260397083E0,-3.513194640E-1,1.200000679E0,-1.054747583E0,1.635823787E0
7.270363083E0,-7.867603163E-2,1.518490915E0,-2.876922926E-1,1.547504905E0
7.280328083E0,3.237742178E-1,1.704234152E0,1.889937774E-1,1.744982073E0
7.290293083E0,9.569665696E-1,1.840668404E0,3.626794712E-1,2.106034565E0
7.300258083E0,1.455042631E0,1.911783410E0,6.329656260E-1,2.484493983E0
7.310224083E0,1.810981944E0,1.866169281E0,8.339146936E-1,2.730871125E0
7.320189083E0,2.240794102E0,1.791669322E0,1.112771916E0,3.077255027E0
7.330154083E0,2.989855610E0,1.819218478E0,1.031862897E0,3.648771503E0
7.340120083E0,3.652700654E0,1.770014158E0,2.585663612E-1,4.067189294E0
7.350085083E0,3.506120606E0,1.821380194E0,-3.276895134E-1,3.964553938E0
7.360050083E0,2.959048385E0,1.606426021E0,-1.954717030E0,3.893262202E0
7.370015083E0,1.247869349E0,1.061918682E0,-4.142220193E0,4.454529978E0
7.379981083E0,-1.367315686E0,3.737189412E-1,-2.833624147E0,3.168381896E0
7.389946083E0,-2.260985853E0,7.356031179E-1,1.964472378E0,3.084205035E0
7.399911083E0,-1.689695927E0,1.267307394E0,5.272909148E0,5.680203450E0
7.409877083E0,-1.904665741E0,1.160026774E0,6.167008063E0,6.557850421E0
7.419842083E0,-2.215208294E0,7.644252133E-1,5.613017124E0,6.082553323E0
7.429807083E0,-1.510316361E0,-2.294874269E-1,2.947543404E0,3.319899412E0
7.439772083E0,-3.822365803E-1,-1.591768221E0,-1.600472825E0,2.289398204E0
7.449738083E0,-8.757652625E-2,-2.843634873E0,-6.183222392E0,6.806332939E0
7.459703083E0,-6.175644985E-1,-3.566120932E0,-5.656940238E0,6.715621883E0
7.469668083E0,-3.072527346E0,-3.641365242E0,9.125252455E-2,4.765321830E0
7.479633083E0,-5.418663862E0,-2.468462899E0,3.842021803E0,7.086350165E0
7.489599083E0,-4.912151145E0,-8.834382713E-1,5.381396633E0,7.339558690E0
7.499564083E0,-1.004957446E0,-1.769955686E0,4.457666953E0,4.900354810E0
7.509529083E0,2.315742397E0,-5.353935769E0,1.053804208E0,5.927714094E0
7.519495083E0,3.595749359E0,-1.062977496E1,-1.260281087E0,1.129202539E1
7.529460083E0,3.513104813E0,-1.665501611E1,-2.046452973E0,1.714407876E1
7.539425083E0,1.478905996E0,-1.930866968E1,-3.903668997E0,1.975475941E1
7.549391083E0,-3.498203183E0,-1.697629722E1,-3.482009904E0,1.767926711E1
7.559356083E0,-6.478513214E0,-1.426112860E1,-5.700789678E-1,1.567405220E1
7.569321083E0,-7.190359095E0,-1.374716185E1,2.786322219E0,1.576227504E1
7.579286083E0,-6.964869994E0,-1.430857641E1,4.662908900E0,1.658274683E1
7.589252083E0,-5.798833451E0,-1.525547101E1,4.758819609E0,1.700006556E1
7.599217083E0,-3.468575926E0,-1.692276362E1,4.963889648E0,1.797362367E1
7.609182083E0,-1.227284811E0,-1.796636531E1,5.188122182E0,1.874068095E1
7.619147083E0,5.161831712E-1,-1.709270242E1,5.051740555E0,1.783106849E1
7.629113083E0,1.921990310E0,-1.469352669E1,4.924678220E0,1.561557648E1
7.639078083E0,2.377322641E0,-1.103642776E1,4.323113165E0,1.208899119E1
7.649043083E0,2.681157415E0,-5.803063327E0,2.830402039E0,6.991088954E0
7.659009083E0,3.101456153E0,-6.023661232E-1,2.316602705E-1,3.167892311E0
7.668974083E0,4.233076276E0,4.326937829E0,-4.059851051E0,7.288601806E0
7.678939083E0,6.315617387E0,7.720868200E0,-6.423330701E0,1.186414793E1
7.688905083E0,7.982431113E0,8.181224166E0,-8.591143219E0,1.429892923E1
7.698870083E0,9.206272645E0,9.082629177E0,-8.269909471E0,1.535060297E1
7.708835083E0,1.535050814E1,6.831962197E0,-1.522514618E1,2.267418982E1
7.718800083E0,1.428049107E1,3.182955229E-1,-2.591168356E1,2.958798882E1
7.728766083E0,-2.591099184E0,1.359509799E0,-2.630357799E1,2.646583226E1
7.738731083E0,-9.852084750E0,6.763317055E0,-1.746934731E1,2.116563552E1
7.748696083E0,-9.883089026E0,1.055130766E1,-6.235315236E0,1.574435449E1
7.758661083E0,-7.575487708E0,1.121151561E1,2.098742284E0,1.369272856E1
7.768627083E0,-3.242267046E0,1.129940979E1,8.722902038E0,1.463823682E1
7.778592083E0,1.114059254E0,1.115876554E1,1.285092987E1,1.705595424E1
7.788557083E0,3.254965737E0,1.063598938E1,1.466496304E1,1.840598307E1
7.798523083E0,4.285115034E0,1.018924573E1,1.541449656E1,1.896812177E1
7.808488083E0,4.741538748E0,1.057879191E1,1.684695330E1,2.045025339E1
7.818453083E0,4.271448629E0,1.062677884E1,1.628987152E1,1.991315184E1
7.828418083E0,3.843513720E0,1.097459228E1,1.230154069E1,1.692755673E1
7.838384083E0,3.204827324E0,1.195177428E1,8.130924078E0,1.480634165E1
7.848349083E0,1.364844652E0,1.333832687E1,5.031650691E0,1.432100811E1
7.858314083E0,-7.785506245E-1,1.324136483E1,3.045145712E0,1.360929080E1
7.868280083E0,-9.501030347E-1,1.233825653E1,4.888633351E-1,1.238443609E1
7.878245083E0,-1.699190051E0,1.127857148E1,-2.450129539E0,1.166604287E1
7.888210083E0,-3.333460806E0,9.861012279E0,-7.218123429E0,1.266699767E1
7.898176083E0,-4.993556081E0,8.772589338E0,-8.281543676E0,1.305671826E1
7.908141083E0,-5.979438155E0,7.296636917E0,7.527870615E-1,9.463682122E0
7.918106083E0,-6.065619097E0,6.246384015E0,1.462387465E0,8.828795240E0
7.928071083E0,-3.348442834E0,6.389084728E0,2.218451306E0,7.546787348E0
7.938037083E0,1.026995894E0,7.587357556E0,2.938253932E0,8.200978686E0
7.948002083E0,3.310636200E0,8.317514577E0,3.940785953E0,9.781163260E0
7.957967083E0,4.502035625E0,8.853769156E0,4.512884549E0,1.090979743E1
7.967929708E0,5.397869409E0,9.351918016E0,4.960125210E0,1.188268517E1
7.977894708E0,6.412744317E0,9.860344527E0,5.180373452E0,1.285246875E1
7.987859708E0,6.937252425E0,1.066310642E1,4.792720596E0,1.359402371E1
7.997824708E0,6.830172365E0,1.179334280E1,3.749221812E0,1.413473924E1
8.007790708E0,6.378308895E0,1.289823267E1,1.812589928E0,1.450285188E1
8.017755708E0,5.294221664E0,1.329934699E1,-6.977915132E-1,1.433137559E1
8.027720708E0,4.169142821E0,1.226230353E1,-4.596662285E0,1.374318536E1
8.037685708E0,2.986760094E0,6.825860628E0,-1.280175712E1,1.481209285E1
8.047651708E0,1.853651854E0,-4.503332537E-1,-5.534063340E0,5.853604214E0
8.057616708E0,2.236591562E0,-4.241787751E0,1.536486890E0,5.035463941E0
8.067581708E0,3.969306917E0,-1.782420781E1,-6.057550524E0,1.923932690E1
8.077547708E0,-1.056751848E1,-3.663286921E1,1.716416241E0,3.816524123E1
8.087512708E0,-2.662826920E1,-4.497342416E1,5.840724074E0,5.259075640E1
8.097477708E0,-1.199014137E1,-2.863299176E1,-1.004582055E0,3.105834658E1
8.107442708E0,4.881574592E0,-2.665771344E1,9.212605180E0,2.862403798E1
8.117408708E0,2.380034521E1,-3.101214195E1,4.558501017E0,3.935720153E1
8.127373708E0,3.914175274E1,-2.206352335E1,-2.939618672E1,5.369368365E1
8.137338708E0,1.247650926E1,-1.146434571E1,-3.577372612E1,3.958350650E1
8.147304708E0,-1.446688978E1,-7.159240213E0,-1.278890728E1,2.059373132E1
8.157269708E0,-1.164528780E1,-6.043689700E0,1.383464204E1,1.906662617E1
8.167234708E0,-5.014343006E-1,-4.481245265E0,2.004926515E1,2.055008585E1
8.177199708E0,4.288220490E0,-3.423415541E0,1.596740226E1,1.688391376E1
8.187165708E0,4.548614837E0,-3.972474353E0,1.544745965E1,1.658597176E1
8.197130708E0,2.279130933E0,-6.423152946E0,1.579785054E1,1.720533096E1
8.207095708E0,-5.630122788E-1,-7.002048345E0,1.240770625E1,1.425822002E1
8.217061708E0,-1.198004148E0,-3.302950619E0,3.602718655E0,5.032323364E0
8.227026708E0,-2.617420133E0,1.267362943E0,-4.179380710E0,5.091593081E0
8.236991708E0,-3.910461708E0,4.656746519E0,-5.344385512E0,8.095644225E0
8.246956708E0,-3.575855669E0,6.823260371E0,-4.641679999E0,8.993821161E0
8.256922708E0,-2.026504173E0,7.812112246E0,-3.482146729E0,8.789832920E0
8.266887708E0,-3.906411488E-1,7.003156977E0,-2.039991800E0,7.304681697E0
8.276852708E0,7.463934235E-1,6.051157764E0,-1.531375254E0,6.286391938E0
8.286818708E0,1.300342116E0,5.820902013E0,-1.042149246E0,6.054739046E0
8.296783708E0,1.270667935E0,5.594400174E0,-3.325218717E-1,5.746519042E0
8.306748708E0,8.615460766E-1,5.028146455E0,-9.126213592E-2,5.102239429E0
8.316713708E0,1.541162324E-1,4.206589267E0,-7.279257238E-1,4.271887280E0
8.326679708E0,-1.036031596E-1,2.830800235E0,-1.268829424E0,3.103883324E0
8.336644708E0,1.356043131E-1,2.746255928E-1,-1.798894726E0,1.824782174E0
8.346609708E0,5.275744609E-1,-3.010158897E0,-2.705319571E0,4.081439131E0
8.356575708E0,5.196917564E-1,-6.438530538E0,-3.523830360E0,7.358133963E0
8.366540708E0,2.707662843E-2,-7.862743286E0,-4.368033814E0,8.994619755E0
8.376505708E0,-4.711164509E-1,-4.216756405E0,-5.730019909E0,7.129944842E0
8.386470708E0,1.390858184E-1,-6.537608099E-1,-5.020545659E0,5.064842226E0
8.396436708E0,1.286366101E0,1.119150059E0,-2.976707561E0,3.430455145E0
8.406401708E0,2.031188524E0,2.323536735E0,-1.108920940E0,3.279368145E0
8.416366708E0,2.378465479E0,2.475321098E0,5.288408947E-1,3.473324814E0
8.426332708E0,2.244671245E0,1.601955240E0,1.571351498E0,3.173949451E0
8.436297708E0,1.739221551E0,2.370098698E-1,1.519289060E0,2.321487568E0
8.446262708E0,1.130289444E0,-8.352127755E-1,9.896787445E-1,1.718894594E0
8.456227708E0,4.033291682E-1,-1.371768486E0,5.790556498E-1,1.542636913E0
8.466193708E0,-4.242570108E-1,-1.643858142E0,5.225340879E-1,1.776317954E0
8.476158708E0,-1.156702559E0,-1.626953257E0,7.691509330E-1,2.139282793E0
8.486123708E0,-1.309920001E0,-1.187264274E0,1.048696958E0,2.055541821E0
8.496088708E0,-1.118220060E0,-6.265355891E-1,1.448867533E0,1.934471523E0
8.506054708E0,-5.923784211E-1,1.479404032E-2,1.740344217E0,1.838458335E0
8.516019708E0,2.287470963E-1,6.947936457E-1,1.542260431E0,1.706936051E0
8.525984708E0,1.213521196E0,1.066936178E0,7.486973727E-1,1.780880192E0
8.535950708E0,1.962432723E0,1.115494965E0,-1.116525646E-1,2.260074668E0
8.545915708E0,2.252396732E0,1.118777007E0,-7.425963879E-1,2.622289539E0
8.555880708E0,2.378190660E0,1.018838736E0,-1.178543737E0,2.843024538E0
8.565845708E0,1.991593372E0,7.617647302E-1,-1.400163735E0,2.550919080E0
8.575811708E0,1.185297563E0,3.716221297E-1,-1.428137984E0,1.892778757E0
8.585776708E0,5.567829841E-1,-4.941014171E-2,-1.370085658E0,1.479724084E0
8.595741708E0,1.648165274E-1,-5.229585958E-1,-1.133533040E0,1.259185187E0
8.605707708E0,-1.884543352E-1,-8.565761626E-1,-7.604303956E-1,1.160815293E0
8.615672708E0,-5.203377641E-1,-8.250608397E-1,-5.637698221E-1,1.126638003E0
8.625637708E0,-6.876555111E-1,-4.777695590E-1,-4.011458910E-1,9.284674896E-1
8.635602708E0,-3.803282683E-1,-1.163133985E-1,-2.400948608E-1,4.645685531E-1
8.645568708E0,9.676235586E-2,1.924096477E-1,-5.419433355E-2,2.220843350E-1
8.655533708E0,3.397555353E-1,4.677328134E-1,5.073511621E-2,5.803290967E-1
8.665498708E0,3.790912168E-1,6.009218609E-1,4.695781946E-2,7.120549630E-1
8.675464708E0,3.986985388E-1,5.268119109E-1,8.380697250E-2,6.659691607E-1
8.685429708E0,5.581228005E-1,3.112946516E-1,4.304720163E-2,6.405142326E-1
8.695394708E0,8.192006139E-1,4.275484085E-3,-1.307554364E-1,8.295811653E-1
8.705359708E0,9.510719915E-1,-3.233165270E-1,-4.070211732E-1,1.083853194E0
8.715325708E0,8.416847661E-1,-4.432142687E-1,-7.051122272E-1,1.184084197E0
8.725290708E0,6.296593910E-1,-3.409049517E-1,-7.977426481E-1,1.071951709E0
8.735255708E0,3.282088923E-1,-1.352852744E-1,-4.695267391E-1,5.886242785E-1
8.745221708E0,-1.020102319E-1,1.356735295E-1,-7.543375969E-2,1.857515710E-1
8.755186708E0,-4.056449579E-1,3.184709394E-1,2.689251194E-2,5.164249978E-1
8.765151708E0,-2.989636047E-1,2.317701799E-1,3.663748384E-2,3.800512577E-1
8.775116708E0,2.060193345E-3,-1.600382924E-3,1.524287260E-1,1.524510483E-1
8.785082708E0,1.650711371E-1,-1.858022940E-1,2.762388396E-1,3.715896517E-1
8.795047708E0,1.515202148E-1,-2.350972456E-1,3.330679286E-1,4.349291154E-1
8.805012708E0,1.174762635E-1,-1.914635682E-1,2.312339902E-1,3.223788589E-1
8.814978708E0,1.035936579E-2,-8.324797869E-2,1.971681346E-2,8.617595458E-2
8.824943708E0,-9.791067593E-2,-6.612791598E-2,-1.618532681E-1,2.003893264E-1
8.834908708E0,-8.873544440E-2,-5.998015344E-2,-1.213519442E-1,1.618576296E-1
8.844873708E0,-5.198978707E-2,6.039355159E-2,-7.827667594E-2,1.117029858E-1
8.854839708E0,-1.340963893E-2,1.800521421E-1,-1.114315581E-1,2.121687641E-1
8.864804708E0,5.245449454E-2,2.524640608E-1,-6.010119081E-2,2.647673113E-1
8.874769708E0,6.305535033E-2,2.555455434E-1,9.477751851E-2,2.797539633E-1
8.884735708E0,1.205235399E-2,2.074013239E-1,1.024057961E-1,2.316193331E-1
8.894700708E0,1.098527368E-1,1.654528141E-2,6.981575489E-2,1.312082686E-1
8.904665708E0,2.579229482E-1,-1.845199996E-1,1.383077002E-1,3.459781748E-1
8.914630708E0,2.701336156E-1,-2.322812265E-1,1.233218712E-1,3.770079871E-1
8.924596708E0,2.031323449E-1,-2.416934896E-1,5.492815912E-2,3.204615345E-1
8.934561708E0,1.075704224E-1,-1.980808622E-1,1.442338532E-1,2.676019958E-1
8.944526708E0,-6.500196151E-2,-9.504181266E-2,3.588605815E-1,3.768807744E-1
8.954491708E0,-2.864803109E-1,-1.277558148E-2,4.607190782E-1,5.426750898E-1
8.964457708E0,-4.264598762E-1,1.741300821E-2,4.724515164E-1,6.366959040E-1
8.974422375E0,-3.585494366E-1,7.138280869E-2,4.818772280E-1,6.048626842E-1
8.984387375E0,-4.173344191E-1,8.759947658E-2,3.930229390E-1,5.799213018E-1
8.994353375E0,-4.594270628E-1,1.312816858E-1,1.877172571E-1,5.133671938E-1
9.004318375E0,-4.871874500E-1,1.657463443E-1,3.471082628E-2,5.157793167E-1
9.014283375E0,-4.097369125E-1,1.121577823E-1,-7.333521226E-2,4.310936778E-1
9.024248375E0,-2.473389763E-1,-2.033544660E-2,-8.746265173E-2,2.631345949E-1
9.034214375E0,-6.969976075E-2,-1.284264904E-1,-1.054463299E-1,1.801953068E-1
9.044179375E0,6.761603236E-2,-1.658065706E-1,-1.441958463E-1,2.299047385E-1
9.054144375E0,1.742642757E-1,-1.402934146E-1,-1.928937972E-1,2.953951539E-1
9.064110375E0,2.002627507E-1,-4.443883896E-4,-1.769934636E-1,2.672677552E-1
9.074075375E0,1.217928243E-1,1.050224251E-1,-1.254847745E-1,2.039843877E-1
9.084040375E0,1.871379443E-2,1.553768921E-1,1.433150729E-2,1.571546270E-1
9.094005375E0,-3.754270591E-2,1.359349000E-1,1.613813978E-1,2.143168388E-1
9.103971375E0,-1.234104565E-1,6.946667612E-2,1.491659796E-1,2.056848301E-1
9.113936375E0,-1.517641168E-1,-3.456464589E-2,-4.701514045E-2,1.625960803E-1
9.123901375E0,1.735088155E-2,-1.276078802E-1,-9.753855547E-2,1.615505927E-1
9.133867375E0,3.346105702E-2,-2.255271077E-1,-3.562006831E-2,2.307615824E-1
9.143832375E0,3.889648251E-2,-1.986632448E-1,-4.090770543E-2,2.065271449E-1
9.153797375E0,4.145683207E-2,-1.411488622E-1,9.285495400E-2,1.739646881E-1
9.163762375E0,-6.604780912E-2,-6.831535935E-2,1.099884653E-1,1.453504865E-1
9.173728375E0,-1.252295984E-1,4.442480564E-2,3.209480027E-2,1.366970807E-1
9.183693375E0,-7.399052069E-2,2.047285616E-1,1.370265935E-1,2.572249374E-1
9.193658375E0,-1.001847312E-3,3.494617671E-1,2.463683567E-1,4.275767739E-1
9.203623375E0,-3.340638556E-2,3.536524665E-1,2.206294982E-1,4.181667480E-1
9.213589375E0,1.893313810E-2,2.069353008E-1,7.997063259E-2,2.226566516E-1
9.223554375E0,2.227509228E-1,4.202627778E-2,-6.354344666E-2,2.354186723E-1
9.233519375E0,3.665545671E-1,-1.355092227E-1,-1.618211085E-1,4.229788071E-1
9.243485375E0,3.780387180E-1,-2.983120787E-1,-2.511431565E-1,5.431171638E-1
9.253450375E0,3.454532084E-1,-3.293011522E-1,-2.389546355E-1,5.337382185E-1
9.263415375E0,2.972002307E-1,-1.970687091E-1,-1.482082240E-1,3.861731877E-1
9.273380375E0,2.037490068E-1,-4.967677474E-2,-6.450237175E-2,2.194128431E-1
9.283346375E0,9.281972453E-2,8.363272548E-2,6.603203991E-2,1.413158318E-1
9.293311375E0,-4.791179270E-2,1.633320290E-1,8.979218245E-2,1.924461681E-1
9.303276375E0,-1.824584907E-1,1.318055964E-1,7.924146652E-2,2.386273791E-1
9.313242375E0,-2.249855825E-1,3.060257256E-2,1.531935600E-1,2.739038090E-1
9.323207375E0,-2.573120604E-1,-4.095916092E-2,2.194600185E-1,3.406609003E-1
9.333172375E0,-1.750701682E-1,-5.831895947E-2,2.132070243E-1,2.819714526E-1
9.343137375E0,4.826978847E-2,-5.081347346E-2,2.355551008E-1,2.457604262E-1
9.353103375E0,2.426541140E-1,-2.426594496E-3,2.710652049E-1,3.638176092E-1
9.363068375E0,2.844876529E-1,6.901468635E-3,2.514325937E-1,3.797357030E-1
9.373033375E0,2.717807031E-1,4.151815474E-2,1.445601096E-1,3.106221709E-1
9.382999375E0,2.454410432E-1,7.534839034E-2,-5.412361879E-2,2.623891227E-1
9.392964375E0,3.167038377E-1,1.360185152E-1,-2.610752553E-1,4.323917740E-1
9.402929375E0,2.521234605E-1,1.496267402E-1,-2.144688352E-1,3.632509903E-1
9.412894375E0,1.005082284E-1,1.802673197E-1,-3.333971268E-1,3.921120435E-1
9.422860375E0,2.634499557E-2,1.077717859E-1,-5.060636508E-1,5.180822669E-1
9.432825375E0,-4.792480275E-2,1.068227828E-2,-5.221458328E-1,5.244493955E-1
9.442790375E0,3.269945718E-2,3.697194457E-3,-4.897388095E-1,4.908431779E-1
9.452755375E0,-3.304181166E-2,9.629253209E-2,-4.889196146E-1,4.994060498E-1
9.462721375E0,-2.979031391E-1,1.843855137E-1,-6.165719336E-1,7.091581257E-1
9.472686375E0,-4.687365610E-1,2.245886296E-1,-7.861090279E-1,9.424019418E-1
9.482651375E0,-3.191610570E-1,1.883651286E-1,-9.227444243E-1,9.943854759E-1
9.492617375E0,1.909366610E-1,8.769595563E-2,-8.769595563E-1,9.017790487E-1
9.502582375E0,7.763899322E-1,-1.387485802E-2,-7.361188424E-1,1.069974200E0
9.512547375E0,1.256371493E0,2.266263843E-2,-7.514864945E-1,1.464143051E0
9.522512375E0,1.424631555E0,2.445603794E-1,-9.106126213E-1,1.708391113E0
9.532478375E0,1.380221660E0,5.375362891E-1,-1.198748206E0,1.905506325E0
9.542443375E0,1.185572529E0,8.555862290E-1,-1.528022461E0,2.114819769E0
9.552408375E0,6.843743460E-1,9.822532922E-1,-1.784466137E0,2.148839028E0
9.562374375E0,2.769840673E-2,9.941962302E-1,-2.325020174E0,2.528816354E0
9.572339375E0,-6.941874357E-1,9.697379118E-1,-2.097790357E0,2.413091833E0
9.582304375E0,-1.157701191E0,1.075558482E0,-1.345236161E0,2.075273096E0
9.592269375E0,-9.410789537E-1,1.403921156E0,-1.553981613E-1,1.697283947E0
9.602235375E0,2.996622374E-1,1.946065636E0,1.172075401E0,2.291447067E0
9.612200375E0,2.083557649E0,2.266873122E0,2.260581665E0,3.819706231E0
9.622165375E0,3.473226509E0,1.823330240E0,3.176614509E0,5.047644529E0
9.632131375E0,3.481282218E0,1.324493748E0,3.254704366E0,4.946383536E0
9.642096375E0,2.814120467E0,1.148177392E0,2.054068387E0,3.668348711E0
9.652061375E0,2.424847494E0,1.017368161E0,5.418943651E-1,2.684878553E0
9.662026375E0,1.690999710E0,5.994881237E-1,-1.111473981E0,2.110507152E0
9.671992375E0,6.133002703E-1,-1.037652737E-1,-2.550419812E0,2.625175360E0
9.681957375E0,2.639889959E-1,5.058607525E-1,-2.285608917E0,2.355757503E0
9.691922375E0,5.053789053E-1,1.777210327E0,-2.364672482E-1,1.862740224E0
9.701887375E0,1.201252568E0,3.226794729E0,1.479864939E0,3.747694250E0
9.711853375E0,1.784710404E0,3.813504347E0,1.358262295E0,4.424125122E0
9.721818375E0,2.097683353E0,2.571472127E0,-1.027662769E-1,3.320136331E0
9.731783375E0,2.404540114E0,-1.264384371E-1,-2.211925375E0,3.269619810E0
9.741749375E0,2.921807176E0,-3.247692093E0,-3.896822785E0,5.854031852E0
9.751714375E0,2.758634191E0,-6.302653525E0,-5.225643765E0,8.639494014E0
9.761679375E0,1.045455846E0,-7.984354847E0,-4.362218466E0,9.158157577E0
9.771644375E0,-1.227728030E0,-6.151985981E0,-5.015250421E-1,6.293311926E0
9.781610375E0,-2.636893261E-1,-9.041719133E-1,2.237914495E0,2.428028046E0
9.791575375E0,1.584386111E0,2.860277218E0,3.034667501E0,4.461016920E0
9.801540375E0,2.765028999E0,3.931530980E0,2.432459838E0,5.386945523E0
9.811506375E0,3.520433713E0,3.194574232E0,1.459288441E0,4.972753845E0
9.821471375E0,2.823101791E0,5.931129044E-1,2.047265151E-1,2.891988863E0
9.831436375E0,8.437522685E-1,-2.327015244E0,-2.217030287E-2,2.475360450E0
9.841401375E0,-7.070879283E-1,-4.279167831E0,3.226984763E-1,4.349182104E0
9.851367375E0,-1.673895143E0,-6.125827877E0,9.839703271E-1,6.426187807E0
9.861332375E0,-1.726119988E0,-8.167332936E0,2.942161626E0,8.851052623E0
9.871297375E0,-1.551165594E0,-9.602778186E0,4.729507224E0,1.081608534E1
9.881263375E0,-8.478698777E-1,-1.085520851E1,5.579996728E0,1.223481911E1
9.891228375E0,3.082144115E-1,-1.342681863E1,5.596330340E0,1.454968618E1
9.901193375E0,-5.515594106E-1,-1.883535979E1,3.874361583E0,1.923761092E1
9.911158375E0,-1.011415111E0,-2.511126991E1,-9.129889297E-1,2.514820840E1
9.921124375E0,-8.126738057E-1,-2.771288560E1,-6.133262612E0,2.839509425E1
9.931089375E0,2.609035664E-1,-2.397164758E1,-6.892444042E0,2.494421262E1
9.941054375E0,3.012384932E0,-1.836702121E1,-2.656052102E0,1.880097188E1
9.951019375E0,5.303948507E0,-1.330575086E1,2.291728613E0,1.450609857E1
9.960985375E0,6.636182799E0,-9.180575302E0,2.996146045E0,1.171745604E1
9.970950833E0,6.205280428E0,-6.090128286E0,3.713520249E-1,8.702474939E0
9.980915833E0,3.684110143E0,-1.897232614E0,-1.667892537E0,4.466992797E0
9.990881833E0,6.037848039E-1,2.567132324E0,-1.236745752E0,2.912776084E0
1.000084683E1,-1.767450593E0,5.738751556E0,-4.575633359E-1,6.022168648E0
1.001081183E1,-3.671140141E0,8.296376308E0,-1.069090877E0,9.135101810E0
1.002077683E1,-3.544672468E0,9.334776319E0,-3.146751609E0,1.046923099E1
1.003074283E1,-3.419373946E0,9.890534871E0,-4.798260832E0,1.151251950E1
1.004070783E1,-2.842918589E0,1.089429130E1,-6.535308974E0,1.301837288E1
1.005067283E1,-2.041715851E0,1.148366842E1,-1.050406684E1,1.569645387E1
1.006063883E1,-1.820409848E0,7.919738436E0,-1.414613374E1,1.631408131E1
1.007060383E1,-1.264157791E0,3.926881274E0,-1.255205412E1,1.321259074E1
1.008056883E1,5.822085781E-1,1.836047350E0,-6.528809794E0,6.807010652E0
1.009053383E1,3.030801322E0,2.519600308E0,-9.584755898E-1,4.056207320E0
1.010049983E1,5.278233038E0,5.130749887E0,3.140644777E0,8.002998689E0
1.011046483E1,5.596109315E0,7.454467301E0,4.408555019E0,1.031120165E1
1.012042983E1,5.028141777E0,9.535759154E0,4.841301602E0,1.181740723E1
1.013039583E1,4.720720029E0,1.106196839E1,4.975771190E0,1.301578431E1
1.014036083E1,4.577015348E0,1.234579476E1,4.828917199E0,1.402448427E1
1.015032583E1,4.528758862E0,1.331548998E1,4.899249848E0,1.489344082E1
1.016029083E1,4.063985032E0,1.370524199E1,5.423340465E0,1.528928560E1
1.017025683E1,3.373683218E0,1.345806147E1,5.826632284E0,1.504828232E1
1.018022183E1,2.562559801E0,1.288548341E1,5.506949801E0,1.424531121E1
1.019018683E1,1.452263742E0,1.240891662E1,5.411806247E0,1.361535635E1
1.020015183E1,1.489782840E-1,1.143493655E1,4.571226897E0,1.231568446E1
1.021011783E1,-1.816629039E0,9.773680605E0,2.821086255E0,1.033361027E1
1.022008283E1,-3.594572899E0,8.221572878E0,7.796643730E-1,9.006835817E0
1.023004783E1,-5.296765203E0,6.798709667E0,-6.781938390E-1,8.645121262E0
1.024001383E1,-6.350624083E0,5.768329697E0,-1.184553432E0,8.660670907E0
1.024997883E1,-5.051632966E0,5.950381587E0,-1.524302462E0,7.952957604E0
1.025994383E1,-2.123078687E0,8.164314603E0,-5.014583838E-1,8.450737043E0
1.026990883E1,2.505689051E-1,9.682110284E0,1.673584363E0,9.828882385E0
1.027987483E1,2.002999682E0,9.957658567E0,3.067047043E0,1.061007773E1
1.028983983E1,3.077051044E0,1.007939526E1,3.882159430E0,1.123092221E1
1.029980483E1,3.640513887E0,1.019659217E1,3.666367936E0,1.143092678E1
1.030977083E1,4.312784351E0,1.015757019E1,1.924524201E0,1.120179157E1
1.031973583E1,4.283380750E0,1.007870529E1,-1.762714787E-1,1.095256694E1
1.032970083E1,2.422011448E0,9.092247847E0,-1.227903593E0,9.489091505E0
1.033966583E1,2.956418746E-1,7.985233684E0,-1.817010570E0,8.194686602E0
1.034963183E1,-1.217860927E0,7.090379893E0,-1.778100712E0,7.410689199E0
1.035959683E1,-1.531754446E0,5.187889463E0,-2.939370750E0,6.156327572E0
1.036956183E1,-5.509812306E-1,1.233483590E0,-3.490757339E0,3.743053417E0
1.037952783E1,1.005513882E-1,-6.165478431E0,6.211174421E0,8.752252428E0
1.038949283E1,3.289914325E-1,-1.694149576E1,8.109066017E0,1.878508625E1
1.039945783E1,-2.900431218E0,-2.508995330E1,9.217831421E0,2.688655191E1
1.040942283E1,-7.881742060E0,-2.531891155E1,1.037240157E1,2.847377486E1
1.041938883E1,-8.075081415E0,-1.286245005E1,5.944779954E0,1.630919894E1
1.042935383E1,-6.726692435E0,-6.562090391E0,6.089683313E0,1.119793125E1
1.043931883E1,-1.884657007E0,-1.473715159E1,7.159796283E0,1.649236951E1
1.044928383E1,5.495376992E-1,-3.283637734E1,3.384285828E-1,3.284271917E1
1.045924983E1,-7.570376218E-1,-3.389301832E1,-1.927410679E1,3.899744850E1
1.046921483E1,3.440374513E0,-1.988838252E1,-3.172377382E1,3.760028938E1
1.047917983E1,3.443302799E0,-4.296396067E0,-2.040150610E1,2.113141747E1
1.048914583E1,-2.089866210E0,-1.598310671E0,-5.842382344E0,6.407461996E0
1.049911083E1,-4.468041083E0,-2.224128222E0,3.782967263E0,6.262665469E0
1.050907583E1,-5.301199147E0,-3.550231708E0,1.385626388E1,1.525460279E1
1.051904083E1,-2.580313118E0,-3.826103927E0,1.227563635E1,1.311443232E1
1.052900683E1,3.590414798E-1,-3.215982057E0,1.115912339E1,1.161884186E1
1.053897183E1,1.827282519E0,-1.287956836E0,1.253349973E1,1.273131611E1
1.054893683E1,-6.045618989E-2,2.181141831E0,1.402332234E1,1.419206130E1
1.055890283E1,-2.988389713E0,3.076438256E0,1.405855298E1,1.469822633E1
1.056886783E1,-2.133914748E0,2.859151629E0,8.669686528E0,9.375062917E0
1.057883283E1,-1.625703561E-1,3.571413247E0,-9.387481805E-1,3.696304891E0
1.058879783E1,3.691988973E-1,2.757744538E0,-5.655555618E0,6.302917746E0
1.059876383E1,6.430261990E-1,2.486212707E0,-6.151857927E0,6.666340245E0
1.060872883E1,5.397837395E-1,3.095164549E0,-5.665085410E0,6.478009167E0
1.061869383E1,-1.630426649E-1,3.552648363E0,-6.052435380E0,7.019962060E0
1.062865883E1,-2.374962997E0,3.552646024E0,-6.374852021E0,7.674664898E0
1.063862483E1,-4.048934592E0,3.695528585E0,-6.966828811E0,8.864959477E0
1.064858983E1,-3.388211794E0,4.683582315E0,-7.263818250E0,9.283263329E0
1.065855483E1,-1.447757439E0,4.990257667E0,-5.722218554E0,7.729324574E0
1.066852083E1,5.087580478E-1,4.640015296E0,-2.260621279E0,5.186423167E0
1.067848583E1,1.611989647E0,3.696306265E0,1.380547496E0,4.262288354E0
1.068845083E1,1.325636879E0,2.166210381E0,3.495294778E0,4.320516883E0
1.069841583E1,-9.742126398E-2,2.857551831E-1,4.857156912E0,4.866530612E0
1.070838183E1,-1.289523598E0,-1.388789147E0,5.862754043E0,6.161452051E0
1.071834683E1,-3.186516184E0,-2.621541835E0,5.765167522E0,7.089677252E0
1.072831183E1,-4.320163537E0,-2.707896439E0,3.834419253E0,6.379599291E0
1.073827783E1,-3.286978365E0,-1.835652663E0,-1.643090987E-1,3.768400848E0
1.074824283E1,-1.277223102E0,-2.052211311E0,-3.072593712E0,3.909437585E0
1.075820783E1,7.163083296E-1,-3.029070547E0,-3.790880885E0,4.905012119E0
1.076817283E1,2.160327790E0,-3.821895102E0,-3.872744243E0,5.854233195E0
1.077813883E1,3.227581179E0,-4.037562050E0,-3.895981078E0,6.472855331E0
1.078810383E1,3.784004852E0,-3.392356886E0,-3.249095424E0,6.031865303E0
1.079806883E1,3.939704218E0,-1.848196110E0,-2.539538144E0,5.038487091E0
1.080803383E1,3.021327664E0,-2.988424212E-1,-1.734616284E0,3.496658590E0
1.081799983E1,8.757600731E-1,4.944323695E-1,-1.472551826E-1,1.016416825E0
1.082796483E1,-1.676753992E0,9.160832763E-1,1.369558239E0,2.350830128E0
1.083792983E1,-3.846275944E0,1.478260317E0,2.280432816E0,4.709508046E0
1.084789583E1,-5.159442759E0,1.905739728E0,2.538443545E0,6.057671923E0
1.085786083E1,-5.133902121E0,2.002547985E0,2.017678825E0,5.868405001E0
1.086782583E1,-3.508367983E0,1.858435754E0,1.178479491E0,4.141405953E0
1.087779083E1,-1.199546716E0,1.233148545E0,6.819747949E-1,1.850582957E0
1.088775683E1,6.358358049E-1,5.710531139E-1,2.812078035E-1,8.997036503E-1
1.089772183E1,1.776498428E0,7.516888082E-2,-4.483758252E-2,1.778653264E0
1.090768683E1,2.377630643E0,-1.337649983E-1,-3.695522153E-1,2.409894062E0
1.091765283E1,2.537363564E0,-1.789914572E-1,-5.259839451E-1,2.597481648E0
1.092761783E1,2.240758288E0,-2.728445309E-1,-6.854058679E-1,2.359072497E0
1.093758283E1,1.431246218E0,-4.756189531E-1,-1.030107490E0,1.826417413E0
1.094754783E1,7.222299510E-1,-6.723520321E-1,-1.377485894E0,1.694444081E0
1.095751383E1,4.153666849E-1,-6.245504594E-1,-1.361977909E0,1.554855808E0
1.096747883E1,3.447511771E-1,-3.872195774E-1,-1.052222829E0,1.173015455E0
1.097744400E1,2.402740780E-1,-1.607335263E-1,-7.152642361E-1,7.714725053E-1
1.098741000E1,-4.332604073E-2,-4.445053339E-3,-6.058849776E-1,6.074483602E-1
1.099737500E1,-5.168975913E-1,-1.656867027E-2,-5.869622183E-1,7.822929671E-1
1.100734000E1,-9.165197709E-1,-1.851164156E-1,-3.065403537E-1,9.839936820E-1
1.101730500E1,-1.119516241E0,-1.956437427E-1,1.023659619E-1,1.141083642E0
1.102727100E1,-9.945762992E-1,-6.899012804E-2,3.089377121E-1,1.043735677E0
1.103723600E1,-4.692707773E-1,-8.822863698E-3,6.064896528E-1,7.668915205E-1
1.104720100E1,8.118069559E-2,1.628700989E-1,8.505770655E-1,8.698266027E-1
1.105716600E1,4.482921369E-1,2.027586347E-1,7.312575404E-1,8.813708041E-1
1.106713200E1,6.227296364E-1,1.950835794E-1,3.514094746E-1,7.411736786E-1
1.107709700E1,7.837634173E-1,1.472843456E-1,-1.466095039E-1,8.108465449E-1
1.108706200E1,8.914321460E-1,9.267193615E-2,-4.779267760E-1,1.015703383E0
1.109702800E1,8.646516790E-1,1.415686923E-1,-5.985244294E-1,1.061082331E0
1.110699300E1,8.188217144E-1,2.270351046E-1,-6.579531904E-1,1.074670340E0
1.111695800E1,9.239520206E-1,3.342987674E-1,-5.932819621E-1,1.147792006E0
1.112692300E1,1.012114072E0,3.034944659E-1,-3.044494624E-1,1.099624146E0
1.113688900E1,8.938527471E-1,1.165291607E-2,-2.766902447E-2,8.943568073E-1
1.114685400E1,8.295697007E-1,-2.780099612E-1,-1.955535494E-2,8.751330406E-1
1.115681900E1,7.629002595E-1,-3.562018526E-1,1.100247180E-1,8.491183688E-1
1.116678400E1,7.339795654E-1,-1.754913139E-1,3.173739287E-1,8.186876171E-1
1.117675000E1,6.332754553E-1,1.178851300E-1,6.414710589E-1,9.090763585E-1
1.118671500E1,4.762772765E-1,2.282156575E-1,7.741841432E-1,9.371678174E-1
1.119668000E1,2.565386930E-1,9.468454778E-2,7.081012508E-1,7.590682749E-1
1.120664600E1,9.515195958E-2,-5.762547970E-2,3.582776872E-1,3.751499600E-1
1.121661100E1,-7.416739896E-2,-2.251827067E-1,-1.703141161E-1,2.919160027E-1
1.122657600E1,-2.907999415E-1,-2.856896943E-1,-7.774774412E-1,8.778692266E-1
1.123654100E1,-4.969308116E-1,-2.991523236E-1,-1.227686076E0,1.357809061E0
1.124650700E1,-5.477110291E-1,-2.698466635E-1,-1.349322049E0,1.481038347E0
1.125647200E1,-4.029075839E-1,-1.940568084E-1,-1.071947753E0,1.161492381E0
1.126643700E1,-1.287456753E-1,-3.310985863E-2,-5.040182948E-1,5.212544035E-1
1.127640300E1,1.927908131E-1,2.042333025E-1,1.766794682E-2,2.814101913E-1
1.128636800E1,4.302053833E-1,3.716279769E-1,6.527246833E-2,5.722276821E-1
1.129633300E1,5.491938829E-1,3.639885896E-1,-1.977235973E-1,6.878926045E-1
1.130629800E1,7.257525330E-1,3.747819650E-1,-4.300357410E-1,9.230975024E-1
1.131626400E1,8.953988971E-1,3.602001786E-1,-4.516423722E-1,1.065581619E0
1.132622900E1,8.913969896E-1,3.132201397E-1,-2.218106174E-1,9.705129566E-1
1.133619400E1,8.851968214E-1,3.163998556E-1,-2.752073908E-1,9.795005815E-1
1.134616000E1,7.134272602E-1,2.276379526E-1,-3.128505957E-1,8.115867103E-1
1.135612500E1,7.192374922E-1,2.446176821E-1,-4.404543098E-1,8.781459899E-1
1.136609000E1,7.720062015E-1,1.615644157E-1,-6.405752655E-1,1.016087253E0
1.137605500E1,8.940216585E-1,1.549705106E-1,-6.937744761E-1,1.142196834E0
1.138602100E1,9.534700077E-1,2.135841697E-1,-7.193070741E-1,1.213311963E0
1.139598600E1,8.936761612E-1,4.571949613E-1,-8.014578959E-1,1.284530682E0
1.140595100E1,3.645426133E-1,6.351690030E-1,-8.479700113E-1,1.120439253E0
1.141591600E1,1.130362534E-1,9.711804199E-1,-1.122447889E0,1.488575784E0
1.142588200E1,-4.634598143E-1,1.355500948E0,-1.080318846E0,1.794231487E0
1.143584700E1,-8.050958142E-1,1.719325231E0,-7.223686762E-1,2.031274236E0
1.144581200E1,-5.717351916E-1,2.206490096E0,-7.758538887E-2,2.280679540E0
1.145577800E1,-1.740433241E-1,2.732398027E0,2.140865918E-1,2.746292615E0
1.146574300E1,1.717385709E-1,3.081329452E0,1.328829458E-1,3.088971221E0
1.147570800E1,5.269987660E-1,3.091428178E0,6.704718599E-1,3.206897004E0
1.148567300E1,1.049178476E0,2.628912250E0,1.115053208E0,3.042252250E0
1.149563900E1,1.867294431E0,1.944585705E0,1.522739063E0,3.096277816E0
1.150560400E1,2.914484416E0,1.336165375E0,1.571619593E0,3.570650566E0
1.151556900E1,3.854883338E0,5.859056264E-1,7.786500272E-1,3.976142203E0
1.152553400E1,4.362553219E0,-1.647336066E-1,-1.492162657E-1,4.368211676E0
1.153550000E1,4.023087267E0,-7.798566002E-1,-1.514256069E0,4.368796049E0
1.154546500E1,2.824130901E0,-1.099824427E0,-3.136645281E0,4.361636474E0
1.155543000E1,2.516034091E0,-1.817783571E0,-3.462543062E0,4.650157967E0
1.156539600E1,2.020347202E0,-1.808795816E0,-1.786729302E0,3.247452342E0
1.157536100E1,1.762064430E0,-1.435574473E0,6.894402274E-1,2.375094304E0
1.158532600E1,2.255066425E0,-9.395224249E-1,1.722301171E0,2.989038021E0
1.159529100E1,2.906605000E0,-9.388698757E-1,1.109543376E0,3.249756264E0
1.160525700E1,2.871231684E0,-1.853676705E0,2.638409883E-2,3.417716318E0
1.161522200E1,2.218642949E0,-3.260549535E0,-1.241574090E0,4.134618003E0
1.162518700E1,6.260175989E-1,-4.663864335E0,-2.557001438E0,5.355537781E0
1.163515200E1,-1.769336174E0,-5.379527863E0,-1.489123566E0,5.855540924E0
1.164511800E1,-2.083560427E0,-4.643884399E0,2.295124822E0,5.583411530E0
1.165508300E1,-3.880670583E-1,-3.338035083E0,4.915434941E0,5.954374435E0
1.166504800E1,2.793962264E-1,-3.828661500E0,5.867767446E0,7.011947371E0
1.167501400E1,-5.465917806E-3,-6.358614888E0,6.571174625E0,9.143978845E0
1.168497900E1,-1.116410858E0,-1.019334580E1,5.566276821E0,1.166765227E1
1.169494400E1,-2.783515263E0,-1.534278280E1,4.371337199E0,1.619436724E1
1.170490900E1,-3.974599231E0,-2.012558301E1,2.654050015E0,2.068527283E1
1.171487500E1,-4.669550460E0,-2.206470917E1,7.294799137E-1,2.256519960E1
1.172484000E1,-2.706044334E0,-2.053370463E1,-3.863324086E-1,2.071484865E1
1.173480500E1,5.148901691E-1,-1.765297093E1,1.412156521E0,1.771684736E1
1.174477100E1,3.436935473E0,-1.437884006E1,3.342012359E0,1.515693286E1
1.175473600E1,5.544099501E0,-1.100029781E1,3.586620101E0,1.282994290E1
1.176470100E1,6.068481894E0,-7.413046210E0,2.303280226E0,9.853163269E0
1.177466600E1,5.514271685E0,-3.977134584E0,1.096205658E0,6.886687053E0
1.178463200E1,3.138591235E0,-1.498411576E0,9.451275659E-1,3.604061363E0
1.179459700E1,3.949696963E-1,5.161530215E-1,1.202675196E0,1.367056191E0
1.180456200E1,-1.537940508E0,2.895300871E0,-4.387344975E-2,3.278712097E0
1.181452700E1,-2.235382504E0,5.414760845E0,-2.631050577E0,6.421759657E0
1.182449300E1,-2.499333858E0,7.186198801E0,-5.696466247E0,9.504622593E0
1.183445800E1,-2.700077835E0,9.227853549E0,-1.066996053E1,1.436286041E1
1.184442300E1,-4.279078369E0,9.802766994E0,-2.025042574E1,2.290162647E1
1.185438900E1,-6.225892448E0,2.801761792E0,-2.624336570E1,2.711689232E1
1.186435400E1,-5.508102288E0,-4.614681650E0,-1.779746732E1,1.919334053E1
1.187431900E1,9.902766953E-1,-4.007359427E0,-6.307772763E0,7.538406644E0
1.188428400E1,6.239805897E0,8.499506825E-1,1.837356541E0,6.559990309E0
1.189425000E1,7.551706497E0,5.631859192E0,4.963856903E0,1.064828551E1
1.190421500E1,8.135115362E0,9.124812160E0,4.947980543E0,1.318805559E1
1.191418000E1,8.639327200E0,1.157387692E1,6.403270658E0,1.579855932E1
1.192414600E1,8.654231753E0,1.342694961E1,6.409631259E0,1.721226527E1
1.193411100E1,8.439550061E0,1.424821093E1,5.797604367E0,1.754564722E1
1.194407600E1,8.033642782E0,1.461339995E1,6.207965469E0,1.779409199E1
1.195404100E1,7.423891625E0,1.470271851E1,7.542250965E0,1.811545329E1
1.196400700E1,6.575165350E0,1.466211544E1,9.262224652E0,1.854721634E1
1.197397183E1,5.311600174E0,1.434829421E1,1.011486564E1,1.834113273E1
1.198393683E1,3.200268835E0,1.348134275E1,1.039689205E1,1.732292375E1
1.199390183E1,3.103047180E-1,1.200833791E1,9.834519714E0,1.552463353E1
1.200386783E1,-2.568906369E0,1.000560106E1,6.538065351E0,1.222528654E1
1.201383283E1,-4.420751141E0,8.014832289E0,2.451632273E0,9.475815431E0
1.202379783E1,-5.908909040E0,6.634690005E0,-9.679356538E-2,8.885025971E0
1.203376383E1,-7.063006738E0,5.604623446E0,-6.282517469E-1,9.038394128E0
1.204372883E1,-6.536667282E0,5.476109247E0,2.247693086E-1,8.530317279E0
1.205369383E1,-4.289985765E0,6.830313283E0,1.298261823E0,8.169616953E0
1.206365883E1,-3.525221997E-1,8.933950855E0,1.836962439E0,9.127660203E0
1.207362483E1,2.248596773E0,9.507793676E0,1.546079978E0,9.891647554E0
1.208358983E1,3.573423812E0,9.284452842E0,9.768522191E-1,9.996232419E0
1.209355483E1,4.421315398E0,9.340742818E0,5.619161817E-1,1.034955342E1
1.210351983E1,4.764048189E0,9.352379361E0,-4.057499886E-1,1.050370353E1
1.211348583E1,4.597159591E0,9.031288869E0,-1.889072825E0,1.030857173E1
1.212345083E1,4.419405112E0,8.605396392E0,-2.529048239E0,9.999003631E0
1.213341583E1,4.014111791E0,6.460548229E0,-4.813135564E0,9.001002769E0
1.214338183E1,3.028959742E0,2.644720198E0,-6.140267576E0,7.339756668E0
1.215334683E1,1.869694860E0,-2.070730612E0,2.342530246E0,3.642956504E0
1.216331183E1,7.837996700E-1,-1.197705530E1,4.979700519E0,1.299467633E1
1.217327683E1,-2.291162749E0,-2.207025935E1,5.225709254E0,2.279591656E1
1.218324283E1,-8.667685611E0,-2.428138161E1,9.152576494E0,2.735843422E1
1.219320783E1,-1.371099331E1,-1.739169745E1,1.355460368E1,2.596516433E1
1.220317283E1,-1.292751202E1,-1.541001642E1,1.212825845E1,2.348795066E1
1.221313783E1,-4.241411482E0,-2.704022893E1,4.276250070E0,2.770288553E1
1.222310383E1,1.435582952E0,-3.148748550E1,-7.571001724E0,3.241670416E1
1.223306883E1,3.748992017E0,-2.287901581E1,-1.610097020E1,2.822668148E1
1.224303383E1,7.766675287E0,-8.585336934E0,-2.432038487E1,2.693529981E1
1.225299983E1,3.638354218E0,-8.424896353E-1,-1.760859524E1,1.800027879E1
1.226296483E1,-8.752784234E0,-3.703284917E0,-2.388760818E0,9.799578014E0
1.227292983E1,-1.114860776E1,-3.900174116E0,7.992892367E0,1.426145650E1
1.228289483E1,-7.774550318E0,-3.467857304E0,1.311541230E1,1.563597476E1
1.229286083E1,-4.407383237E0,-3.914249534E0,1.139986729E1,1.283368032E1
1.230282583E1,-2.697881913E0,-3.945576577E0,1.232958511E1,1.322364587E1
1.231279083E1,-2.170253731E0,-2.322552649E0,1.418808635E1,1.453980902E1
1.232275683E1,-4.760038168E0,-9.213750064E-1,1.242990461E1,1.334201724E1
1.233272183E1,-4.708545833E0,5.011063814E-1,7.614803216E0,8.966980512E0
1.234268683E1,-1.345534515E0,2.009557042E0,-8.735950685E-1,2.571371420E0
1.235265183E1,6.940962191E-1,3.127728862E0,-5.448578217E0,6.320716888E0
1.236261783E1,2.204631851E0,4.136287608E0,-4.277220708E0,6.345383657E0
1.237258283E1,2.442389141E0,4.753134946E0,-1.907490385E0,5.674158624E0
1.238254783E1,1.725271557E0,6.017478971E0,-1.933143289E0,6.551614922E0
1.239251283E1,6.626737207E-2,7.549424329E0,-3.900838945E0,8.497925837E0
1.240247883E1,-2.167581846E0,7.701899248E0,-5.627746260E0,9.782085210E0
1.241244383E1,-2.938808833E0,6.081256306E0,-5.639199786E0,8.798798205E0
1.242240883E1,-1.920503948E0,4.705819277E0,-3.624255120E0,6.242459103E0
1.243237383E1,-8.847233431E-1,3.021690776E0,-1.252520370E0,3.388533284E0
1.244233983E1,-5.092106223E-1,8.192317504E-1,3.405570058E-1,1.022944374E0
1.245230483E1,-2.419918437E-1,-9.552175212E-1,1.083195530E0,1.464347336E0
1.246226983E1,-5.259390678E-1,-2.025766693E0,8.634138966E-1,2.264028744E0
1.247223583E1,-2.259175263E0,-3.224975660E0,2.309673937E-1,3.944323366E0
1.248220083E1,-3.891507373E0,-3.802209865E0,-7.644657053E-2,5.441183105E0
1.249216583E1,-3.946075636E0,-2.974534151E0,-3.655363111E-1,4.955096683E0
1.250213083E1,-2.834223487E0,-1.612917600E0,-3.883427910E-1,3.284073093E0
1.251209683E1,-4.789330088E-2,-9.423969162E-1,-1.061247422E0,1.420088661E0
1.252206183E1,1.611561631E0,-1.217901345E0,-1.610992112E0,2.583739570E0
1.253202683E1,2.627220359E0,-1.398519498E0,-1.902496862E0,3.532370013E0
1.254199283E1,3.411427580E0,-1.315542830E0,-1.968922402E0,4.152727597E0
1.255195783E1,3.634611416E0,-8.846609241E-1,-1.435672706E0,4.006766928E0
1.256192283E1,3.148166635E0,-4.737548608E-1,-1.556668409E-1,3.187417292E0
1.257188783E1,2.009047165E0,1.005902356E-1,1.180083894E0,2.332163567E0
1.258185383E1,6.006080116E-1,7.629862136E-1,1.810047705E0,2.054057117E0
1.259181883E1,-6.114004368E-1,1.100758812E0,1.863538034E0,2.249056349E0
1.260178383E1,-1.835498881E0,1.161945246E0,1.960664964E0,2.926325340E0
1.261174883E1,-2.767605282E0,7.363726115E-1,1.286161741E0,3.139441932E0
1.262171483E1,-2.915119423E0,3.627086341E-2,3.225312459E-1,2.933131983E0
1.263167983E1,-2.218024606E0,-1.470832014E-1,-5.490511743E-1,2.289699503E0
1.264164483E1,-1.093685362E0,3.147597116E-1,-1.101624858E0,1.583918771E0
1.265160983E1,-2.463947971E-1,9.169322920E-1,-1.221291561E0,1.546941596E0
1.266157583E1,-2.904947899E-2,1.104068921E0,-9.638305429E-1,1.465872221E0
1.267154083E1,9.230414629E-3,7.775989902E-1,-8.942054073E-1,1.185052193E0
1.268150583E1,2.692438155E-1,3.337842125E-1,-8.948450196E-1,9.922961966E-1
1.269147183E1,5.104893353E-1,-1.084179032E-1,-7.745596806E-1,9.339681483E-1
1.270143683E1,6.554623497E-1,-4.463162166E-1,-6.686291829E-1,1.037253123E0
1.271140183E1,6.324474165E-1,-6.516990817E-1,-6.785694496E-1,1.133648061E0
1.272136683E1,4.137207668E-1,-7.351411879E-1,-8.683103549E-1,1.210603284E0
1.273133283E1,1.409271797E-1,-7.014676577E-1,-1.179095714E0,1.379196885E0
1.274129783E1,5.713058598E-2,-5.094006568E-1,-1.354743733E0,1.448476274E0
1.275126283E1,1.717989434E-1,-1.976364738E-1,-1.237649732E0,1.265050161E0
1.276122883E1,2.842525949E-1,1.070987713E-1,-9.322028804E-1,9.804447433E-1
1.277119383E1,1.376183134E-1,2.977753043E-1,-6.247422481E-1,7.056286619E-1
1.278115883E1,-1.011685252E-2,3.412914526E-1,-3.103292032E-1,4.613961646E-1
1.279112383E1,-1.572550178E-1,4.363075376E-1,2.287083585E-2,4.643452197E-1
1.280108983E1,-2.460994396E-1,4.335178310E-1,1.798837423E-1,5.299630220E-1
1.281105483E1,-2.501314603E-1,3.395168227E-1,2.775486159E-1,5.048471596E-1
1.282101983E1,-2.342539309E-1,2.658693874E-1,2.824614465E-1,4.531510830E-1
1.283098483E1,-2.486336229E-1,1.576163757E-1,1.890030599E-1,3.498338991E-1
1.284095083E1,-1.646776195E-1,-1.454027116E-2,4.443883896E-2,1.711868811E-1
1.285091583E1,1.302719448E-1,-1.442244977E-1,1.009229422E-3,1.943514957E-1
1.286088083E1,4.817605761E-1,-2.567711198E-1,6.156540670E-2,5.493768833E-1
1.287084683E1,5.865837573E-1,-3.010012132E-1,2.416193761E-2,6.597469468E-1
1.288081183E1,6.652475920E-1,-1.866191500E-1,-1.637407494E-1,7.100648553E-1
1.289077683E1,7.220010325E-1,-4.918034613E-2,-2.003104055E-1,7.508851150E-1
1.290074183E1,7.287907463E-1,1.940749347E-2,-2.607471534E-1,7.742749387E-1
1.291070783E1,6.521493904E-1,2.874198854E-2,-2.726557390E-1,7.074362736E-1
1.292067283E1,5.444142227E-1,-2.640602589E-3,-1.317400344E-1,5.601332478E-1
1.293063783E1,4.418947714E-1,5.035972953E-2,-2.168845575E-2,4.452835955E-1
1.294060283E1,2.252126006E-1,1.088716471E-1,-6.230756454E-3,2.502250454E-1
1.295056883E1,-6.253107436E-2,1.084541559E-1,-1.111029446E-1,1.673807142E-1
1.296053383E1,-3.521509746E-1,7.129802406E-2,-1.627255996E-1,3.944278615E-1
1.297049883E1,-5.850268630E-1,6.610277295E-2,-1.150615096E-1,5.998876212E-1
1.298046362E1,-6.471986990E-1,3.709181249E-2,-1.103089658E-1,6.575789128E-1
1.299042963E1,-4.899995222E-1,8.408354580E-2,-2.019792008E-1,5.366238645E-1
1.300039463E1,-1.914477076E-1,1.522018540E-1,-3.609813301E-1,4.360334274E-1
1.301035963E1,1.995610117E-1,6.483041883E-2,-2.854762709E-1,3.542940613E-1
1.302032562E1,5.722827103E-1,9.773620963E-3,-1.659393755E-1,5.959353157E-1
1.303029062E1,7.711760431E-1,-2.177093804E-2,-2.008389938E-1,7.971968167E-1
1.304025563E1,8.199605327E-1,-5.200045824E-2,-2.626710335E-1,8.625748632E-1
1.305022063E1,6.930089293E-1,-4.466980398E-2,-1.103405408E-1,7.031584476E-1
1.306018662E1,6.477428555E-1,2.729363322E-2,-1.376832906E-1,6.627763106E-1
1.307015162E1,5.549223270E-1,-3.312623084E-2,-2.097689346E-1,5.941709705E-1
1.308011663E1,3.388677087E-1,-1.231499630E-1,-2.233262157E-1,4.241129991E-1
1.309008163E1,8.407243609E-2,-8.339825213E-2,-2.069552545E-1,2.384406012E-1
1.310004762E1,2.509361833E-2,-1.129313689E-1,-1.760480420E-1,2.106563478E-1
1.311001262E1,-1.867505662E-2,-7.300190270E-2,-1.676478223E-1,1.838037754E-1
1.311997762E1,3.539290398E-2,-2.084532380E-3,-1.864700460E-1,1.898106451E-1
1.312994363E1,1.403155609E-1,6.102154255E-2,-2.335413015E-1,2.792017636E-1
1.313990862E1,3.166452194E-1,1.037518251E-1,-3.697183494E-1,4.977150731E-1
1.314987362E1,5.658188327E-1,1.101363999E-1,-3.894842771E-1,6.956859781E-1
1.315983862E1,7.482073029E-1,8.175167620E-2,-4.521733725E-1,8.780422903E-1
1.316980463E1,9.205857785E-1,9.507748067E-2,-3.024647347E-1,9.736543630E-1
1.317976962E1,9.432752410E-1,2.761201411E-1,1.237157542E-2,9.829361976E-1
1.318973462E1,8.823136324E-1,4.649717581E-1,-6.997944038E-2,9.997865792E-1
1.319969962E1,7.783937730E-1,4.476137137E-1,-6.029391503E-1,1.081568547E0
1.320966563E1,7.728960016E-1,3.981948012E-1,-1.191273125E0,1.474808119E0
1.321963063E1,7.658935223E-1,4.486393154E-1,-1.555327642E0,1.790785916E0
1.322959562E1,1.896753435E-1,-1.630560404E-1,-1.644456897E0,1.663370823E0
1.323956162E1,-7.749519557E-2,-7.433027315E-1,-1.959584398E0,2.097254269E0
1.324952663E1,2.737108690E-1,-1.139692497E-1,-1.745159984E0,1.770166658E0
1.325949163E1,5.689381760E-1,4.969858485E-1,-1.633118999E0,1.799378573E0
1.326945662E1,7.985095105E-1,7.670102674E-1,-1.541045380E0,1.897562397E0
1.327942262E1,8.984021732E-1,9.200073427E-1,-1.261739091E0,1.801534210E0
1.328938763E1,1.041092288E0,9.724065810E-1,-9.408228457E-1,1.707218597E0
1.329935263E1,1.091426509E0,1.071849593E0,-6.778864217E-1,1.673201535E0
1.330931763E1,1.051766600E0,1.225926064E0,-3.412085684E-1,1.650918224E0
1.331928362E1,1.028039987E0,1.390981268E0,9.889863610E-2,1.732476852E0
1.332924862E1,1.108971445E0,1.777990930E0,1.019777799E-1,2.097967798E0
1.333921363E1,1.224796017E0,2.165500529E0,-3.764320493E-2,2.488158925E0
1.334917962E1,1.360300489E0,2.146768974E0,1.269358890E-1,2.544631047E0
1.335914462E1,1.938341610E0,2.132754368E0,3.076128061E-1,2.898350398E0
1.336910962E1,2.717301101E0,2.070184482E0,-1.401272075E-1,3.418921570E0
1.337907463E1,2.595565287E0,1.712666422E0,-1.094496736E0,3.296681443E0
1.338904062E1,2.185723709E0,7.567864108E-1,-1.468394748E0,2.739762206E0
1.339900562E1,1.456748703E0,-3.281451577E-1,-6.744894817E-1,1.638515209E0
1.340897062E1,7.482287914E-1,-1.236539930E0,5.843837424E-1,1.558968146E0
1.341893562E1,4.053821256E-1,-2.115184069E0,1.672693394E0,2.726947287E0
1.342890163E1,-2.909339158E-1,-3.139859496E0,1.750278636E0,3.606499064E0
1.343886662E1,-1.023421272E0,-3.834984679E0,2.419767871E-1,3.976562756E0
1.344883162E1,-8.115356451E-1,-4.776206889E0,-2.001843688E0,5.241957697E0
1.345879662E1,-5.624233911E-2,-5.119640177E0,-3.115001228E0,5.993088635E0
1.346876263E1,2.027493157E-1,-3.375477728E0,-2.470943288E0,4.188140149E0
1.347872762E1,1.050571210E0,-5.664928705E-1,-6.660425940E-1,1.366830924E0
1.348869262E1,2.473173416E0,1.472712479E0,2.831930209E0,4.037981860E0
1.349865863E1,2.790900005E0,3.873358786E0,5.207324438E0,7.064577760E0
1.350862363E1,9.472145833E-1,5.923454574E0,4.527807520E0,7.515688292E0
1.351858863E1,-2.343220510E0,6.580999117E0,2.380810505E0,7.380277122E0
1.352855362E1,-4.008237386E0,5.597931892E0,4.284316304E-1,6.898286894E0
1.353851962E1,-3.455674045E0,3.527177891E0,1.716108093E-1,4.940861995E0
1.354848463E1,-2.517918064E0,1.610690396E0,6.241829619E-1,3.053496242E0
1.355844963E1,-2.814817748E0,4.631743240E-1,1.454612130E0,3.202128332E0
1.356841462E1,-2.995915080E0,-7.047070152E-1,2.004093404E0,3.672670624E0
1.357838062E1,-1.411640065E0,-2.572017088E0,1.618653426E0,3.350826538E0
1.358834563E1,4.754493108E-1,-5.005591990E0,-8.033109516E-2,5.028762900E0
1.359831063E1,1.777622263E0,-7.435775506E0,-2.963832285E0,8.199695123E0
1.360827662E1,3.094941185E0,-9.532967108E0,-3.499075880E0,1.061600937E1
1.361824162E1,3.875383969E0,-1.060323328E1,-1.898697634E0,1.144780370E1
1.362820662E1,1.792711588E0,-1.094082110E1,-1.136341750E0,1.114480389E1
1.363817163E1,-1.539680347E0,-1.068160935E1,5.158311322E-1,1.080432671E1
1.364813762E1,-3.496091169E0,-1.001151376E1,2.674031413E0,1.093633875E1
1.365810262E1,-4.534058779E0,-9.746253070E0,4.345549516E0,1.159443567E1
1.366806762E1,-4.207505233E0,-9.972989967E0,3.648602926E0,1.142260620E1
1.367803263E1,-3.790573614E0,-1.236727275E1,-5.290804844E-1,1.294595727E1
1.368799862E1,-1.991180559E0,-1.801935512E1,-4.840015215E0,1.876400027E1
1.369796362E1,1.250113657E0,-2.446095662E1,-6.165731031E0,2.525702718E1
1.370792862E1,4.914919217E0,-2.664616168E1,-4.761276609E0,2.751080002E1
1.371789463E1,7.644809958E0,-2.251820752E1,-2.504845444E0,2.391206892E1
1.372785963E1,9.072219379E0,-1.517027123E1,-1.190272009E0,1.771606731E1
1.373782462E1,9.682899073E0,-8.224367847E0,-3.902852361E-1,1.271027472E1
1.374778962E1,9.915407757E0,-3.012860895E0,8.330060363E-1,1.039646771E1
1.375775563E1,7.947936049E0,1.597171633E0,1.389790775E0,8.225093499E0
1.376772063E1,3.521858679E0,6.281077884E0,1.825787240E0,7.428925023E0
1.377768562E1,4.731989367E-1,9.792619736E0,1.416575700E0,9.905857118E0
1.378765062E1,-6.079144000E-1,1.110544127E1,-5.598527724E-1,1.113614928E1
1.379761663E1,-1.427777796E0,1.178062394E1,-3.913665982E0,1.249553646E1
1.380758163E1,-1.654045453E0,1.296989615E1,-8.038043396E0,1.534810132E1
1.381754663E1,-2.900329476E0,1.259550829E1,-1.325986893E1,1.851709654E1
1.382751162E1,-4.703727143E0,6.876157207E0,-1.277710643E1,1.525323034E1
1.383747762E1,-5.927873315E0,5.489249110E-1,-6.777732196E0,9.021011823E0
1.384744263E1,-3.743971013E0,-2.793221934E0,-2.799155688E0,5.445611103E0
1.385740763E1,1.678162587E0,-2.377241072E0,-6.168239486E-1,2.974554852E0
1.386737362E1,4.888476938E0,2.781177839E0,1.098191884E0,5.730460920E0
1.387733862E1,6.658817371E0,8.257523898E0,2.047431797E-1,1.060982891E1
1.388730363E1,6.945715100E0,1.164878794E1,2.640544116E-1,1.356491590E1
1.389726863E1,7.193949870E0,1.352144061E1,1.654801791E0,1.540521470E1
1.390723462E1,7.431754961E0,1.449748358E1,2.443696432E0,1.647360507E1
1.391719962E1,7.433917261E0,1.472362347E1,3.076378030E0,1.677832876E1
1.392716462E1,6.754162070E0,1.472579045E1,3.988528469E0,1.668460275E1
1.393712963E1,5.455075058E0,1.463418914E1,5.262336212E0,1.648058003E1
1.394709562E1,3.865738109E0,1.451428380E1,6.675092511E0,1.643670360E1
1.395706062E1,2.191957865E0,1.377451045E1,8.192471870E0,1.617585895E1
1.396702562E1,2.301208265E-2,1.172068998E1,8.739725647E0,1.462046195E1
1.397699125E1,-1.874300711E0,9.201315960E0,7.131705090E0,1.179145606E1
1.398695625E1,-3.004649358E0,7.484274652E0,4.822100515E0,9.396538629E0
1.399692125E1,-3.630797277E0,6.512158093E0,3.479577463E0,8.227900778E0
1.400688625E1,-3.070294002E0,6.162402211E0,2.469399623E0,7.314358534E0
1.401685225E1,-2.143461497E0,6.532728013E0,2.295931445E0,7.248604257E0
1.402681725E1,-1.168642793E-1,7.841036083E0,1.868549098E0,8.061450232E0
1.403678225E1,1.997063004E0,8.970923384E0,1.113374180E0,9.257717271E0
1.404674725E1,3.104230657E0,9.622121944E0,2.285513607E-1,1.011304674E1
1.405671325E1,3.510268328E0,9.949609290E0,-1.777331364E-1,1.055217029E1
1.406667825E1,3.571745954E0,1.003278710E1,6.283417940E-2,1.064979504E1
1.407664325E1,3.341814138E0,9.687239462E0,5.368246464E-1,1.026150626E1
1.408660825E1,3.343574150E0,9.312469191E0,5.289472775E-1,9.908650552E0
1.409657425E1,3.354358170E0,8.976367727E0,1.137201583E-1,9.583309897E0
1.410653925E1,3.549717153E0,8.492274404E0,-5.006023514E-1,9.217907525E0
1.411650425E1,3.358602372E0,7.234263498E0,-1.915743145E0,8.202734303E0
1.412647025E1,2.824234396E0,5.125354661E0,-2.050135549E0,6.200694807E0
1.413643525E1,2.746153310E0,1.793511195E0,-3.919658355E-1,3.303282855E0
1.414640025E1,1.998354946E0,-3.225469750E0,1.419168355E0,4.051063616E0
1.415636525E1,-9.913803573E-1,-1.150502596E1,3.486368711E0,1.206247172E1
1.416633125E1,-6.706289746E0,-2.129009343E1,8.010973127E0,2.371535559E1
1.417629625E1,-1.317605728E1,-2.677371284E1,1.096564838E1,3.179128228E1
1.418626125E1,-1.548557648E1,-2.537418177E1,1.059510682E1,3.155801749E1
1.419622625E1,-1.140601856E1,-2.219346252E1,6.320914965E0,2.574103735E1
1.420619225E1,-5.277920796E0,-1.993702902E1,-1.426941644E0,2.067311627E1
1.421615725E1,-3.056513576E0,-1.922696420E1,-3.713954916E0,1.981948255E1
1.422612225E1,-5.818116984E-1,-1.817209141E1,-5.097858714E0,1.888257330E1
1.423608725E1,2.629094099E0,-1.530456540E1,-8.785321650E0,1.784162925E1
1.424605325E1,3.879064791E0,-1.094067375E1,-1.311915568E1,1.751735516E1
1.425601825E1,-3.353197644E-1,-7.494145921E0,-9.761967462E0,1.231140411E1
1.426598325E1,-2.898133847E0,-7.733048535E0,-1.626488403E0,8.416928416E0
1.427594925E1,-1.653242046E0,-6.197699513E0,2.130973306E0,6.759122409E0
1.428591425E1,-1.111503801E-1,-3.738852945E0,4.683174180E0,5.993621288E0
1.429587925E1,5.803143726E-1,-1.840881243E0,7.997104701E0,8.226742497E0
1.430584425E1,5.699112989E-1,-5.447447366E-1,9.979642929E0,1.001073517E1
1.431581025E1,1.092688996E0,-1.402255869E-1,9.953107095E0,1.001388902E1
1.432577525E1,1.960000720E0,8.223898315E-1,6.833998783E0,7.156917438E0
1.433574025E1,1.567330661E0,2.405619364E0,3.505154353E0,4.530964242E0
1.434570525E1,7.420718926E-1,3.003360339E0,8.297082067E-1,3.203007919E0
1.435567125E1,1.451802251E-1,3.410524185E0,-1.998834418E0,3.955766872E0
1.436563625E1,-8.690142866E-1,4.154826205E0,-4.256639678E0,6.011384864E0
1.437560125E1,-1.762628540E0,4.955304766E0,-4.504332411E0,6.924659931E0
1.438556625E1,-1.906987816E0,5.949737223E0,-2.787968795E0,6.841691718E0
1.439553225E1,-1.500523590E0,6.830881632E0,-8.072560680E-1,7.040183043E0
1.440549725E1,-1.059225527E0,7.487871859E0,2.202318509E-1,7.565625273E0
1.441546225E1,-1.101708765E0,7.315460858E0,4.773397887E-1,7.413338185E0
1.442542825E1,-1.631390124E0,5.961872535E0,7.302716267E-1,6.224038440E0
1.443539325E1,-1.898733156E0,4.451304013E0,6.912800539E-1,4.888472473E0
1.444535825E1,-1.742585016E0,3.114227641E0,3.998343605E-1,3.590944702E0
1.445532325E1,-1.574878539E0,1.860254238E0,2.608992541E-1,2.451296935E0
1.446528925E1,-1.568870525E0,1.075525737E0,7.158102930E-2,1.903479493E0
1.447525425E1,-1.624910532E0,1.092169837E0,-5.447307032E-1,2.032215719E0
1.448521925E1,-1.095771941E0,1.919280125E0,-1.416932965E0,2.625271676E0
1.449518425E1,5.207310989E-2,2.755335485E0,-1.314024893E0,3.053071676E0
1.450515025E1,1.456021017E0,3.211376790E0,-5.494973534E-1,3.568597124E0
1.451511525E1,2.828350251E0,3.045623429E0,-2.141466536E-1,4.161880105E0
1.452508025E1,3.864897864E0,1.699911305E0,-1.398665679E-1,4.224535076E0
1.453504625E1,3.524917358E0,-1.190595433E0,3.955980527E-1,3.741531462E0
1.454501125E1,2.171147770E0,-4.734725572E0,8.794703507E-1,5.282516160E0
1.455497625E1,1.064594075E0,-8.557814090E0,9.668289220E-1,8.677805063E0
1.456494125E1,-2.225527022E-1,-1.176727592E1,4.013756865E-1,1.177622243E1
1.457490725E1,-1.331632029E0,-1.151862424E1,-1.015502899E0,1.163972484E1
1.458487225E1,-1.609770336E0,-7.231361525E0,-3.199064893E0,8.069570387E0
1.459483725E1,-2.079205859E0,-3.362539594E0,-4.104605055E0,5.698907982E0
1.460480225E1,-2.335794838E0,-6.991995227E-1,-3.251374669E0,4.064019530E0
1.461476825E1,-2.303341914E0,1.128678682E0,-1.183087023E0,2.824711392E0
1.462473325E1,-2.544401273E0,1.910312836E0,8.280066669E-1,3.287684293E0
1.463469825E1,-4.021035187E0,2.132553808E0,2.508206424E0,5.196884565E0
1.464466325E1,-4.967379266E0,2.462508094E0,2.821697874E0,6.220995240E0
1.465462925E1,-4.561090457E0,2.995232125E0,2.500760579E0,6.002396614E0
1.466459425E1,-3.469717303E0,3.323528141E0,2.154496654E0,5.265608540E0
1.467455925E1,-1.848116587E0,3.618130161E0,1.580442165E0,4.359380486E0
1.468452425E1,2.453637868E-2,3.223950643E0,1.322010435E0,3.484561862E0
1.469449025E1,1.412083869E0,2.434146760E0,1.320053957E0,3.108310433E0
1.470445525E1,2.290205559E0,1.714678448E0,9.674686074E-1,3.020125691E0
1.471442025E1,2.300963559E0,7.780954188E-1,4.508700281E-1,2.470455335E0
1.472438625E1,2.351375914E0,-1.073116100E-1,-3.735674983E-1,2.383282850E0
1.473435125E1,2.087347814E0,-9.361222690E-1,-1.164220982E0,2.566857280E0
1.474431625E1,1.705314279E0,-1.614501026E0,-2.403821345E0,3.360515944E0
1.475428125E1,1.049231613E0,-2.128518060E0,-3.354132468E0,4.108732252E0
1.476424725E1,1.699223527E-1,-2.472582847E0,-4.014473734E0,4.717895601E0
1.477421225E1,-6.532207464E-1,-2.743535804E0,-4.224049053E0,5.079003490E0
1.478417725E1,-1.105932867E0,-2.748453312E0,-3.583894714E0,4.649880045E0
1.479414225E1,-1.000975931E0,-1.806396119E0,-2.418186784E0,3.180038848E0
1.480410825E1,-7.127785116E-1,-3.428327787E-1,-1.156889158E0,1.401420724E0
1.481407325E1,-4.250678734E-1,6.232208025E-1,7.205582321E-2,7.578119209E-1
1.482403825E1,-2.082568447E-1,1.081042001E0,1.063690973E0,1.530836767E0
1.483400325E1,-3.040938056E-1,1.255843343E0,1.612338726E0,2.066216763E0
1.484396925E1,-5.162279389E-1,1.162157500E0,1.724353251E0,2.142544159E0
1.485393425E1,-4.398507310E-1,9.724732393E-1,1.442860689E0,1.794719987E0
1.486389925E1,-4.372028925E-2,7.096432346E-1,8.544986469E-1,1.111608259E0
1.487386525E1,3.529082622E-1,3.619309545E-1,1.229716047E-1,5.202502022E-1
1.488383025E1,6.106739203E-1,6.258567274E-2,-5.249606824E-1,8.077272568E-1
1.489379525E1,7.272459119E-1,-2.149459863E-1,-9.960246545E-1,1.251860018E0
1.490376025E1,5.985717919E-1,-4.784852582E-1,-1.276383442E0,1.488754857E0
1.491372625E1,3.239001522E-1,-4.427090693E-1,-1.516470117E0,1.612632706E0
1.492369125E1,2.346786580E-1,-1.802164489E-1,-1.444616607E0,1.474608146E0
1.493365625E1,2.180308311E-1,2.000233072E-1,-8.635741103E-1,9.128565115E-1
1.494362125E1,1.497444154E-1,5.401751375E-1,-2.783011709E-1,6.258307366E-1
1.495358725E1,-1.388150923E-2,6.711486751E-1,3.881438395E-2,6.724134121E-1
1.496355225E1,-1.108192085E-1,5.344162148E-1,9.335722983E-2,5.537121635E-1
1.497351725E1,3.748152941E-2,3.803818434E-1,-4.494520783E-2,3.848574848E-1
1.498348246E1,2.836453615E-1,2.328121537E-1,-3.595131308E-1,5.137177058E-1
1.499344846E1,2.997143141E-1,1.306431699E-1,-6.985832262E-1,7.713072227E-1
1.500341346E1,7.851451144E-2,-2.223696113E-3,-1.079139901E0,1.081994640E0
1.501337846E1,-1.840357771E-1,-2.476412773E-2,-1.431522353E0,1.443516081E0
1.502334446E1,-3.771919680E-1,5.597539544E-2,-1.653720641E0,1.697114900E0
1.503330946E1,-4.812713103E-1,2.946090370E-1,-1.890058081E0,1.972494894E0
1.504327446E1,-5.393002479E-1,5.918499058E-1,-2.232790872E0,2.372021531E0
1.505323946E1,-4.781065779E-1,8.668275011E-1,-2.487801980E0,2.677523951E0
1.506320546E1,-3.300858486E-1,9.385956413E-1,-2.660279639E0,2.840247560E0
1.507317046E1,-1.560678137E-1,7.228485864E-1,-2.614018807E0,2.716608468E0
1.508313546E1,7.167019933E-2,3.812010384E-1,-2.117562132E0,2.152793588E0
1.509310046E1,2.487748332E-1,1.253982174E-1,-8.538957989E-1,8.981935571E-1
1.510306646E1,5.245325200E-1,2.396773696E-1,-4.149569412E-1,7.104708785E-1
1.511303146E1,8.023315430E-1,4.376734471E-1,-3.295794797E-1,9.715536962E-1
1.512299646E1,1.042078275E0,7.373958743E-1,-6.291158923E-1,1.423188889E0
1.513296146E1,1.103769689E0,1.079673167E0,-8.253485227E-1,1.750771790E0
1.514292746E1,1.085083231E0,1.201157259E0,-9.703850524E-1,1.887281518E0
1.515289246E1,8.770570587E-1,9.993546438E-1,-5.263405522E-1,1.430025582E0
1.516285746E1,8.907609587E-1,5.092480445E-1,4.894223289E-1,1.136803797E0
1.517282246E1,1.153029777E0,-1.689593893E-1,9.633042204E-1,1.511945754E0
1.518278846E1,1.061836090E0,-8.355723792E-1,2.033731771E-1,1.366395891E0
1.519275346E1,8.975144928E-1,-1.481832966E0,-5.515643442E-1,1.818126626E0
1.520271846E1,1.580962859E0,-1.737311851E0,1.982976477E-1,2.357332812E0
1.521268446E1,2.151575239E0,-1.801861019E0,2.090676488E0,3.499558160E0
1.522264946E1,3.257641715E-1,-2.287264118E0,2.466452626E0,3.379510023E0
1.523261446E1,-1.702662128E0,-2.944870641E0,3.286982166E0,4.730282568E0
1.524257946E1,-1.839446044E0,-4.577457690E0,5.184999769E0,7.156878038E0
1.525254546E1,5.996380316E-1,-7.251403441E0,6.655216656E0,9.860746745E0
1.526251046E1,2.705071065E0,-1.082561926E1,7.153224013E0,1.325443532E1
1.527247546E1,3.634302390E0,-1.543159733E1,6.640103942E0,1.718817414E1
1.528244046E1,4.081172046E0,-1.859714774E1,5.126570882E0,1.971779902E1
1.529240646E1,3.724327292E0,-1.817999100E1,2.514037267E0,1.872706784E1
1.530237146E1,2.387478377E0,-1.501745775E1,-7.364088643E-1,1.522387560E1
1.531233646E1,5.529916495E-1,-1.199234460E1,-3.986125263E0,1.264955823E1
1.532230146E1,-6.196996093E-1,-1.021470217E1,-5.656578296E0,1.169277751E1
1.533226746E1,1.966794308E-1,-8.675933109E0,-5.431155269E0,1.023757518E1
1.534223246E1,9.927775495E-1,-6.245223927E0,-4.159243192E0,7.568866038E0
1.535219746E1,1.418147724E0,-3.245039796E0,-3.637209041E0,5.076486566E0
1.536216346E1,1.796750552E0,-4.618318033E-1,-3.331727691E0,3.813398821E0
1.537212846E1,1.739616092E0,1.891946146E0,-3.154512618E0,4.068989337E0
1.538209346E1,6.907880837E-1,4.205649034E0,-3.407532164E0,5.456734136E0
1.539205846E1,-1.612361530E0,6.169174456E0,-4.975813290E0,8.088086366E0
1.540202446E1,-4.448323687E0,7.964490101E0,-7.600714935E0,1.187398643E1
1.541198946E1,-5.911604022E0,8.892755467E0,-8.635691986E0,1.373329305E1
1.542195446E1,-6.529919010E0,8.969207811E0,-3.984918398E0,1.178838860E1
1.543191946E1,-6.351607584E0,9.130692705E0,3.094161751E0,1.154496882E1
1.544188546E1,-1.850228163E0,7.639867306E0,2.767217612E0,8.333571265E0
1.545185046E1,-3.192679149E0,4.225494484E0,-1.550474600E0,5.518330841E0
1.546181546E1,-1.529381939E0,4.598840958E0,-3.024527845E0,5.712802811E0
1.547178046E1,5.245954068E0,6.733244825E0,-5.216244950E0,1.000329103E1
1.548174646E1,5.133053105E0,9.328528569E0,-1.154583601E0,1.070993664E1
1.549171146E1,4.960680696E0,1.087975629E1,1.498839008E0,1.205089077E1
1.550167646E1,5.196845643E0,1.242941930E1,2.845367403E0,1.376930588E1
1.551164146E1,4.473836843E0,1.358903910E1,3.125144978E0,1.464389740E1
1.552160746E1,4.156330694E0,1.372237433E1,3.284306188E0,1.470936128E1
1.553157246E1,4.699718876E0,1.356887089E1,4.426573799E0,1.502651557E1
1.554153746E1,5.868332872E0,1.353841859E1,4.342970309E0,1.538140110E1
1.555150346E1,3.110984483E0,1.194459156E1,4.471660509E0,1.312810877E1
1.556146846E1,8.370505553E-1,9.433536960E0,3.771551160E0,1.019396250E1
1.557143346E1,1.600686248E-1,8.371186169E0,2.606789310E0,8.769135097E0
1.558139846E1,-6.882007639E-1,8.215617489E0,1.427169685E0,8.367006891E0
1.559136446E1,-8.217543123E-1,8.450712980E0,2.369490222E-1,8.493878670E0
1.560132946E1,-5.712487033E-1,7.854331482E0,-9.008851933E-1,7.926439443E0
1.561129446E1,-2.695690669E-2,6.267161511E0,-2.093079840E0,6.607497507E0
1.562125946E1,6.510949181E-1,4.861271598E0,-2.616783371E0,5.559086377E0
1.563122546E1,1.734292056E0,2.968410947E0,-1.780447930E0,3.871592349E0
1.564119046E1,1.544251116E0,-2.180268257E0,-5.193742526E-1,2.721769791E0
1.565115546E1,-9.314879852E-1,-8.137012199E0,2.129810879E0,8.462548775E0
1.566112046E1,-5.044306405E0,-1.311795467E1,4.527206719E0,1.476554647E1
1.567108646E1,-7.062512648E0,-1.611404224E1,6.139831374E0,1.863434924E1
1.568105146E1,-8.688001762E0,-1.558409388E1,9.139415581E0,2.004680209E1
1.569101646E1,-6.441690373E0,-8.002531502E0,7.288171903E0,1.259576655E1
1.570098146E1,-2.351375329E0,-3.317739982E0,1.610102166E0,4.373647621E0
1.571094746E1,-1.235250619E0,-3.173357025E0,-8.568813872E-1,3.511450499E0
1.572091246E1,4.113621461E-1,-2.465375569E0,-6.644986367E-1,2.586281877E0
1.573087746E1,2.398794201E0,-1.182454939E0,7.270663658E-2,2.675387740E0
1.574084346E1,4.368619998E0,-2.663716632E-1,4.160527825E-1,4.396463859E0
1.575080846E1,5.515108421E0,-1.140092447E0,7.795157075E-1,5.685409082E0
1.576077346E1,5.277460036E0,-4.926379175E0,1.690768014E0,7.414815755E0
1.577073846E1,3.656347563E0,-9.790611802E0,2.623590699E0,1.077535081E1
1.578070446E1,2.077242072E0,-1.243375793E1,2.845203096E0,1.292317498E1
1.579066946E1,8.717081720E-1,-1.161764684E1,2.962450295E0,1.202105257E1
1.580063446E1,3.459358960E-2,-8.852848805E0,2.262491219E0,9.137450147E0
1.581059946E1,-9.935026773E-1,-5.678398935E0,8.417827070E-1,5.825792664E0
1.582056546E1,-2.542114135E0,-3.663629100E0,1.037418848E-1,4.460413079E0
1.583053046E1,-4.139066790E0,-1.780156739E0,4.405175328E-2,4.505859792E0
1.584049546E1,-6.461363915E0,-3.516749382E-1,2.509174722E-1,6.475790182E0
1.585046046E1,-8.672989036E0,9.585463411E-1,3.104041207E-1,8.731317233E0
1.586042646E1,-1.152093506E1,2.102707281E0,-2.722206330E-1,1.171441107E1
1.587039146E1,-9.080715383E0,3.891752957E0,-4.099841328E0,1.069644015E1
1.588035646E1,-5.629528491E0,3.804110211E0,-6.879491875E0,9.669035835E0
1.589032146E1,-2.767901151E0,2.375823707E0,-6.071414273E0,7.082929220E0
1.590028746E1,2.517585211E-1,1.546061121E0,-4.310253384E0,4.586062753E0
1.591025246E1,2.464443523E0,9.330121350E-1,-3.012587830E0,4.002459114E0
1.592021746E1,3.970700600E0,5.868119448E-1,-2.326473792E0,4.639320189E0
1.593018246E1,4.824458113E0,8.946052837E-1,-1.912070362E0,5.266092267E0
1.594014846E1,4.981444159E0,1.412086793E0,-1.525412849E0,5.397745768E0
1.595011346E1,4.246055049E0,1.675607353E0,-1.040578684E0,4.681820957E0
1.596007846E1,2.704250408E0,1.614546050E0,-4.156124872E-1,3.176863698E0
1.597004446E1,1.822658249E0,1.411941197E0,-6.002927005E-2,2.306353084E0
1.598000937E1,1.426942229E0,1.056588360E0,1.188375684E-1,1.779512701E0
1.598997437E1,1.044481627E0,4.183425522E-1,3.615597294E-1,1.181811236E0
1.599993938E1,4.490095172E-1,-4.280424982E-1,5.874527997E-1,8.543598297E-1
1.600990537E1,-1.146217990E-1,-1.309824253E0,7.976608602E-1,1.537868843E0
1.601987037E1,-5.666741341E-1,-2.191613025E0,8.930616188E-1,2.433484391E0
1.602983537E1,-1.102762580E0,-2.829144888E0,8.133664083E-1,3.143518891E0
1.603980038E1,-1.743204382E0,-3.111483543E0,5.040218031E-1,3.601961873E0
1.604976637E1,-1.977303947E0,-2.701431758E0,7.341763973E-3,3.347763185E0
1.605973137E1,-1.340858935E0,-1.804732586E0,-4.830671364E-1,2.299633938E0
1.606969637E1,-5.721104367E-1,-1.278793665E0,-7.315188378E-1,1.580425069E0
1.607966137E1,-8.825268365E-2,-7.967562228E-1,-8.575473851E-1,1.173880970E0
1.608962738E1,6.076061055E-2,-2.211422807E-1,-1.086636617E0,1.110574129E0
1.609959237E1,5.807147607E-2,3.338128638E-1,-1.433594606E0,1.473090906E0
1.610955737E1,2.380876578E-2,7.647450560E-1,-1.693776991E0,1.858569976E0
1.611952237E1,-9.832802095E-2,1.020147343E0,-1.630435274E0,1.925795467E0
1.612948838E1,-2.456870648E-1,9.210417151E-1,-1.187171304E0,1.522516233E0
1.613945337E1,-1.762576646E-1,7.202278644E-1,-7.541206652E-1,1.057588256E0
1.614941837E1,1.166994609E-1,6.032209861E-1,-4.317987496E-1,7.509623708E-1
1.615938337E1,4.938776880E-1,5.643294007E-1,-1.844913848E-1,7.722822762E-1
1.616934938E1,8.070187441E-1,5.822686583E-1,6.905152380E-2,9.975390502E-1
1.617931438E1,1.015390048E0,6.237996769E-1,3.402512695E-1,1.239319940E0
1.618927937E1,1.115319987E0,7.109483331E-1,5.787562358E-1,1.443726077E0
1.619924537E1,1.138617048E0,8.401343769E-1,7.100209647E-1,1.583162760E0
1.620921038E1,9.971843766E-1,9.114721620E-1,7.587031281E-1,1.549447843E0
1.621917538E1,7.406683416E-1,8.962916207E-1,7.825773096E-1,1.401554675E0
1.622914037E1,5.893332642E-1,8.216273546E-1,7.159991580E-1,1.238967312E0
1.623910637E1,4.759936865E-1,6.256321943E-1,5.133446038E-1,9.388867420E-1
1.624907138E1,2.526573844E-1,2.546479958E-1,2.824930215E-1,4.566001126E-1
1.625903638E1,-1.142984480E-3,-1.570065111E-1,3.505816002E-2,1.608770510E-1
1.626900138E1,-9.852748409E-2,-4.043548429E-1,-1.792440569E-1,4.531433946E-1
1.627896737E1,-5.244820878E-2,-5.407048953E-1,-2.879531515E-1,6.148411305E-1
1.628893237E1,-8.018126026E-2,-4.900066119E-1,-3.518211186E-1,6.085339873E-1
1.629889738E1,-1.326608247E-1,-1.091429579E-1,-3.008550328E-1,3.464459993E-1
1.630886238E1,-2.553513428E-1,2.174398237E-1,-2.007302356E-1,3.908670013E-1
1.631882837E1,-3.763241681E-1,1.500781453E-1,-1.768162930E-1,4.420490139E-1
1.632879337E1,-5.171562575E-1,-3.622736013E-1,-1.017111468E-1,6.395607197E-1
