"Time (s)","Linear Acceleration x (m/s^2)","Linear Acceleration y (m/s^2)","Linear Acceleration z (m/s^2)","Absolute acceleration (m/s^2)"
5.771833326E-3,-1.670803866E-1,-1.936252838E-1,-1.285802137E0,1.310989604E0
1.573783334E-2,-7.614925423E-1,-4.243523204E-1,-2.291055452E0,2.451301872E0
2.570283334E-2,-9.774056581E-1,-3.718946099E-1,-2.183385993E0,2.420909295E0
3.566883333E-2,-6.113404298E-1,-9.380308002E-2,-1.411511427E0,1.541071266E0
4.563383333E-2,6.064819783E-2,9.251172245E-3,-4.652664578E-1,4.692937937E-1
5.559983334E-2,7.944532970E-1,2.093507856E-2,2.841957307E-1,8.440151254E-1
6.556483335E-2,1.262036568E0,1.717143050E-1,4.132905579E-1,1.339041144E0
7.553083333E-2,2.011050421E0,9.337111697E-1,3.748831218E-1,2.248705783E0
8.549583334E-2,9.977706331E-1,1.848506597E-1,1.300888538E-1,1.023053817E0
9.546183335E-2,1.819595039E-2,-1.650724527E-1,-1.081608596E0,1.094283858E0
1.054268333E-1,6.037250161E-2,-2.488311857E-2,-1.467758133E0,1.469209973E0
1.153928333E-1,9.282652192E-1,1.363746107E-2,-8.911396390E-1,1.286853587E0
1.253578333E-1,1.241689427E0,-1.051427315E0,-2.886980867E-1,1.652464407E0
1.353238333E-1,1.145053078E0,-1.186437478E0,-6.455951732E-1,1.770755085E0
1.452888333E-1,1.536202423E-1,-7.697675219E-1,-1.071243237E0,1.328044912E0
1.552548333E-1,-2.950295980E-1,-1.745013803E-1,-1.375015445E0,1.417095858E0
1.652198333E-1,-5.723003981E-1,6.818935186E-1,-1.104829059E0,1.418856499E0
1.751858333E-1,-8.696895669E-1,1.089383931E0,-6.674801320E-1,1.545524836E0
1.851508333E-1,-1.857129047E-1,1.269970216E0,-3.485057473E-1,1.329951085E0
1.951168333E-1,1.110131899E0,1.577004879E0,-4.151850557E-1,1.972743230E0
2.050818334E-1,1.402659619E0,1.938318952E0,-4.257322633E-1,2.430181542E0
2.150478333E-1,6.592814586E-1,2.219227378E0,-5.627184927E-2,2.315769574E0
2.250128333E-1,1.068570474E0,1.382445210E0,-1.025912697E0,2.026201984E0
2.349788334E-1,1.768839014E0,7.654326886E-1,-9.547813189E-1,2.150880291E0
2.449438333E-1,1.155283805E0,-2.482148892E-1,2.351728501E0,2.631903920E0
2.549098333E-1,1.923714581E-1,-8.876453429E-1,1.869189368E0,2.078169850E0
2.648748333E-1,-1.792668611E-2,-7.801013061E-1,5.871352959E-1,9.765281714E-1
2.748408333E-1,-9.820186727E-1,-3.461811867E-1,-5.223317742E-1,1.164917409E0
2.848058333E-1,-1.252399187E0,-2.802769268E-1,-1.931818895E0,2.319263487E0
2.947718333E-1,-1.362069418E0,-3.044060469E-2,-2.242631151E0,2.624033957E0
3.047368334E-1,-1.078181981E0,7.650938424E-1,-2.590701866E0,2.908535908E0
3.147028333E-1,-6.889781512E-1,1.649331136E0,-1.769756881E0,2.515357530E0
3.246678333E-1,-6.129524706E-1,1.508213848E0,-5.780498922E-1,1.727588325E0
3.346338334E-1,-5.295115703E-1,8.882866363E-1,3.635424471E-1,1.096174604E0
3.445988333E-1,-7.178451240E-1,7.473384798E-1,1.159039764E0,1.554731360E0
3.545648333E-1,-1.340480401E-1,5.203060064E-1,1.806851617E0,1.885046414E0
3.645298333E-1,3.926864317E-1,5.141279845E-1,2.208038439E0,2.300861570E0
3.744958333E-1,-3.598547544E-1,6.653371274E-1,1.907726612E0,2.052215818E0
3.844608333E-1,-6.248646741E-1,7.616518790E-1,1.053088802E0,1.442069856E0
3.944258333E-1,-2.790984935E-1,1.116248963E0,-3.388683665E-1,1.199474671E0
4.043918333E-1,-6.239373788E-1,1.135977907E0,-1.535460119E0,2.009323627E0
4.143568334E-1,-1.323004608E0,6.844665858E-1,-1.819563464E0,2.351520125E0
4.243228333E-1,-1.484761397E0,6.444194444E-1,-1.257792220E0,2.049837578E0
4.342878333E-1,-1.382642115E0,7.569438471E-1,-8.609276605E-1,1.796067828E0
4.442538333E-1,-1.402576150E0,6.780939978E-1,-9.205604893E-1,1.809547717E0
4.542188333E-1,-1.582388264E0,3.129958990E-1,-1.187119848E0,2.002791199E0
4.641848333E-1,-1.496473809E0,6.710747078E-2,-1.294294049E0,1.979680367E0
4.741498333E-1,-1.423158203E0,-2.290741749E-1,-1.624446555E0,2.171792085E0
4.841158333E-1,-6.925977239E-1,-5.005450487E-2,-1.508364707E0,1.660530382E0
4.940808333E-1,9.610699993E-1,7.014578636E-1,-1.157894295E0,1.660246330E0
5.040468333E-1,1.496001354E0,8.330648008E-1,-1.323154151E0,2.163967172E0
5.140118334E-1,1.070634249E0,2.956890178E-1,-1.895900034E0,2.197299849E0
5.239778333E-1,1.482842195E-1,6.654204503E-2,-2.297571589E0,2.303313105E0
5.339428333E-1,-3.506399810E-1,-9.066911861E-2,-2.525436414E0,2.551273871E0
5.439088334E-1,-6.266168654E-3,-4.237490340E-1,-2.919317139E0,2.949917807E0
5.538738333E-1,2.046086937E-1,-7.183044228E-1,-3.829629799E0,3.901780408E0
5.638398333E-1,8.335205913E-2,-9.716590145E-1,-5.083374576E0,5.176076302E0
5.738048333E-1,-4.805447938E-1,-1.096153106E0,-5.861429064E0,5.982376251E0
5.837708333E-1,-2.860009123E-1,-1.094572896E0,-5.399472131E0,5.516718738E0
5.937358333E-1,5.061804490E-1,-1.158822687E0,-3.616953117E0,3.831636532E0
6.037018333E-1,1.225648760E0,-1.572623268E0,-1.929986377E0,2.774924547E0
6.136668333E-1,8.968139233E-1,-1.837575519E0,-2.474115402E0,3.209704975E0
6.236328333E-1,-1.063429749E0,-1.217798727E0,-3.703238139E0,4.040778302E0
6.335978333E-1,-1.937146731E0,-5.163927573E-1,-4.442118037E0,4.873562515E0
6.435638333E-1,-2.263743693E-1,-2.425696948E-1,-4.760612365E0,4.772160465E0
6.535288333E-1,1.815427290E0,6.993734774E-1,-4.261177118E0,4.684285424E0
6.634948333E-1,2.341593522E0,1.595942256E0,-3.204920295E0,4.278037635E0
6.734598333E-1,-6.226875365E-2,1.959886407E0,-1.714404214E0,2.604652364E0
6.834258333E-1,-4.138707186E0,1.794704611E0,6.131214917E-1,4.552557498E0
6.933908333E-1,-6.493383853E0,4.559828335E-1,4.668667822E0,8.010518925E0
7.033568333E-1,-5.864501191E0,-6.798010924E-1,1.079983070E1,1.230816180E1
7.133218333E-1,-2.725566140E0,-4.346657856E-1,1.807980831E1,1.828926225E1
7.232878333E-1,2.121941112E0,-8.495336299E-1,2.546759923E1,2.556996191E1
7.332528333E-1,5.029203631E0,-3.406993051E0,3.351875910E1,3.406475748E1
7.432188333E-1,7.633680367E0,-7.081754665E0,4.370154716E1,4.492493238E1
7.531838334E-1,8.890885527E0,-9.275470349E0,5.049695666E1,5.210590013E1
7.631498333E-1,7.259704149E0,-8.294991102E0,4.577301453E1,4.708162105E1
7.731148333E-1,6.523830889E0,-5.391256208E0,3.440384512E1,3.542951555E1
7.830808334E-1,6.925726393E0,-1.759070802E0,2.365165519E1,2.470750513E1
7.930458333E-1,7.603879448E0,1.771780895E0,1.465154719E1,1.660198859E1
8.030118333E-1,6.454674116E0,3.169347004E0,7.674775184E0,1.051711712E1
8.129768333E-1,3.534648586E0,2.022036901E0,3.235081987E0,5.200781607E0
8.229428333E-1,-5.205888654E-1,-7.091032442E-1,4.896902776E-1,1.006795285E0
8.329078333E-1,-4.583701055E0,-3.398289178E0,-1.239816710E0,5.839163482E0
8.428738333E-1,-7.712130121E0,-5.051651677E0,-3.011763958E0,9.698807030E0
8.528388334E-1,-8.904406629E0,-5.561782651E0,-5.563460802E0,1.188166570E1
8.628048333E-1,-6.842517591E0,-4.828930063E0,-7.280938897E0,1.109732778E1
8.727695000E-1,-3.090749316E0,-2.938514425E0,-7.708939880E0,8.809957573E0
8.827355000E-1,6.490136017E-1,-1.587910521E0,-8.808494750E0,8.973976724E0
8.927005000E-1,3.317502293E0,1.229064265E-1,-1.133769034E1,1.181372717E1
9.026665000E-1,4.405020669E0,1.846352775E0,-1.411143871E1,1.489784978E1
9.126315000E-1,4.910750737E0,2.751005914E0,-1.609550423E1,1.705135662E1
9.225975000E-1,5.280118765E0,3.568227684E0,-1.638750833E1,1.758301260E1
9.325625000E-1,5.621320755E0,4.223922460E0,-1.547241089E1,1.699518364E1
9.425285000E-1,5.514947623E0,4.306764935E0,-1.454863151E1,1.614390134E1
9.524935000E-1,4.972901961E0,3.642429435E0,-1.348335887E1,1.482558641E1
9.624595000E-1,3.718739400E0,2.524426307E0,-1.173509869E1,1.256639535E1
9.724245000E-1,2.278259405E0,1.020160207E0,-9.935806353E0,1.024458104E1
9.823905000E-1,1.173765100E0,-4.001772997E-1,-8.569506767E0,8.658770849E0
9.923555000E-1,7.405926932E-1,-1.305832067E0,-7.899629862E0,8.041009071E0
1.002321500E0,1.355035217E0,-1.549656282E0,-7.910857685E0,8.174302683E0
1.012286500E0,2.411104491E0,-1.380164211E0,-7.689035958E0,8.175545980E0
1.022252500E0,2.894294565E0,-1.484123320E0,-6.851526396E0,7.584390352E0
1.032217500E0,1.988905700E0,-2.704592178E0,-5.680882832E0,6.598711578E0
1.042183500E0,1.288567139E0,-3.734472211E0,-4.766577694E0,6.190876423E0
1.052148500E0,1.036845383E0,-3.889120540E0,-4.913905894E0,6.351911371E0
1.062114500E0,7.487391803E-1,-3.599817559E0,-6.061294497E0,7.089329150E0
1.072079500E0,4.017067120E-1,-3.337011528E0,-7.600050107E0,8.310100832E0
1.082045500E0,2.563526785E-1,-3.261163493E0,-9.080309002E0,9.651575809E0
1.092010500E0,8.520734411E-2,-3.131627786E0,-1.041534586E1,1.087629451E1
1.101976500E0,-1.495257296E-2,-2.851164333E0,-1.130314967E1,1.165721039E1
1.111941500E0,-9.121672863E-2,-2.734733990E0,-1.160113781E1,1.191945842E1
1.121907500E0,5.878137922E-1,-2.468873081E0,-1.184050995E1,1.210943993E1
1.131872500E0,8.997729068E-1,-2.160820710E0,-1.175193516E1,1.198276752E1
1.141838500E0,5.354429128E-1,-2.172154953E0,-1.164564214E1,1.185858074E1
1.151803500E0,1.745575319E-1,-2.208141057E0,-1.160274696E1,1.181228574E1
1.161769500E0,-2.677624965E-1,-2.323415698E0,-1.135647627E1,1.159480533E1
1.171734500E0,-3.927220266E-1,-2.409381170E0,-1.093565450E1,1.120481538E1
1.181700500E0,1.431713867E-1,-2.265727653E0,-1.019365921E1,1.044340499E1
1.191665500E0,6.932974894E-1,-1.717635093E0,-9.099789585E0,9.286393391E0
1.201630500E0,1.570437871E-2,-1.996912146E0,-8.329355189E0,8.565399150E0
1.211596500E0,-4.663284583E-1,-2.917156008E0,-8.758517429E0,9.243315907E0
1.221561500E0,-1.558366660E-1,-2.249351648E0,-8.487642825E0,8.782024176E0
1.231527500E0,-1.051038256E0,-2.135891984E0,-7.799389874E0,8.154581436E0
1.241492500E0,-2.126036502E0,-3.322944004E0,-7.189604804E0,8.200756386E0
1.251458500E0,-2.070679449E0,-3.653194159E0,-5.609463186E0,7.007111972E0
1.261423500E0,-1.725784211E0,-2.985992062E0,-1.826073754E0,3.902438353E0
1.271389500E0,-1.786549646E0,-1.494532241E0,1.820354592E0,2.956193007E0
1.281354500E0,-3.114214193E0,9.864986631E-1,2.792919633E0,4.297895965E0
1.291320500E0,-4.893618687E0,4.738349676E0,7.043924350E-1,6.848038421E0
1.301285500E0,-3.610410082E0,7.297023418E0,-1.958695621E0,8.373655132E0
1.311251500E0,2.104332222E0,6.134357210E0,1.916833066E0,6.762603159E0
1.321216500E0,6.710705563E0,6.419659234E0,1.043456215E1,1.396873943E1
1.331182500E0,8.264030680E0,5.784821184E0,1.745528358E1,2.016048819E1
1.341147500E0,7.056444408E0,2.579203316E0,2.302329469E1,2.421812948E1
1.351113500E0,2.905735812E0,-1.570804199E0,2.567028244E1,2.588192664E1
1.361078500E0,-1.473267672E0,-2.968000472E0,2.467019104E1,2.489172293E1
1.371044500E0,-2.765417254E0,-1.472600212E0,2.126383943E1,2.149341646E1
1.381009500E0,-1.593017771E0,9.405421793E-2,1.711213038E1,1.718637710E1
1.390975500E0,-2.486938492E-1,9.505662073E-1,1.301462267E1,1.305165997E1
1.400940500E0,6.660102151E-1,1.628396350E0,9.236234363E0,9.402301286E0
1.410906500E0,1.244693288E0,2.609133459E0,6.108098534E0,6.757640601E0
1.420871500E0,1.401097243E0,3.337374055E0,3.451631280E0,5.001489534E0
1.430837500E0,1.097354124E0,3.314959339E0,1.339911686E0,3.740120963E0
1.440802500E0,9.806423112E-1,2.857486927E0,2.916006446E-2,3.021215184E0
1.450768500E0,1.223568321E0,2.605900826E0,-2.994400066E-1,2.894391623E0
1.460733500E0,1.883612110E0,2.623274950E0,1.064468068E-1,3.231237683E0
1.470699500E0,2.475561126E0,2.394913697E0,7.559373951E-1,3.526394171E0
1.480664500E0,2.477375810E0,1.900625023E0,1.378330817E0,3.413145502E0
1.490630500E0,1.953327585E0,1.341377437E0,1.958707901E0,3.074299713E0
1.500595500E0,1.029817541E0,6.178584673E-1,2.544223518E0,2.813422571E0
1.510561500E0,8.335549437E-2,-2.620802455E-1,2.670629210E0,2.684752237E0
1.520526500E0,-7.927204015E-1,-9.073248781E-1,2.142333276E0,2.457892580E0
1.530492500E0,-1.228599704E0,-1.151551381E0,1.137689241E0,2.032206836E0
1.540457500E0,-1.293503213E0,-1.064968590E0,-8.597453535E-2,1.677706851E0
1.550423500E0,-1.161332969E0,-8.154450935E-1,-1.337563444E0,1.950056649E0
1.560388500E0,-8.566068605E-1,-6.676119867E-1,-2.585577950E0,2.804406250E0
1.570354500E0,-6.728660023E-1,-5.832563992E-1,-3.571824306E0,3.681150032E0
1.580319500E0,-4.274600425E-1,-4.392393315E-1,-3.872614435E0,3.920815711E0
1.590285500E0,-2.040027760E-1,-4.267616656E-1,-3.578816407E0,3.609940377E0
1.600250500E0,-3.304458178E-1,-4.828369023E-1,-3.194332741E0,3.247474030E0
1.610216500E0,-7.621488192E-1,-5.799514067E-1,-3.093995690E0,3.238830621E0
1.620181500E0,-1.349968312E0,-7.405045465E-1,-2.880005139E0,3.265760406E0
1.630147500E0,-2.050068014E0,-8.670599279E-1,-2.827790673E0,3.598745875E0
1.640112500E0,-2.552395879E0,-8.886057481E-1,-2.995155526E0,4.034265921E0
1.650077500E0,-2.741884257E0,-6.669796103E-1,-2.966894764E0,4.094539732E0
1.660043500E0,-2.620126517E0,-3.143697023E-1,-2.539923475E0,3.662663311E0
1.670008500E0,-1.977682115E0,-1.800299227E-2,-1.750621283E0,2.641254538E0
1.679974500E0,-1.345084426E0,1.610937148E-1,-1.187170134E0,1.801270725E0
1.689939500E0,-7.729051378E-1,3.660795540E-1,-7.564940500E-1,1.141788001E0
1.699905500E0,4.722430632E-3,6.367424887E-1,-3.740358603E-1,7.384890812E-1
1.709870500E0,1.010503091E0,7.535110930E-1,-3.711929440E-2,1.261060390E0
1.719836500E0,1.756734547E0,4.152838737E-1,9.995359075E-1,2.063407133E0
1.729801500E0,2.150794197E0,-2.513425648E-1,2.674450951E0,3.441188262E0
1.739767500E0,2.311826809E0,-8.299824411E-1,4.429069975E0,5.064590298E0
1.749732500E0,2.035537975E0,-1.353556164E0,5.568937304E0,6.081824713E0
1.759698500E0,1.328809139E0,-1.841815920E0,5.329624801E0,5.793351373E0
1.769663500E0,4.252326918E-1,-1.849926593E0,3.839847223E0,4.283395609E0
1.779629500E0,-8.858487859E-2,-1.445752137E0,1.837003954E0,2.339365309E0
1.789594500E0,-1.889259497E-1,-8.699162927E-1,-3.520140767E-2,8.908908519E-1
1.799560500E0,-1.237330035E-1,-3.541646826E-1,-1.009328824E0,1.076794852E0
1.809525500E0,-2.513187009E-1,-3.103672832E-2,-1.560626535E0,1.581037492E0
1.819491500E0,-5.375197342E-1,1.504924205E-1,-2.007611089E0,2.083765274E0
1.829456500E0,-8.036294787E-1,2.738829964E-1,-2.345464379E0,2.494400807E0
1.839422500E0,-9.147351276E-1,3.470223087E-1,-2.314879348E0,2.513131758E0
1.849387500E0,-7.585994862E-1,4.986093280E-1,-1.952539673E0,2.153252335E0
1.859353500E0,-4.009638964E-1,6.958534536E-1,-1.593541682E0,1.784477281E0
1.869319708E0,1.010185807E-1,8.287749910E-1,-1.393094451E0,1.624125885E0
1.879285708E0,6.809179106E-1,9.617339507E-1,-1.206518571E0,1.686495910E0
1.889250708E0,1.228171980E0,1.071062558E0,-9.334775734E-1,1.878020712E0
1.899216708E0,1.661551232E0,1.120432354E0,-4.835653192E-1,2.061542280E0
1.909181708E0,1.773273396E0,9.870857236E-1,1.030758870E-1,2.032107626E0
1.919147708E0,1.604121341E0,6.995725751E-1,6.049225259E-1,1.851631261E0
1.929112708E0,1.262377022E0,3.571809688E-1,8.259110248E-1,1.550259014E0
1.939078708E0,7.515035976E-1,7.440231085E-2,8.821460366E-1,1.161238559E0
1.949043708E0,3.741520006E-1,-1.001686513E-1,7.116301185E-1,8.102104071E-1
1.959008708E0,9.047944956E-2,-1.879213250E-1,4.246125215E-1,4.730716104E-1
1.968974708E0,-1.499389084E-1,-2.311264014E-1,1.225944775E-1,3.015468382E-1
1.978940708E0,-2.709602657E-1,-2.468922490E-1,-2.050560057E-2,3.671453770E-1
1.988905708E0,-4.518579152E-1,-2.999007672E-1,1.672373843E-1,5.675247910E-1
1.998870708E0,-5.702407530E-1,-3.288558868E-1,4.614944190E-1,8.039264950E-1
2.008836708E0,-5.187411818E-1,-3.241655427E-1,5.671033198E-1,8.341354135E-1
2.018801708E0,-4.495374842E-1,-2.412026158E-1,4.584871960E-1,6.859104610E-1
2.028767708E0,-3.868037673E-1,-1.317839617E-1,3.200572890E-1,5.190576415E-1
2.038732708E0,-2.965382893E-1,-3.549756914E-2,1.626748019E-1,3.400854681E-1
2.048698708E0,-2.672635098E-1,1.212262291E-1,-1.056433994E-1,3.119072139E-1
2.058663708E0,-1.917012210E-1,3.197225359E-1,-4.228525096E-1,5.637163320E-1
2.068629708E0,-3.519157704E-2,4.823698559E-1,-7.691573650E-1,9.085825098E-1
2.078594708E0,5.177281883E-2,5.792117339E-1,-9.937880945E-1,1.151425827E0
2.088560708E0,9.440625686E-2,6.452174431E-1,-1.144074401E0,1.316861543E0
2.098525708E0,6.083863433E-2,6.637186182E-1,-1.008780940E0,1.209075154E0
2.108491708E0,-6.409542382E-2,5.079327133E-1,-6.531006593E-1,8.298459711E-1
2.118456708E0,-1.510185603E-1,2.888927990E-1,-3.605884337E-1,4.860963623E-1
2.128422708E0,-1.198259306E-1,1.657375735E-1,-3.192696691E-2,2.069940292E-1
2.138387708E0,1.956699090E-1,1.340363091E-1,4.459671378E-1,5.051129908E-1
2.148353708E0,3.273349894E-1,9.740087181E-2,6.239294851E-1,7.112827339E-1
2.158318708E0,4.501712859E-2,-4.739460647E-3,3.837866771E-1,3.864469147E-1
2.168284708E0,-2.462402114E-1,-1.495118424E-1,1.244486296E-1,3.138080530E-1
2.178249708E0,-2.778293554E-1,-1.796346509E-1,-2.973952353E-2,3.321779610E-1
2.188215708E0,-2.393637030E-1,-1.401004565E-1,-2.092601538E-1,3.474376666E-1
2.198180708E0,-1.749198582E-1,-9.619400650E-2,-4.079754388E-1,4.541962157E-1
2.208146708E0,-1.035747641E-1,-3.129429817E-3,-5.108022344E-1,5.212067227E-1
2.218111708E0,6.775004324E-2,3.594575822E-2,-5.821932292E-1,5.872232301E-1
2.228077708E0,3.926867241E-1,1.119563457E-1,-5.193806845E-1,6.606764579E-1
2.238042708E0,7.252341042E-1,2.904686236E-1,-2.890916044E-1,8.330128949E-1
2.248007708E0,6.255956492E-1,4.042177257E-1,-1.698253620E-1,7.639388324E-1
2.257973708E0,2.580181117E-1,2.173705342E-1,-3.556604004E-1,4.902220063E-1
2.267938708E0,-1.000353714E-1,-3.741340935E-3,-4.854522157E-1,4.956661446E-1
2.277904708E0,-2.115641029E-1,5.652386427E-2,-4.790366507E-1,5.267166502E-1
2.287869708E0,-1.936010544E-1,1.014983082E-1,-2.903452474E-1,3.634331266E-1
2.297835708E0,-1.368478697E-1,8.286440134E-2,-6.167701542E-2,1.714581660E-1
2.307800708E0,1.513891641E-2,3.708157986E-2,-1.446776569E-2,4.258575583E-2
2.317766708E0,-2.884325501E-2,8.022058278E-2,6.466377318E-2,1.069984992E-1
2.327731708E0,-1.433006741E-1,6.285493702E-2,1.459511805E-1,2.139803108E-1
2.337697708E0,-2.291936408E-1,-5.910950303E-3,1.334334612E-1,2.652718472E-1
2.347662708E0,-2.529974365E-1,9.495585859E-3,5.171745300E-2,2.584038776E-1
2.357628708E0,-1.128524315E-1,7.825007111E-2,1.064392054E-1,1.737470845E-1
2.367593708E0,-1.199227385E-2,1.273318917E-1,8.519685566E-2,1.536741015E-1
2.377559708E0,1.537828680E-2,1.467151192E-1,2.547456443E-2,1.497022757E-1
2.387524708E0,1.134296979E-1,1.820273316E-1,-8.260653913E-2,2.298349106E-1
2.397490708E0,1.373430558E-1,2.276136866E-1,-1.413166773E-1,3.010672825E-1
2.407455708E0,4.571791738E-3,1.891372535E-1,-1.393648767E-1,2.349816393E-1
2.417421708E0,-1.152573913E-1,1.116826960E-1,-1.162888402E-1,1.981927981E-1
2.427386708E0,-1.680164162E-1,4.056622803E-2,-1.779366195E-1,2.480656678E-1
2.437352708E0,-1.891623965E-1,1.821349204E-2,-2.453415674E-1,3.103330924E-1
2.447317708E0,-2.543266182E-1,8.750358224E-4,-2.001250488E-1,3.236245194E-1
2.457283708E0,-3.211235288E-1,-5.307546884E-2,-1.649435216E-1,3.648886014E-1
2.467248708E0,-3.676826412E-1,-1.350236115E-1,-1.615357643E-1,4.236929354E-1
2.477214708E0,-2.172120382E-1,-1.288922212E-1,-1.118502188E-1,2.762331364E-1
2.487179708E0,-3.218420785E-2,-5.577659011E-3,-3.449740291E-2,4.750793957E-2
2.497144708E0,1.407806338E-1,4.859240860E-2,3.041312277E-2,1.520044969E-1
2.507110708E0,1.973494851E-1,1.038532743E-1,1.972090423E-2,2.238777254E-1
2.517075708E0,1.705736594E-1,1.491379130E-1,-2.262276042E-1,3.201818534E-1
2.527041708E0,1.167811757E-1,1.963673356E-1,-4.964578450E-1,5.465055950E-1
2.537006708E0,8.880276047E-2,2.684468400E-1,-6.371395147E-1,6.970626926E-1
2.546972708E0,4.464122571E-2,4.085487583E-1,-6.746061337E-1,7.899356699E-1
2.556937708E0,1.162638068E-1,6.322468570E-1,-7.457199705E-1,9.845565678E-1
2.566903708E0,4.416350819E-1,1.012434281E0,-8.371616524E-1,1.385966937E0
2.576868708E0,9.395701528E-1,1.453089223E0,-8.571983063E-1,1.931074649E0
2.586834708E0,1.092523447E0,1.891266992E0,-6.880260783E-1,2.289951572E0
2.596799708E0,2.727893113E-1,2.006855336E0,-6.568849772E-1,2.129173601E0
2.606765708E0,-9.707854405E-1,1.588084183E0,-9.172036028E-1,2.075017637E0
2.616730708E0,-2.200934510E0,1.069123036E0,-9.312807745E-1,2.618094854E0
2.626696708E0,-2.784495257E0,8.068140185E-1,-3.460943556E-1,2.919613673E0
2.636661708E0,-2.728238318E0,6.857807475E-1,5.321738076E-1,2.863003408E0
2.646627708E0,-2.460576467E0,5.588645929E-1,1.275665404E0,2.827381899E0
2.656592708E0,-2.177835816E0,3.827075735E-1,1.545928974E0,2.698023410E0
2.666558708E0,-1.887592164E0,2.333883968E-1,1.263893790E0,2.283615955E0
2.676523708E0,-1.528304297E0,1.393306705E-1,1.092737601E0,1.883932728E0
2.686489708E0,-1.235384959E0,4.776005745E-2,9.786022907E-1,1.576743309E0
2.696454708E0,-1.232429922E0,-7.639650375E-2,6.593168342E-1,1.399792351E0
2.706420708E0,-1.047895012E0,-1.621956226E-1,-2.574529052E-3,1.060376351E0
2.716385708E0,-7.036257919E-1,-7.705256134E-2,-7.310843897E-1,1.017600480E0
2.726350708E0,-4.843083176E-1,-2.386336416E-2,-1.298351431E0,1.385943883E0
2.736316708E0,-2.788929274E-1,-7.356118888E-2,-1.824220186E0,1.846881643E0
2.746281708E0,3.268782671E-2,-8.389994323E-2,-2.251378586E0,2.253178473E0
2.756247708E0,3.253832254E-1,-1.044356570E-1,-2.523110976E0,2.546148081E0
2.766212708E0,3.941854020E-1,-2.216316926E-1,-2.768321566E0,2.805014622E0
2.776178708E0,4.553366431E-1,-4.049550596E-1,-3.102280025E0,3.161559965E0
2.786143708E0,4.648268203E-1,-5.152162975E-1,-3.266615437E0,3.339504187E0
2.796109708E0,4.613601888E-1,-7.393000200E-1,-3.311379381E0,3.424127794E0
2.806074708E0,3.217191408E-1,-9.645052385E-1,-3.353999736E0,3.504723639E0
2.816040708E0,-2.711468101E-2,-1.253784831E0,-3.303954586E0,3.533953525E0
2.826005708E0,-5.012110466E-1,-1.319436199E0,-3.563211358E0,3.832570883E0
2.835971708E0,-8.884374214E-1,-9.350086668E-1,-4.191365456E0,4.385328567E0
2.845936708E0,-1.266849703E0,-2.748355079E-1,-4.652665163E0,4.829879485E0
2.855902708E0,-1.628200614E0,4.967142454E-1,-4.855923150E0,5.145653692E0
2.865867708E0,-1.820184584E0,1.132585791E0,-4.836864735E0,5.290659974E0
2.875832708E0,-2.023473269E0,1.312227459E0,-3.558592057E0,4.298832679E0
2.885797708E0,-2.617389727E0,1.164197593E0,-9.777579528E-1,3.026895379E0
2.895763708E0,-3.538769996E0,9.785555130E-1,1.718286765E0,4.053760401E0
2.905728708E0,-4.773907472E0,5.860485908E-1,4.874386318E0,6.847867367E0
2.915694708E0,-5.874221603E0,6.054025823E-1,8.077234359E0,1.000573369E1
2.925659708E0,-6.384469521E0,1.150617435E0,9.989785509E0,1.191138892E1
2.935625708E0,-7.145403362E0,2.551282861E0,1.104526173E1,1.340013582E1
2.945590708E0,-7.593708217E0,4.657271892E0,1.218029984E1,1.509020511E1
2.955555708E0,-8.362038785E0,6.019115607E0,1.541640626E1,1.854235765E1
2.965521708E0,-9.476223974E0,5.879354289E0,2.111459744E1,2.387869034E1
2.975486708E0,-1.042234498E1,4.219860400E0,2.779710422E1,2.998518800E1
2.985452708E0,-1.054504997E1,5.537704986E-1,3.402947129E1,3.563017902E1
2.995417708E0,-1.054300695E1,-3.449751400E0,3.842872923E1,3.999778757E1
3.005383708E0,-8.406820856E0,-7.252222636E0,3.875357715E1,4.031264208E1
3.015348708E0,-4.625239675E0,-9.071584371E0,3.396028002E1,3.545401393E1
3.025314708E0,-8.979682367E-1,-7.350014395E0,2.517170205E1,2.623820959E1
3.035279708E0,1.557313503E0,-4.167358543E0,1.342882189E1,1.414656707E1
3.045245708E0,4.513043301E-1,-1.595955412E0,1.548884742E0,2.269315584E0
3.055210708E0,-4.548245001E-1,-7.215294546E-1,-6.550819298E0,6.606111077E0
3.065176708E0,1.746024202E0,-1.024425750E0,-8.725827985E0,8.957573480E0
3.075141708E0,3.914051898E0,-1.916341900E0,-6.758352769E0,8.041610578E0
3.085107708E0,4.682992916E0,-4.159946612E0,-5.358993026E0,8.243444955E0
3.095072708E0,5.990589380E0,-6.900734224E0,-5.422444671E0,1.062592114E1
3.105038708E0,7.608065470E0,-8.750526624E0,-5.117457411E0,1.267449197E1
3.115003708E0,9.533654741E0,-9.606442636E0,-4.717770985E0,1.433288791E1
3.124969708E0,1.049758812E1,-9.410078516E0,-5.406251392E0,1.509889030E1
3.134934708E0,1.040032905E1,-8.277388059E0,-7.432564216E0,1.522908428E1
3.144900708E0,1.036759399E1,-6.680521066E0,-9.773094129E0,1.573625546E1
3.154865708E0,1.044195771E1,-4.798208792E0,-1.174493488E1,1.643170057E1
3.164831708E0,9.975830544E0,-2.829566472E0,-1.356711438E1,1.707601342E1
3.174796708E0,9.140817744E0,-1.305673315E0,-1.499066113E1,1.760622768E1
3.184761708E0,8.252107038E0,-5.777493453E-1,-1.544562948E1,1.752137366E1
3.194727708E0,7.151920668E0,-4.760878998E-1,-1.433129752E1,1.602381720E1
3.204692708E0,5.892121684E0,-9.578692335E-1,-1.206383734E1,1.345996964E1
3.214658708E0,4.305055209E0,-1.571435698E0,-9.728991505E0,1.075435662E1
3.224623708E0,2.635031654E0,-1.902410616E0,-7.859194027E0,8.504674521E0
3.234589708E0,1.637077857E0,-2.436727428E0,-6.592433347E0,7.216497897E0
3.244554708E0,9.617585090E-1,-2.742360513E0,-5.734729841E0,6.429047127E0
3.254520708E0,7.789556904E-1,-2.855764045E0,-5.170328520E0,5.957722489E0
3.264485708E0,7.941896606E-1,-2.858902830E0,-4.867808200E0,5.700843734E0
3.274451708E0,6.697291904E-1,-2.938302464E0,-5.131010672E0,5.950582247E0
3.284416708E0,3.961585815E-1,-3.062137428E0,-5.846528020E0,6.611771105E0
3.294382708E0,1.040914021E-2,-3.249666990E0,-6.779363569E0,7.517992704E0
3.304347708E0,-3.705281522E-1,-3.541118823E0,-7.472983094E0,8.277819154E0
3.314313708E0,-8.371661840E-1,-3.966605503E0,-7.555397844E0,8.574312977E0
3.324278708E0,-1.301890459E0,-4.364733354E0,-7.086261114E0,8.423830043E0
3.334244708E0,-1.372759151E0,-4.587680962E0,-6.419889615E0,8.009136468E0
3.344209708E0,-1.141373206E0,-4.697476177E0,-6.202809395E0,7.864086699E0
3.354175708E0,-7.190533780E-1,-4.548099405E0,-6.090387903E0,7.635120874E0
3.364140708E0,-2.656202229E-1,-4.164031477E0,-6.086286666E0,7.379200338E0
3.374106708E0,1.912036229E-1,-3.709869174E0,-6.340506645E0,7.348585757E0
3.384071708E0,3.582555409E-1,-3.358852340E0,-6.836356965E0,7.625353279E0
3.394037708E0,3.613269005E-1,-3.057563444E0,-7.607785973E0,8.207171178E0
3.404002708E0,2.786713544E-2,-2.829108635E0,-8.233742103E0,8.706270227E0
3.413968708E0,-5.456498124E-1,-2.977339937E0,-8.346573485E0,8.878489497E0
3.423933708E0,-1.083403545E0,-3.395358554E0,-7.461953491E0,8.269399788E0
3.433898708E0,-1.467029277E0,-3.825839633E0,-6.144197490E0,7.385146349E0
3.443864708E0,-1.039038454E0,-3.928435756E0,-4.956029820E0,6.408934387E0
3.453829708E0,-2.345083396E-1,-3.735865018E0,-4.157356880E0,5.594220037E0
3.463795708E0,5.054897466E-1,-3.402819893E0,-3.955913869E0,5.242514440E0
3.473760708E0,1.440614334E0,-2.647248534E0,-3.908140948E0,4.935266977E0
3.483726708E0,1.410805960E0,-2.224110096E0,-3.648906396E0,4.500173003E0
3.493691708E0,3.996208275E-1,-2.175508916E0,-2.415157342E0,3.274984097E0
3.503657708E0,-1.419337048E0,-1.538024123E0,-4.536708444E-1,2.141460505E0
3.513622708E0,-3.487359230E0,-8.449577451E-2,7.257166457E-1,3.563071510E0
3.523588708E0,-5.477607889E0,1.507326241E0,1.419972932E0,5.855983582E0
3.533553708E0,-5.375731266E0,3.197227698E0,2.405045167E0,6.701118850E0
3.543519708E0,-7.531842336E-1,4.028343914E0,4.592173378E0,6.154908408E0
3.553484708E0,3.722378415E0,3.166347090E0,9.889016933E0,1.103061698E1
3.563450708E0,4.362880663E0,1.637875856E0,1.738660686E1,1.800031842E1
3.573415708E0,1.924002629E0,-2.175456583E-2,2.280711611E1,2.288813676E1
3.583381708E0,-1.776429724E0,-1.735748013E0,2.324242026E1,2.337474328E1
3.593346708E0,-4.909864299E0,-1.430197374E0,2.087523582E1,2.149250340E1
3.603312708E0,-5.444303318E0,1.064980576E0,1.549583250E1,1.645890176E1
3.613277708E0,-3.178934976E0,3.176966219E0,8.910192448E0,9.979492543E0
3.623243708E0,1.256433766E0,4.042723095E0,5.439527312E0,6.892800099E0
3.633208708E0,5.053367835E0,4.596363785E0,6.758401301E0,9.609322279E0
3.643174708E0,6.381177539E0,4.850014246E0,8.698220356E0,1.182797964E1
3.653139708E0,5.368920429E0,4.355222857E0,7.374197309E0,1.010801952E1
3.663105708E0,3.652432267E0,3.914112124E0,3.924181615E0,6.637750864E0
3.673070708E0,2.521743312E0,3.808458200E0,1.196971237E0,4.721894041E0
3.683035708E0,2.134753823E0,3.805011851E0,6.645360589E-2,4.363451060E0
3.693001708E0,1.981657784E0,3.153458950E0,-2.794150472E-2,3.724520324E0
3.702966708E0,1.561869069E0,1.791204176E0,-4.148365617E-2,2.376882050E0
3.712932708E0,7.893334749E-1,3.888120666E-1,-4.866228282E-2,8.812435393E-1
3.722897708E0,1.003656294E-1,-7.219253111E-1,-2.789747518E-1,7.804334222E-1
3.732863708E0,-1.342849620E-2,-1.260687761E0,-5.782258934E-1,1.387032494E0
3.742828708E0,1.567036984E-1,-1.608871619E0,-5.267756581E-3,1.616493639E0
3.752794708E0,2.172277160E-1,-1.926786781E0,9.007138699E-1,2.137985186E0
3.762759708E0,3.266604035E-1,-2.115957364E0,1.022595572E0,2.372695574E0
3.772725708E0,7.421805046E-1,-2.091628269E0,5.801051885E-1,2.293962237E0
3.782690708E0,1.402190380E0,-1.817295329E0,-1.123291057E-1,2.298111834E0
3.792656708E0,1.826626023E0,-1.406405053E0,-1.291689699E0,2.642536675E0
3.802621708E0,1.999741029E0,-1.099130070E0,-2.967235656E0,3.743198971E0
3.812587708E0,2.241452352E0,-7.271576920E-1,-4.279768340E0,4.885620125E0
3.822552708E0,2.094588422E0,-3.616514575E-1,-4.752430941E0,5.206120656E0
3.832518708E0,1.505937820E0,-3.929489717E-1,-4.860223192E0,5.103334899E0
3.842483708E0,7.107762788E-1,-5.753616348E-1,-5.072125703E0,5.153901733E0
3.852449708E0,1.731959163E-1,-6.185702196E-1,-5.008475252E0,5.049500004E0
3.862414708E0,-2.524797752E-1,-5.999909842E-1,-4.249903686E0,4.299467009E0
3.872380958E0,-6.462688456E-1,-6.816458890E-1,-3.138877164E0,3.276408764E0
3.882345958E0,-6.661073519E-1,-4.594955483E-1,-2.257758483E0,2.398397075E0
3.892311958E0,-2.110388037E-1,1.315068036E-2,-1.719981873E0,1.732930455E0
3.902276958E0,5.534402040E-1,5.619291186E-1,-1.411022599E0,1.616491624E0
3.912241958E0,1.208134814E0,1.142273166E0,-9.924362183E-1,1.936312827E0
3.922207958E0,1.356630922E0,1.486158736E0,-8.556020164E-1,2.186588680E0
3.932172958E0,1.345108984E0,1.510663832E0,-7.965790522E-1,2.173927685E0
3.942138958E0,1.443845067E0,1.349008784E0,-1.910419840E-1,1.985197803E0
3.952103958E0,1.595416153E0,9.427021408E-1,1.196435632E0,2.205787444E0
3.962069958E0,1.500872669E0,1.999607420E-1,3.058158690E0,3.412467969E0
3.972034958E0,1.279274598E0,-6.222495800E-1,4.817066063E0,5.022734662E0
3.982000958E0,9.598499047E-1,-1.184238340E0,5.983482674E0,6.174609073E0
3.991965958E0,7.237414563E-1,-1.544577390E0,6.017064988E0,6.254165978E0
4.001931958E0,5.098260418E-1,-1.589674333E0,5.114717991E0,5.380272038E0
4.011896958E0,3.618974061E-1,-1.292475857E0,3.539347701E0,3.785293347E0
4.021862958E0,1.806218437E-1,-9.711199012E-1,1.697345547E0,1.963843176E0
4.031827958E0,1.784253006E-1,-5.756069255E-1,1.480567628E-1,6.205479237E-1
4.041793958E0,2.083483170E-1,-1.062675896E-1,-9.163078094E-1,9.456859010E-1
4.051758958E0,2.173857370E-1,2.302656913E-1,-1.881312400E0,1.907777554E0
4.061724958E0,1.706795671E-1,4.439308450E-1,-2.454098629E0,2.499761226E0
4.071689958E0,1.869905579E-1,6.250182366E-1,-2.539946864E0,2.622392674E0
4.081655958E0,2.173129026E-1,6.613607284E-1,-2.317187244E0,2.419499873E0
4.091620958E0,3.243278030E-1,5.871361730E-1,-1.960069132E0,2.071663200E0
4.101586958E0,5.590232352E-1,5.106364658E-1,-1.504023734E0,1.683847965E0
4.111551958E0,6.688037954E-1,4.038271317E-1,-9.824883503E-1,1.255252257E0
4.121517958E0,7.799217966E-1,2.551283446E-1,-5.862412566E-1,1.008487626E0
4.131482958E0,9.160939474E-1,2.975484324E-1,-4.633602655E-1,1.068861977E0
4.141447958E0,1.053983425E0,4.119559309E-1,-6.486281240E-1,1.304341671E0
4.151413958E0,1.139443114E0,5.021866545E-1,-8.096019709E-1,1.485253310E0
4.161378958E0,1.114191767E0,5.335748005E-1,-6.945012850E-1,1.417200549E0
4.171344958E0,1.011199495E0,4.019595310E-1,-3.892099696E-1,1.155673087E0
4.181309958E0,7.599825720E-1,2.739604720E-1,-1.289544940E-1,8.180813599E-1
4.191275958E0,4.468881108E-1,1.504257622E-1,8.096230209E-2,4.784263662E-1
4.201240958E0,1.459098114E-1,5.476706833E-2,2.842933792E-1,3.242095469E-1
4.211206958E0,-2.172213206E-1,-9.513682991E-2,5.071886551E-1,5.598896770E-1
4.221171958E0,-3.799412923E-1,-1.735895070E-1,6.972366124E-1,8.127900075E-1
4.231137958E0,-3.817988431E-1,-1.564855242E-1,7.734305102E-1,8.766144135E-1
4.241102958E0,-3.828292686E-1,-1.565972060E-1,7.522431242E-1,8.584582994E-1
4.251068958E0,-3.463894938E-1,-1.499278718E-1,6.855983144E-1,7.826296039E-1
4.261033958E0,-2.951042231E-1,-4.566967785E-2,5.494207549E-1,6.253282241E-1
4.270999958E0,-2.732071679E-1,5.261353880E-2,3.714385271E-1,4.640871906E-1
4.280964958E0,-1.837248879E-1,6.550606459E-2,4.173836088E-1,4.607113585E-1
4.290930958E0,-8.201268129E-3,1.465212840E-1,5.585704780E-1,5.775263858E-1
4.300895958E0,1.080616250E-1,1.784342176E-1,5.888836133E-1,6.247399418E-1
4.310861958E0,3.982746888E-2,1.050159931E-1,5.070301956E-1,5.193209079E-1
4.320826958E0,2.703423612E-3,7.541738749E-2,3.388935095E-1,3.471943283E-1
4.330792958E0,2.198845446E-3,5.114208698E-2,2.687310147E-1,2.735629841E-1
4.340757958E0,9.287169166E-3,-4.741302520E-2,3.897590232E-1,3.927420816E-1
4.350723958E0,6.045783442E-2,-6.256696165E-2,3.951215047E-1,4.045871697E-1
4.360688958E0,-9.534616023E-4,5.233258009E-4,2.341570133E-1,2.341595393E-1
4.370653958E0,-7.713665161E-2,4.398801863E-2,1.063281083E-1,1.385304133E-1
4.380619958E0,-2.156409279E-2,1.102583143E-1,-5.274773240E-2,1.241137754E-1
4.390584958E0,1.731208893E-1,2.590986040E-1,-2.202242678E-1,3.815778519E-1
4.400550958E0,2.493828705E-1,4.251159668E-1,-4.102897668E-1,6.412901793E-1
4.410515958E0,3.464099590E-1,4.511466014E-1,-5.188146740E-1,7.698712761E-1
4.420481958E0,4.298689126E-1,4.599864221E-1,-4.681356865E-1,7.845545306E-1
4.430446958E0,5.338886132E-1,3.911834049E-1,-5.440600276E-1,8.567746619E-1
4.440412958E0,5.567406649E-1,2.719814819E-1,-4.649846220E-1,7.746901272E-1
4.450377958E0,6.231424499E-1,2.010193804E-1,-2.135221893E-1,6.886995204E-1
4.460343958E0,8.331729012E-1,1.748574758E-1,1.056626952E-1,8.578559467E-1
4.470308958E0,7.948387747E-1,8.827716887E-2,1.792487347E-1,8.195679625E-1
4.480274958E0,6.183174737E-1,-2.232671589E-2,2.629902184E-2,6.192791124E-1
4.490239958E0,5.041400631E-1,-3.784610331E-2,-1.693774652E-1,5.331775093E-1
4.500205958E0,4.945995633E-1,-2.977519155E-2,-3.154835969E-1,5.874054732E-1
4.510170958E0,4.832544300E-1,-4.342844009E-2,-4.342534107E-1,6.511504421E-1
4.520136958E0,4.583843946E-1,-6.997392207E-2,-6.353344792E-1,7.865510177E-1
4.530101958E0,3.984734576E-1,-7.961334944E-2,-7.365924668E-1,8.412418463E-1
4.540067958E0,3.737167120E-1,-6.577591360E-2,-7.853535676E-1,8.722218054E-1
4.550032958E0,4.853327497E-1,-3.603522062E-2,-8.335112357E-1,9.651877513E-1
4.559998958E0,6.840640781E-1,1.830763221E-2,-7.407340497E-1,1.008447205E0
4.569963958E0,7.670213771E-1,1.842106819E-2,-4.702880466E-1,8.999066482E-1
4.579929958E0,7.931362116E-1,-2.032141328E-2,-3.691113353E-1,8.750549628E-1
4.589894958E0,8.444233096E-1,6.805574298E-3,-4.577422607E-1,9.605337156E-1
4.599859958E0,9.262260027E-1,6.921378404E-2,-6.615849692E-1,1.140341978E0
4.609825958E0,9.982373871E-1,7.527588487E-2,-8.411003369E-1,1.307514480E0
4.619790958E0,1.046450019E0,1.063377562E-1,-1.019331656E0,1.464719217E0
4.629756958E0,1.207702851E0,1.414508709E-1,-1.200723980E0,1.708886363E0
4.639721958E0,1.321188171E0,7.333548635E-2,-1.153785456E0,1.755601651E0
4.649687958E0,1.343316666E0,-5.755238950E-2,-9.695396912E-1,1.657654715E0
4.659652958E0,1.380297820E0,-1.678738537E-1,-8.677917069E-1,1.639044279E0
4.669618958E0,1.471465706E0,-2.106664091E-1,-8.856227911E-1,1.730294596E0
4.679583958E0,1.646985525E0,-2.153836504E-1,-9.718481719E-1,1.924432463E0
4.689549958E0,1.861399853E0,-1.578657594E-1,-1.207261167E0,2.224232573E0
4.699514958E0,2.038041607E0,-1.449659246E-1,-1.504832404E0,2.537547886E0
4.709480958E0,2.190816780E0,-1.590661928E-1,-1.756151580E0,2.812303076E0
4.719445958E0,2.323986825E0,-1.717844716E-1,-1.970551436E0,3.051802357E0
4.729411958E0,2.311095761E0,-1.926985002E-1,-2.307504255E0,3.271524448E0
4.739376958E0,2.102155596E0,-2.816320190E-1,-2.582592362E0,3.341879419E0
4.749342958E0,1.642471767E0,-4.065007710E-1,-2.577400619E0,3.083172122E0
4.759307958E0,1.167309701E0,-5.115264121E-1,-2.483573858E0,2.791488907E0
4.769273958E0,8.337908057E-1,-6.118821743E-1,-2.297666899E0,2.519698411E0
4.779238958E0,5.523229108E-1,-7.799907938E-1,-1.879895035E0,2.108898191E0
4.789204958E0,2.437849655E-1,-9.671967119E-1,-1.285875227E0,1.627383080E0
4.799169958E0,-7.002392490E-3,-1.148122136E0,-7.482512301E-1,1.370442766E0
4.809134958E0,-9.992369869E-2,-1.074949202E0,-3.648229873E-1,1.139559715E0
4.819100958E0,-1.250415099E-1,-7.274064910E-1,-2.815913808E-1,7.899679032E-1
4.829065958E0,-7.660868458E-2,-3.748920389E-1,-3.969551915E-1,5.513495764E-1
4.839031958E0,-8.835608801E-2,6.633607686E-2,-4.925302702E-1,5.047705820E-1
4.848996958E0,-1.608489723E-1,3.674896100E-1,-4.366811746E-1,5.929683412E-1
4.858962958E0,-2.960180698E-1,3.984377530E-1,-2.661067843E-3,4.963732688E-1
4.868927958E0,-3.500640668E-1,2.501655203E-1,9.549467951E-1,1.047402034E0
4.878894333E0,-2.984021989E-1,4.192161262E-3,2.297121938E0,2.316426266E0
4.888859333E0,-3.404834405E-1,-3.551138319E-1,4.208058087E0,4.236718975E0
4.898825333E0,-6.928333667E-1,-9.468122949E-1,6.162802160E0,6.273484045E0
4.908790333E0,-1.115536626E0,-1.515196593E0,7.351095545E0,7.588072772E0
4.918756333E0,-1.467734598E0,-1.587499023E0,7.452569295E0,7.759844527E0
4.928721333E0,-1.456398455E0,-1.230588049E0,6.704820340E0,6.970657014E0
4.938687333E0,-1.257500444E0,-7.228933176E-1,5.421398020E0,5.612079704E0
4.948652333E0,-9.594923475E-1,-2.540739454E-1,4.129152251E0,4.246772592E0
4.958618333E0,-6.625748297E-1,2.003491433E-1,3.026437545E0,3.104588443E0
4.968583333E0,-4.602146462E-1,5.897161107E-1,2.076829843E0,2.207438517E0
4.978549333E0,-4.303155668E-1,8.038464104E-1,1.268727098E0,1.562372871E0
4.988514333E0,-4.345674062E-1,8.932006364E-1,6.504039234E-1,1.187300076E0
4.998480333E0,-4.614981831E-1,9.416303462E-1,2.141244525E-1,1.070279199E0
5.008445333E0,-5.181709687E-1,9.248084915E-1,-1.267635423E-1,1.067633315E0
5.018411333E0,-5.375630767E-1,8.488654393E-1,-3.680325240E-1,1.070044174E0
5.028376333E0,-5.371887087E-1,7.084955724E-1,-5.667513174E-1,1.054393067E0
5.038341333E0,-5.695682135E-1,5.897317520E-1,-8.488128144E-1,1.180116385E0
5.048307333E0,-5.547724190E-1,4.635861142E-1,-1.134701899E0,1.345448966E0
5.058272333E0,-5.557072061E-1,3.098074123E-1,-1.156476930E0,1.319935612E0
5.068238333E0,-5.579726002E-1,8.865869969E-2,-1.060881386E0,1.201941389E0
5.078203333E0,-6.094383305E-1,-1.204853868E-1,-1.081027967E0,1.246817257E0
5.088169333E0,-6.822300258E-1,-2.481972013E-1,-1.233915115E0,1.431637583E0
5.098134333E0,-6.990414286E-1,-2.906756151E-1,-1.464380196E0,1.648502530E0
5.108100333E0,-6.001261280E-1,-3.217640913E-1,-1.663251017E0,1.797244404E0
5.118065333E0,-3.406132853E-1,-2.947375296E-1,-1.870247714E0,1.923724027E0
5.128031333E0,-9.391810572E-2,-2.334442377E-1,-1.983816429E0,1.999711091E0
5.137996333E0,1.142988865E-1,-2.868870579E-1,-1.891412880E0,1.916457958E0
5.147962333E0,3.193153139E-1,-4.730464706E-1,-1.462883309E0,1.570274756E0
5.157927333E0,3.839116979E-1,-6.833367576E-1,-1.103475428E0,1.353512223E0
5.167893333E0,4.423281232E-1,-8.351174659E-1,-1.067540780E0,1.425734431E0
5.177858333E0,5.316055679E-1,-8.847293365E-1,-1.190250447E0,1.575451239E0
5.187824333E0,7.354160070E-1,-9.198313415E-1,-1.338872636E0,1.783117028E0
5.197789333E0,9.036178165E-1,-9.588139974E-1,-1.616662742E0,2.085532992E0
5.207755333E0,9.707396860E-1,-1.003817677E0,-2.004820797E0,2.443213437E0
5.217720333E0,1.179860530E0,-1.029343990E0,-2.324838325E0,2.802943659E0
5.227686333E0,1.377198357E0,-1.052763404E0,-2.557011963E0,3.089222601E0
5.237651333E0,1.546302904E0,-1.137240614E0,-2.776729277E0,3.375588002E0
5.247617333E0,1.783278129E0,-1.302951436E0,-2.966233444E0,3.698148749E0
5.257582333E0,2.017285161E0,-1.441155787E0,-3.012752137E0,3.901672060E0
5.267548333E0,2.137264179E0,-1.527887975E0,-2.983723635E0,3.975543556E0
5.277513333E0,2.236103173E0,-1.599900236E0,-3.138219352E0,4.172320562E0
5.287478333E0,2.408087766E0,-1.583604046E0,-3.401310142E0,4.458205822E0
5.297444333E0,2.578747526E0,-1.542135301E0,-3.785358775E0,4.832914353E0
5.307409333E0,2.819258416E0,-1.467420456E0,-4.305599000E0,5.351609436E0
5.317375333E0,3.078990566E0,-1.400951940E0,-4.810651082E0,5.880919407E0
5.327340333E0,3.453800890E0,-1.240558429E0,-4.867942101E0,6.096276413E0
5.337306333E0,3.738947670E0,-1.132692942E0,-4.515687119E0,5.971109875E0
5.347271333E0,3.717490143E0,-1.220783000E0,-4.316932658E0,5.826315445E0
5.357237333E0,3.624830486E0,-1.288962996E0,-4.317286415E0,5.782714210E0
5.367202333E0,3.595154112E0,-1.205213472E0,-4.005281911E0,5.515428885E0
5.377168333E0,3.916037028E0,-9.762853315E-1,-3.367732506E0,5.256434275E0
5.387133333E0,4.545497394E0,-7.821387684E-1,-2.622159301E0,5.305563779E0
5.397099333E0,5.466633834E0,-4.892398958E-1,-1.692678884E0,5.743570576E0
5.407064333E0,7.377177635E0,3.791027650E-2,-5.091743696E-1,7.394825595E0
5.417030333E0,9.298258703E0,3.528280091E-1,1.119042470E0,9.371998643E0
5.426995333E0,1.032004794E1,3.209237002E-1,4.026268153E0,1.108229294E1
5.436961333E0,1.215523868E1,-5.070274182E-1,1.001891634E1,1.576025345E1
5.446926333E0,1.350990289E1,-2.774944707E0,1.866529703E1,2.320799663E1
5.456892333E0,1.264469039E1,-5.851423309E0,2.646924832E1,2.991234622E1
5.466857333E0,1.161264045E1,-7.532863845E0,3.095864227E1,3.391216577E1
5.476823333E0,1.161876716E1,-6.866216356E0,3.320615058E1,3.584395505E1
5.486788333E0,1.232469099E1,-5.678823443E0,3.277406473E1,3.547233235E1
5.496754333E0,1.350780140E1,-4.789921533E0,2.909658241E1,3.243478310E1
5.506719333E0,1.306273941E1,-3.146859782E0,2.595560551E1,2.922723635E1
5.516684333E0,1.079157677E1,-2.266049688E0,2.315431676E1,2.564596449E1
5.526650333E0,8.519142360E0,-2.361371290E0,1.979587255E1,2.168013909E1
5.536615333E0,6.339260604E0,-2.672788295E0,1.766239898E1,1.895495608E1
5.546581333E0,4.914536809E0,-3.675256581E0,1.647271279E1,1.757869305E1
5.556546333E0,2.852307463E0,-5.266168478E0,1.520557788E1,1.634251471E1
5.566512333E0,-6.227871584E-1,-6.867480524E0,1.284744376E1,1.458104810E1
5.576477333E0,-5.041787424E0,-8.132135621E0,7.923060824E0,1.242280737E1
5.586443333E0,-9.812624230E0,-8.651191785E0,1.986963401E0,1.323173221E1
5.596408333E0,-1.294340592E1,-8.272065924E0,-3.061471723E0,1.566305975E1
5.606374333E0,-1.299119288E1,-7.153423403E0,-4.910565965E0,1.562229871E1
5.616339333E0,-1.038964852E1,-6.055660704E0,-5.629616784E0,1.327811764E1
5.626305333E0,-7.327939986E0,-5.573016906E0,-7.810274466E0,1.207301160E1
5.636270333E0,-5.331174313E0,-5.900904787E0,-1.041193577E1,1.310154584E1
5.646236333E0,-3.977264977E0,-6.525245916E0,-1.167988109E1,1.395768940E1
5.656201333E0,-3.105181706E0,-6.644540809E0,-1.094317870E1,1.317365690E1
5.666167333E0,-3.073412322E0,-6.649784008E0,-1.020270719E1,1.256028362E1
5.676132333E0,-3.098864667E0,-6.829462513E0,-9.791084257E0,1.233328226E1
5.686098333E0,-2.877123631E0,-7.203863239E0,-9.524512035E0,1.228372156E1
5.696063333E0,-2.451345175E0,-7.999315533E0,-9.398467115E0,1.258289817E1
5.706029333E0,-2.085255388E0,-8.965708838E0,-9.211304174E0,1.302230201E1
5.715994333E0,-1.722722755E0,-9.722542026E0,-8.892939069E0,1.328833934E1
5.725960333E0,-8.524845734E-1,-1.024187535E1,-8.380935817E0,1.326132820E1
5.735925333E0,2.267845149E-1,-1.049192217E1,-7.282717035E0,1.277379464E1
5.745890333E0,5.005741021E-1,-1.064691432E1,-6.037343717E0,1.224977053E1
5.755856333E0,-5.942580085E-3,-1.093113577E1,-5.499774683E0,1.223671877E1
5.765821333E0,-7.063141955E-1,-1.108005851E1,-5.204739384E0,1.226196919E1
5.775787333E0,-1.423668226E0,-1.106313199E1,-4.817729722E0,1.215031853E1
5.785752333E0,-1.596204358E0,-1.082245241E1,-4.852917096E0,1.196762921E1
5.795718333E0,-1.371398796E0,-1.002850343E1,-5.642323954E0,1.158824557E1
5.805683333E0,-9.328120141E-1,-9.128092448E0,-7.033658978E0,1.156133940E1
5.815649333E0,-3.989619925E-1,-8.448660607E0,-8.524513612E0,1.200859563E1
5.825614333E0,-1.284682249E-1,-7.893389128E0,-9.830260602E0,1.260778012E1
5.835580333E0,-3.070940850E-1,-7.511230316E0,-1.048792969E1,1.290385822E1
5.845545333E0,-6.422635759E-1,-7.358982854E0,-1.041604285E1,1.276953718E1
5.855511333E0,-1.050845663E0,-7.224557705E0,-9.870930326E0,1.227736845E1
5.865476333E0,-1.372635921E0,-6.951370527E0,-9.181546524E0,1.159769279E1
5.875442375E0,-1.630639634E0,-6.642014812E0,-8.484196476E0,1.089756561E1
5.885407375E0,-1.493063713E0,-6.391675045E0,-7.982701254E0,1.033471182E1
5.895373375E0,-6.903184061E-1,-6.163524292E0,-7.226075642E0,9.522696067E0
5.905338375E0,-3.148811875E-1,-5.935101643E0,-6.535314236E0,8.833737252E0
5.915304375E0,-4.692508236E-1,-5.895292629E0,-6.673989142E0,8.917219442E0
5.925269375E0,-5.437809692E-1,-5.897956620E0,-7.227312328E0,9.344283468E0
5.935235375E0,-4.865200634E-1,-5.781346768E0,-7.563982726E0,9.532812120E0
5.945200375E0,-3.541213401E-1,-5.673879037E0,-7.370529935E0,9.308223073E0
5.955166375E0,-1.924103786E-1,-5.479970748E0,-6.919021391E0,8.828361013E0
5.965131375E0,-1.465016227E-1,-5.257942030E0,-6.385631363E0,8.273071075E0
5.975096375E0,-2.185610273E-1,-5.005408387E0,-5.926619672E0,7.760586497E0
5.985062375E0,-1.366591508E-1,-4.687869202E0,-5.238718139E0,7.031284457E0
5.995027375E0,2.976115823E-2,-4.243175295E0,-4.070402936E0,5.879932174E0
6.004993375E0,-2.771660618E-2,-3.763554800E0,-2.345381348E0,4.434628125E0
6.014958375E0,-1.058687145E0,-3.183379737E0,-1.837733102E-1,3.359835956E0
6.024924375E0,-3.241432064E0,-2.290953418E0,2.018745942E0,4.453165679E0
6.034889375E0,-6.213868818E0,-7.681311786E-1,2.693353245E0,6.815889003E0
6.044855375E0,-8.648922481E0,1.567616005E0,1.291240633E0,8.884175954E0
6.054820375E0,-6.830013320E0,3.891668172E0,-6.469604981E-1,7.887504105E0
6.064786375E0,-8.480878327E-1,4.873601329E0,2.455262225E0,5.522640263E0
6.074751375E0,3.894147684E0,4.175457521E0,1.027466419E1,1.175446962E1
6.084717375E0,4.731756063E0,1.884716357E0,1.807720747E1,1.878103035E1
6.094682375E0,2.260507843E0,-1.212339474E0,2.376725698E1,2.390527488E1
6.104648375E0,-2.889716195E0,-2.584597080E0,2.547711850E1,2.577041266E1
6.114613375E0,-6.561091686E0,-1.791729256E0,2.197955032E1,2.300779977E1
6.124579375E0,-6.361841966E0,-4.878454810E-1,1.743147372E1,1.856252414E1
6.134544375E0,-4.411492952E0,1.421077179E0,1.404827124E1,1.479306105E1
6.144510375E0,-2.239950934E0,3.724767002E0,1.034544474E1,1.122138567E1
6.154475375E0,-1.674573858E0,5.461545587E0,6.111817948E0,8.365823118E0
6.164441375E0,-2.638229204E0,6.152802837E0,2.563677789E0,7.168659560E0
6.174406375E0,-3.887107344E0,6.033719612E0,4.796833527E-1,7.193432559E0
6.184372375E0,-4.265569546E0,5.701043447E0,-2.086777711E-1,7.123238474E0
6.194337375E0,-3.723781747E0,5.466242071E0,3.292438495E-1,6.622292230E0
6.204302375E0,-2.744293603E0,4.937058529E0,1.575074421E0,5.864004922E0
6.214268375E0,-1.691888633E0,3.846199638E0,3.389946079E0,5.398839988E0
6.224233375E0,-1.150661655E0,2.456772560E0,5.384885082E0,6.029655131E0
6.234199375E0,-6.457841845E-1,1.101909252E0,6.686988671E0,6.807867412E0
6.244164375E0,-1.710797725E-1,1.933443251E-1,7.007020817E0,7.011775171E0
6.254130375E0,-1.891349511E-1,-9.427889720E-2,6.431563581E0,6.435034626E0
6.264095375E0,-4.731199262E-1,-2.582851101E-1,5.210460300E0,5.238267862E0
6.274061375E0,-7.053013115E-1,-5.723580663E-1,3.786660365E0,3.894077608E0
6.284026375E0,-6.425705548E-1,-7.053507936E-1,2.657792233E0,2.823876098E0
6.293992375E0,-6.009804793E-1,-7.208431377E-1,1.403923495E0,1.688725420E0
6.303957375E0,-6.527661985E-1,-8.108915743E-1,-6.010352969E-2,1.042718222E0
6.313923375E0,-8.795060918E-1,-9.637037314E-1,-1.524692472E0,2.006724441E0
6.323888375E0,-1.037429227E0,-1.013708827E0,-2.638097057E0,3.010551622E0
6.333854375E0,-9.773546411E-1,-9.793022025E-1,-3.474921325E0,3.740231692E0
6.343819375E0,-9.239192031E-1,-9.557972726E-1,-4.535971110E0,4.726754599E0
6.353785375E0,-8.783421305E-1,-8.859258230E-1,-5.529587297E0,5.668569937E0
6.363750375E0,-1.039749402E0,-7.414917026E-1,-5.831104819E0,5.969310863E0
6.373716375E0,-1.154388158E0,-5.897240044E-1,-5.629574100E0,5.776892847E0
6.383681375E0,-1.058716600E0,-5.659832856E-1,-5.328179954E0,5.461750593E0
6.393647375E0,-1.196408443E0,-3.385410686E-1,-4.974101810E0,5.127152429E0
6.403612375E0,-1.550954656E0,1.068549424E-2,-4.683371816E0,4.933512551E0
6.413578375E0,-2.035222518E0,2.244817717E-1,-4.317042001E0,4.778009460E0
6.423543375E0,-2.492785854E0,2.535697693E-1,-3.568575009E0,4.360390640E0
6.433508375E0,-2.652579148E0,1.796752891E-1,-2.514493935E0,3.659390536E0
6.443474375E0,-2.352470951E0,5.277930737E-2,-1.599763119E0,2.845372958E0
6.453439375E0,-1.352129297E0,5.434738442E-2,-4.870946985E-1,1.438217132E0
6.463405375E0,-1.507133813E-1,1.246731627E-1,1.026731892E0,1.045196775E0
6.473370375E0,8.190361610E-1,-1.941845700E-2,2.861082380E0,2.976069504E0
6.483336375E0,1.134723387E0,-4.510955845E-1,4.386596385E0,4.553384701E0
6.493301375E0,7.108096810E-1,-9.901372392E-1,5.343942878E0,5.481181226E0
6.503267375E0,2.352388761E-2,-1.315708306E0,5.648406227E0,5.799666769E0
6.513232375E0,-5.262983061E-1,-1.475206316E0,4.993971818E0,5.233830156E0
6.523198375E0,-8.401299184E-1,-1.373349720E0,3.695214005E0,4.030696500E0
6.533163375E0,-1.028270148E0,-9.760742471E-1,2.172801948E0,2.594441893E0
6.543129375E0,-1.046668413E0,-6.131122823E-1,6.821046031E-1,1.391649426E0
6.553094375E0,-1.188682078E0,-3.785458177E-1,-8.787499738E-1,1.525930383E0
6.563060375E0,-1.382737278E0,-2.187361515E-1,-2.009333094E0,2.448923716E0
6.573025375E0,-1.295361312E0,-1.458704889E-1,-2.357001520E0,2.693454156E0
6.582991375E0,-1.192803269E0,-7.551708251E-2,-2.359124644E0,2.644608015E0
6.592956375E0,-1.109252477E0,-7.501319870E-2,-2.439505148E0,2.680905333E0
6.602922375E0,-8.642806001E-1,-8.103948534E-3,-2.331954972E0,2.486978210E0
6.612887375E0,-4.377197498E-1,1.781906810E-1,-1.792700770E0,1.853948907E0
6.622853375E0,1.275838884E-1,3.529319434E-1,-1.285190518E0,1.338862679E0
6.632818375E0,5.640435449E-1,5.427115135E-1,-9.234975457E-1,1.210590197E0
6.642784375E0,7.393541068E-1,6.565632342E-1,-7.198910648E-1,1.223095630E0
6.652749375E0,7.522190045E-1,6.178651915E-1,-5.588797957E-1,1.122469354E0
6.662714375E0,6.305771115E-1,4.858587433E-1,-3.142802399E-1,8.558377657E-1
6.672680375E0,5.205384697E-1,3.333062026E-1,-1.812256783E-1,6.441242657E-1
6.682645375E0,3.203315965E-1,2.857098672E-1,-1.919418705E-1,4.701958545E-1
6.692611375E0,-5.731342111E-2,1.061652634E-1,-2.001946306E-1,2.337387035E-1
6.702576375E0,-4.433518975E-1,-1.697141187E-1,-1.987035906E-1,5.146327856E-1
6.712542375E0,-6.559856024E-1,-2.556639495E-1,-3.159233075E-1,7.716791444E-1
6.722507375E0,-7.590072564E-1,-2.959780164E-1,-3.775845355E-1,8.979226486E-1
6.732473375E0,-9.005049051E-1,-4.211274348E-1,-2.169188368E-1,1.017502424E0
6.742438375E0,-9.448312582E-1,-5.566642857E-1,-1.531970501E-2,1.096729651E0
6.752404375E0,-8.363714743E-1,-6.071203481E-1,2.170375353E-1,1.056038660E0
6.762369375E0,-7.782961245E-1,-6.277823617E-1,3.100994807E-1,1.046908420E0
6.772335375E0,-7.000909308E-1,-6.980156077E-1,2.266714078E-1,1.014264772E0
6.782300375E0,-5.417935006E-1,-6.542709795E-1,2.138326764E-3,8.494794196E-1
6.792266375E0,-3.917757279E-1,-4.682865447E-1,-2.795583040E-1,6.715157140E-1
6.802231375E0,-2.529729147E-1,-2.541694012E-1,-4.438188708E-1,5.705896688E-1
6.812197375E0,-2.401788780E-1,-1.753075652E-1,-3.955296403E-1,4.948356618E-1
6.822162375E0,-2.381648594E-1,-2.758141856E-1,-9.319292307E-2,3.761394504E-1
6.832128375E0,-2.539913718E-1,-3.218015134E-1,2.895868635E-1,5.019246781E-1
6.842093375E0,-2.232395673E-1,-3.550904430E-1,4.612733942E-1,6.234567117E-1
6.852059375E0,-1.877528886E-1,-4.183156550E-1,4.720457196E-1,6.580777278E-1
6.862024375E0,-1.785544875E-1,-4.226931730E-1,3.566614437E-1,5.811700344E-1
6.871990250E0,-4.539992935E-2,-3.972525224E-1,2.992692679E-1,4.994324928E-1
6.881955250E0,1.742827493E-2,-3.251141073E-1,3.020262301E-1,4.440977045E-1
6.891921250E0,1.080373591E-1,-2.586347736E-1,3.035295492E-1,4.131515513E-1
6.901886250E0,2.321299481E-1,-1.272418445E-1,1.795358330E-1,3.198560850E-1
6.911851250E0,2.672140277E-1,-4.393217772E-2,5.482349396E-2,2.762951110E-1
6.921817250E0,2.772928551E-1,1.418534517E-3,4.121176064E-2,2.803421997E-1
6.931782250E0,3.904535628E-1,1.197496609E-1,-8.286089301E-3,4.084882192E-1
6.941748250E0,5.762225642E-1,3.042513880E-1,-2.884109885E-1,7.125884148E-1
6.951713250E0,8.421828758E-1,4.308203642E-1,-4.554992688E-1,1.049932268E0
6.961679250E0,1.103266902E0,5.024578191E-1,-1.879681027E-1,1.226781857E0
6.971644250E0,9.775239180E-1,3.979875174E-1,2.335255140E-1,1.080963108E0
6.981610250E0,4.176818168E-1,8.671179615E-2,8.314302117E-1,9.344801938E-1
6.991575250E0,6.467780650E-2,-2.306731691E-1,1.278761505E0,1.301008961E0
7.001541250E0,-1.864942389E-1,-3.343320966E-1,1.312942573E0,1.367616998E0
7.011506250E0,-2.359421682E-1,-2.752065868E-1,1.223848549E0,1.276406143E0
7.021472250E0,9.388574503E-2,-1.382131214E-1,1.200392443E0,1.211965106E0
7.031437250E0,4.497768912E-1,6.525105290E-2,1.030070652E0,1.125878546E0
7.041403250E0,3.587214909E-1,1.423908839E-1,5.925118107E-1,7.071255317E-1
7.051368250E0,1.846740738E-2,1.420873404E-2,-1.901689947E-2,3.007616537E-2
7.061334250E0,-1.270609463E-1,-5.961397156E-2,-5.375503224E-1,5.555705705E-1
7.071299250E0,4.394336052E-2,9.117051736E-3,-9.641836417E-1,9.652275558E-1
7.081265250E0,2.370524083E-1,1.700889983E-1,-1.347282102E0,1.378511216E0
7.091230250E0,4.123321261E-1,2.778157606E-1,-1.667821786E0,1.740353093E0
7.101196250E0,6.498862255E-1,3.414366829E-1,-1.755417169E0,1.902740275E0
7.111161250E0,8.419687946E-1,3.278671226E-1,-1.505547518E0,1.755870619E0
7.121127250E0,8.215851816E-1,1.704383694E-1,-7.625459182E-1,1.133811151E0
7.131092250E0,6.461046850E-1,-5.597568780E-2,2.365263051E-1,6.903109695E-1
7.141058250E0,3.667507412E-1,-2.932338450E-1,9.380945349E-1,1.049053645E0
7.151023250E0,1.226615012E-1,-5.577908979E-1,1.429782221E0,1.539627789E0
7.160988250E0,-1.024038226E-1,-6.874021804E-1,1.700387853E0,1.836934172E0
7.170954250E0,-1.729497486E-1,-6.897450136E-1,1.520624564E0,1.678677713E0
7.180919250E0,-9.842691198E-3,-4.930620014E-1,1.035828406E0,1.147234720E0
7.190885250E0,1.943008565E-1,-2.672407787E-1,5.203010362E-1,6.163470005E-1
7.200850250E0,2.824524564E-1,-7.841883637E-2,9.361743093E-2,3.077224844E-1
7.210816250E0,3.089589082E-1,4.398736082E-2,-2.672867525E-1,4.108925686E-1
7.220781250E0,3.540033726E-1,1.042615561E-1,-2.894880456E-1,4.690332487E-1
7.230747250E0,5.342973702E-1,1.909933790E-1,8.678729832E-2,5.740071304E-1
7.240712250E0,6.869402504E-1,2.659009624E-1,4.077982682E-1,8.419558521E-1
7.250678250E0,7.200717437E-1,3.049605091E-1,5.408124840E-1,9.507798752E-1
7.260643250E0,6.854829781E-1,3.695258298E-1,4.433054852E-1,8.960781246E-1
7.270609250E0,5.658955774E-1,3.977423729E-1,5.821429431E-2,6.941366607E-1
7.280574250E0,4.355066883E-1,3.821295762E-1,-4.643168700E-1,7.424818141E-1
7.290540250E0,4.396659590E-1,4.802471705E-1,-9.959299296E-1,1.189882316E0
7.300505250E0,5.753367841E-1,5.553837454E-1,-1.349291790E0,1.568455244E0
7.310471250E0,6.342281129E-1,4.998789047E-1,-1.270777132E0,1.505655584E0
7.320436250E0,5.586980204E-1,3.777713540E-1,-1.041627674E0,1.240904060E0
7.330402250E0,3.139544038E-1,2.058700843E-1,-9.594099748E-1,1.030251115E0
7.340367250E0,7.348780632E-3,6.502074569E-2,-9.294973737E-1,9.317977622E-1
7.350333250E0,-3.003348499E-1,-6.632642895E-2,-8.428042156E-1,8.971728724E-1
7.360298250E0,-4.590035051E-1,-2.217543380E-1,-6.737828457E-1,8.448920211E-1
7.370264250E0,-4.443896687E-1,-1.334903254E-1,-5.574957597E-1,7.253298330E-1
7.380229250E0,-4.274808732E-1,-2.058906958E-2,-6.128636295E-1,7.475062776E-1
7.390195250E0,-2.724271128E-1,1.560168698E-2,-5.867821240E-1,6.471268852E-1
7.400160250E0,-2.055254640E-1,1.191780956E-1,-4.742752630E-1,5.304537302E-1
7.410126250E0,-2.671682367E-1,2.410317309E-1,-5.594276798E-1,6.651574933E-1
7.420091250E0,-5.249071073E-1,2.826377401E-1,-9.038976789E-1,1.082793876E0
7.430056250E0,-7.988884100E-1,3.078254986E-1,-1.440489643E0,1.675705714E0
7.440022250E0,-9.595177098E-1,4.361807992E-1,-2.101034977E0,2.350590543E0
7.449987250E0,-1.077461897E0,5.378779127E-1,-2.639451272E0,2.901196271E0
7.459953250E0,-1.072214021E0,5.598460481E-1,-3.000228571E0,3.234878975E0
7.469918250E0,-1.087411007E0,4.922804479E-1,-3.091482557E0,3.313920207E0
7.479884250E0,-1.140107942E0,3.518823682E-1,-2.973813774E0,3.204252749E0
7.489849250E0,-1.403487146E0,5.199548811E-2,-2.873116534E0,3.198011620E0
7.499815250E0,-1.691484152E0,-3.011545564E-1,-2.879066076E0,3.352735327E0
7.509780250E0,-1.982784103E0,-7.289489865E-1,-2.715804799E0,3.440696896E0
7.519746250E0,-2.220627055E0,-1.131830185E0,-2.787614454E0,3.739387441E0
7.529711250E0,-2.013487687E0,-1.292551286E0,-3.150066395E0,3.955722410E0
7.539677250E0,-1.807327727E0,-1.346082838E0,-3.670751594E0,4.307294949E0
7.549642250E0,-1.945129204E0,-1.602452838E0,-4.236718215E0,4.929621076E0
7.559608250E0,-2.390830294E0,-1.765521450E0,-5.002395902E0,5.818685439E0
7.569573250E0,-2.927303267E0,-1.744735768E0,-6.114679576E0,7.000179542E0
7.579539250E0,-3.707444918E0,-1.739945583E0,-6.854118467E0,7.984453545E0
7.589504250E0,-4.762179419E0,-1.994714178E0,-6.220829929E0,8.084303462E0
7.599470250E0,-6.304962591E0,-2.894941851E0,-4.131209301E0,8.074659862E0
7.609435250E0,-8.327783457E0,-3.745386331E0,-1.368944281E0,9.233304096E0
7.619401250E0,-1.124929798E1,-4.137029035E0,1.414168401E0,1.206903420E1
7.629366250E0,-1.390124417E1,-4.193994657E0,3.229556953E0,1.487495273E1
7.639331250E0,-1.588457060E1,-3.108216704E0,3.717275550E0,1.660718916E1
7.649297250E0,-1.704740404E1,-6.493827072E-1,3.031659694E0,1.732704946E1
7.659262250E0,-1.930233013E1,1.413621394E0,3.981659744E0,1.975934939E1
7.669228250E0,-2.321734974E1,1.573340429E0,9.337610464E0,2.507412408E1
7.679193250E0,-2.798123538E1,-1.327418233E0,1.954194669E1,3.415551570E1
7.689159250E0,-3.231532260E1,-5.781740286E0,3.306625711E1,4.659491340E1
7.699124250E0,-3.416939282E1,-1.058925258E1,4.303292039E1,5.595991345E1
7.709090250E0,-3.266427975E1,-1.396825092E1,4.601677325E1,5.813441860E1
7.719055250E0,-2.848709204E1,-1.538921671E1,4.746346796E1,5.745540179E1
7.729021250E0,-2.108765113E1,-1.662064851E1,4.972992827E1,5.651549126E1
7.738986250E0,-1.165679512E1,-1.882985873E1,5.072987699E1,5.535309270E1
7.748952250E0,-1.771920351E0,-2.244016356E1,5.084707858E1,5.560688845E1
7.758917250E0,7.084305221E0,-2.470139412E1,4.613663182E1,5.281036875E1
7.768883250E0,1.254106486E1,-2.527571466E1,3.617840958E1,4.588046838E1
7.778848250E0,1.545540485E1,-2.490815167E1,2.573803529E1,3.900938374E1
7.788814250E0,1.555759196E1,-2.406061881E1,1.674742433E1,3.318777285E1
7.798779250E0,1.299851359E1,-2.419358449E1,9.280779621E0,2.899006307E1
7.808745250E0,1.160939525E1,-2.508421367E1,3.608096339E0,2.787497431E1
7.818710250E0,1.174484249E1,-2.514796937E1,9.890039027E-2,2.775556647E1
7.828676250E0,1.176211049E1,-2.520071827E1,-1.926265794E0,2.787712224E1
7.838641250E0,1.220271690E1,-2.588215746E1,-2.447017066E0,2.871898792E1
7.848607250E0,1.275747616E1,-2.636467204E1,-1.046489634E0,2.930775103E1
7.858572250E0,1.279831545E1,-2.621165274E1,6.343702734E-1,2.917618967E1
7.868538250E0,1.246053233E1,-2.535960817E1,7.751343888E-1,2.826615336E1
7.878503250E0,1.147540279E1,-2.351678799E1,-8.854871356E-1,2.618221294E1
7.888469250E0,1.034125813E1,-2.082014335E1,-2.544201883E0,2.338574250E1
7.898434250E0,9.667006926E0,-1.807472825E1,-3.642956854E0,2.081869254E1
7.908399250E0,7.897593277E0,-1.595079499E1,-4.477733427E0,1.835347207E1
7.918365250E0,5.005030657E0,-1.476206073E1,-5.451121756E0,1.651313106E1
7.928330250E0,3.150557562E0,-1.370239323E1,-6.961149411E0,1.568882386E1
7.938296250E0,2.038562448E0,-1.168466879E1,-8.330447448E0,1.449426012E1
7.948261250E0,4.886220644E-1,-9.473741831E0,-8.971528571E0,1.305675537E1
7.958227250E0,3.964689955E-2,-8.096749442E0,-8.716119268E0,1.189662383E1
7.968192250E0,-1.671031907E-2,-7.523842176E0,-7.929307989E0,1.093080077E1
7.978158250E0,-8.085755653E-1,-8.135191961E0,-7.118231936E0,1.083994320E1
7.988123250E0,-1.698036542E0,-9.270580907E0,-6.294556886E0,1.133350982E1
7.998089250E0,-3.140775170E0,-1.071251072E1,-5.723998446E0,1.254537814E1
8.008054250E0,-5.083050640E0,-1.316975515E1,-4.697757720E0,1.487779493E1
8.018020250E0,-6.360217025E0,-1.545684794E1,-2.815264183E0,1.694969679E1
8.027985250E0,-6.486254928E0,-1.707143376E1,-8.703486943E-1,1.828285701E1
8.037951250E0,-5.219572016E0,-1.778771650E1,8.739891708E-2,1.853791868E1
8.047916250E0,-2.867593839E0,-1.718352137E1,-4.727345216E-1,1.742756377E1
8.057882250E0,-1.327698461E0,-1.550091490E1,-2.399106735E0,1.574156470E1
8.067847250E0,-8.788363664E-1,-1.369989530E1,-4.660173572E0,1.449747227E1
8.077813250E0,-7.293460125E-1,-1.207105865E1,-6.145124858E0,1.356484287E1
8.087778250E0,-5.291132288E-1,-1.087983815E1,-6.838528621E0,1.286142732E1
8.097744250E0,-8.348537564E-2,-9.993947557E0,-6.962507134E0,1.218041310E1
8.107709250E0,6.446292132E-2,-9.100084285E0,-6.396101972E0,1.112321041E1
8.117675250E0,-3.277612880E-2,-8.529251611E0,-4.737630469E0,9.756759184E0
8.127640250E0,-2.982538989E-1,-8.384017884E0,-2.740963029E0,8.825734507E0
8.137606250E0,-8.593094435E-1,-8.300478129E0,-1.992561525E0,8.579431877E0
8.147571250E0,-1.621325458E0,-8.168807019E0,-1.966391727E0,8.557149103E0
8.157537250E0,-2.120723721E0,-8.045898546E0,-2.311011415E0,8.635665943E0
8.167502250E0,-2.477938896E0,-7.905804521E0,-3.032104667E0,8.822447791E0
8.177467250E0,-2.881658147E0,-7.619705522E0,-2.904057076E0,8.648549787E0
8.187433250E0,-2.989259779E0,-7.679261168E0,-2.286972342E0,8.552015470E0
8.197398250E0,-3.065659499E0,-7.835936142E0,-2.128739085E0,8.679383242E0
8.207364250E0,-3.468094701E0,-7.944337088E0,-2.425564216E0,9.001307371E0
8.217329250E0,-3.889776013E0,-7.963776741E0,-2.907280061E0,9.327613562E0
8.227295250E0,-3.837166275E0,-7.814009668E0,-3.224079282E0,9.283171835E0
8.237260250E0,-3.514101763E0,-7.515414584E0,-2.550453141E0,8.679584022E0
8.247226250E0,-3.756386406E0,-7.380878338E0,-6.502834707E-1,8.307266244E0
8.257191250E0,-3.432143680E0,-6.927599841E0,1.540254251E0,7.883123300E0
8.267157250E0,-2.908907049E0,-5.380992590E0,3.292154320E0,6.946589202E0
8.277122250E0,-3.243491745E0,-3.606490986E0,4.587092732E0,6.675959532E0
8.287088250E0,-3.139809794E0,-8.212911397E-1,4.594614590E0,5.625247365E0
8.297053250E0,-2.514119128E0,3.075180520E0,3.831593878E0,5.518934849E0
8.307019250E0,-1.131838298E0,5.444203330E0,5.067623931E0,7.523378240E0
8.316984250E0,8.417933051E-1,3.998600590E0,1.209546961E1,1.276705948E1
8.326950250E0,2.675175128E0,-1.213191998E0,2.306604953E1,2.325233403E1
8.336915250E0,3.516974792E0,-7.857093707E0,3.338412111E1,3.447611602E1
8.346881250E0,2.980643322E0,-1.174794619E1,3.706303016E1,3.899444420E1
8.356846250E0,2.485320129E0,-1.241838326E1,3.045179860E1,3.298037442E1
8.366812250E0,3.684075352E0,-1.197453866E1,2.077371646E1,2.425921027E1
8.376777250E0,6.877334252E0,-9.799742814E0,1.447628859E1,1.878551615E1
8.386743250E0,1.129154177E1,-6.211437546E0,1.160705753E1,1.734372095E1
8.396708250E0,1.429548800E1,-3.426868907E0,1.066293218E1,1.816046614E1
8.406674250E0,1.374932064E1,-2.593949994E0,9.815327983E0,1.709131528E1
8.416639250E0,1.210244417E1,-2.087786502E0,7.749048271E0,1.452156177E1
8.426604250E0,1.047849696E1,-9.808717413E-1,4.879152968E0,1.160030783E1
8.436570250E0,8.988229973E0,7.428060105E-1,2.277705674E0,9.302041817E0
8.446535250E0,7.625228802E0,2.278276509E0,1.606844097E-1,7.959929498E0
8.456501250E0,6.139892185E0,2.791725047E0,-1.400722144E0,6.888688359E0
8.466466250E0,5.028697847E0,2.565435170E0,-2.652290003E0,6.237299248E0
8.476432250E0,4.150806245E0,2.596592058E0,-3.473619735E0,6.003125591E0
8.486397250E0,3.792866015E0,2.737133102E0,-3.912918708E0,6.098250818E0
8.496363250E0,3.437652926E0,2.418036365E0,-4.246360858E0,5.974607773E0
8.506328250E0,2.875475301E0,2.196927852E0,-4.933035645E0,6.117980947E0
8.516294250E0,2.220343319E0,1.999265358E0,-5.660718125E0,6.400837141E0
8.526259250E0,1.422521441E0,1.666533937E0,-5.415099984E0,5.841593143E0
8.536225250E0,6.326972388E-1,1.173933500E0,-4.575823978E0,4.766192478E0
8.546190250E0,-5.254293367E-2,5.614539593E-1,-4.006151392E0,4.045644607E0
8.556156250E0,-7.983159676E-1,-8.077343702E-3,-3.775507970E0,3.858993918E0
8.566121250E0,-1.526689442E0,-4.180458791E-1,-3.422717384E0,3.771012768E0
8.576087250E0,-2.248649836E0,-9.483125442E-1,-2.739680734E0,3.669001675E0
8.586052250E0,-2.792767020E0,-1.290859686E0,-2.191905971E0,3.777607463E0
8.596018250E0,-2.687400194E0,-1.616579711E0,-1.394653904E0,3.432274651E0
8.605983250E0,-2.625241953E0,-1.969810594E0,-4.316139776E-1,3.310338308E0
8.615949250E0,-2.616081705E0,-2.218217418E0,-1.693938375E-2,3.429964860E0
8.625914250E0,-2.367002305E0,-2.210821128E0,-3.177622569E-1,3.254443551E0
8.635880250E0,-1.934211575E0,-1.880127754E0,-1.080580655E0,2.905806143E0
8.645845250E0,-1.504446487E0,-1.493869751E0,-1.467075763E0,2.578239198E0
8.655811250E0,-1.268418073E0,-1.416506264E0,-1.138152341E0,2.216024629E0
8.665776250E0,-1.193450482E0,-1.245582649E0,-4.011686951E-1,1.771083429E0
8.675742250E0,-1.512829056E0,-7.870304760E-1,-1.171752781E-1,1.709326993E0
8.685707250E0,-1.999677002E0,-4.815857443E-1,-4.445790088E-1,2.104348696E0
8.695672250E0,-2.196629644E0,-4.921693508E-1,-3.206730008E-1,2.273816975E0
8.705638250E0,-1.791854825E0,-7.610219876E-1,5.560661155E-1,2.024625324E0
8.715603250E0,-8.273982641E-1,-1.143463001E0,2.114192382E0,2.542027724E0
8.725569250E0,1.079203782E-1,-1.380857252E0,3.860709504E0,4.101644967E0
8.735534250E0,8.336692567E-1,-1.638267327E0,5.133172973E0,5.452374623E0
8.745500250E0,1.220581271E0,-1.786318681E0,5.524761590E0,5.933274281E0
8.755465250E0,1.599101507E0,-1.574038879E0,4.992467914E0,5.473523536E0
8.765431250E0,1.905997298E0,-1.188936359E0,3.900825496E0,4.501425876E0
8.775396250E0,2.195944204E0,-7.155117195E-1,2.841830422E0,3.661984178E0
8.785362250E0,2.366920152E0,-4.157678039E-1,1.953976334E0,3.097288715E0
8.795327250E0,2.399745543E0,-3.156001758E-1,1.167018875E0,2.687064420E0
8.805293250E0,2.202013175E0,-3.691024183E-1,5.586400598E-1,2.301559761E0
8.815258250E0,1.957244050E0,-4.657288264E-1,-7.244700193E-2,2.013195515E0
8.825224250E0,1.920828907E0,-4.838263974E-1,-6.636379266E-1,2.089039724E0
8.835189250E0,2.022420332E0,-4.059545680E-1,-1.232305377E0,2.402823267E0
8.845155250E0,2.001884180E0,-3.245725820E-1,-1.714870822E0,2.655874539E0
8.855120250E0,1.848924965E0,-3.571734405E-1,-1.863869571E0,2.649548296E0
8.865086250E0,1.798828360E0,-3.096684679E-1,-1.912805504E0,2.643955923E0
8.875051083E0,1.785538662E0,-1.413000859E-1,-2.105300521E0,2.764128129E0
8.885017083E0,1.733572556E0,2.633147389E-2,-2.253567199E0,2.843331193E0
8.894982083E0,1.551298034E0,7.929299511E-2,-2.209078658E0,2.700526150E0
8.904948083E0,1.253922679E0,6.454478234E-2,-1.719945620E0,2.129483752E0
8.914913083E0,9.443940327E-1,-9.124667734E-2,-9.077667814E-1,1.313105698E0
8.924879083E0,6.080671585E-1,-3.709273343E-1,-1.470896333E-1,7.273019433E-1
8.934844083E0,2.690031843E-1,-5.889946374E-1,3.224815446E-1,7.233752433E-1
8.944810083E0,1.165261823E-1,-6.410618269E-1,4.418746716E-1,7.872685962E-1
8.954775083E0,8.175282737E-2,-5.692450087E-1,5.174031562E-1,7.735822068E-1
8.964740083E0,3.375897266E-2,-4.705400616E-1,5.811027235E-1,7.484837961E-1
8.974706083E0,9.848269807E-2,-3.181720005E-1,4.986189759E-1,5.996275067E-1
8.984671083E0,3.242316163E-1,-6.329607289E-2,3.396957475E-1,4.738414658E-1
8.994637083E0,4.300318306E-1,1.516612789E-1,5.162378061E-1,6.887887857E-1
9.004602083E0,2.876747144E-1,1.855439567E-1,7.764441651E-1,8.485569178E-1
9.014568083E0,3.078295916E-2,2.009243997E-1,6.287680560E-1,6.608081970E-1
9.024533083E0,-2.163196434E-1,2.982121279E-1,4.707137239E-1,5.977424790E-1
9.034499083E0,-3.884217284E-1,3.870124033E-1,7.684188616E-1,9.439902469E-1
9.044464083E0,-3.630134568E-1,4.501318172E-1,1.354144979E0,1.472448996E0
9.054430083E0,-1.281835021E-1,3.901619329E-1,2.153597353E0,2.192404821E0
9.064395083E0,5.136075823E-1,2.960850935E-1,2.782692853E0,2.845142992E0
9.074361083E0,1.362770937E0,1.755446698E-1,3.270462320E0,3.547377108E0
9.084326083E0,1.902646259E0,2.391699044E-1,3.221055102E0,3.748661227E0
9.094292083E0,2.178969883E0,2.996560612E-1,2.324958778E0,3.200490091E0
9.104257083E0,2.218378655E0,3.890838160E-1,8.765356332E-1,2.416796389E0
9.114223083E0,1.836749015E0,5.714602263E-1,-5.822961402E-1,2.009796639E0
9.124188083E0,1.402347085E0,6.291526566E-1,-1.691074993E0,2.285201314E0
9.134154083E0,1.013966909E0,6.178589058E-1,-2.444779921E0,2.717871848E0
9.144119083E0,4.404133428E-1,5.140506551E-1,-2.871289864E0,2.950002961E0
9.154085083E0,-1.212919189E-1,2.438440224E-1,-2.948281322E0,2.960833395E0
9.164050083E0,-4.993492931E-1,5.703162186E-2,-2.990099439E0,3.032045016E0
9.174016083E0,-5.542608242E-1,1.089000061E-1,-3.034083949E0,3.086216079E0
9.183981083E0,-3.740050528E-1,2.400592659E-1,-3.014024491E0,3.046613179E0
9.193947083E0,-1.178573375E-1,4.022265295E-1,-3.087611116E0,3.115929867E0
9.203912083E0,2.731714634E-1,6.196800942E-1,-3.249914619E0,3.319724552E0
9.213878083E0,5.119550130E-1,8.077804901E-1,-3.274533151E0,3.411330329E0
9.223843083E0,3.620339751E-1,8.786832424E-1,-3.127519532E0,3.268720126E0
9.233808083E0,1.871863117E-1,8.389332126E-1,-3.013608754E0,3.133797277E0
9.243774083E0,7.748057753E-2,7.501838080E-1,-2.904317277E0,3.000639570E0
9.253739083E0,-1.279561961E-2,6.886047334E-1,-2.690554767E0,2.777305378E0
9.263705083E0,-2.954497022E-1,5.731247094E-1,-2.272009901E0,2.361734839E0
9.273670083E0,-5.613663607E-1,5.644024178E-1,-1.051462691E0,1.318808580E0
9.283636083E0,-1.121299057E0,6.153196793E-1,9.977992845E-1,1.622200140E0
9.293601083E0,-2.259786151E0,2.939306869E-1,3.470927092E0,4.152151680E0
9.303567083E0,-3.157197075E0,-4.122126967E-1,5.635994927E0,6.473194845E0
9.313532083E0,-2.942000243E0,-4.765181087E-1,6.591298403E0,7.233785286E0
9.323498083E0,-1.733595361E0,4.644061862E-1,6.743368109E0,6.978111452E0
9.333463083E0,-9.065731455E-1,2.231044309E0,6.980249925E0,7.383990967E0
9.343429083E0,-1.027469372E0,3.724771388E0,6.800668484E0,7.821681854E0
9.353394083E0,-1.890903734E0,4.055276189E0,7.452089238E0,8.692204319E0
9.363360083E0,-2.718656778E0,3.177222911E0,1.088368913E1,1.165935372E1
9.373325083E0,-3.395448016E0,1.354142201E0,1.621691815E1,1.662381432E1
9.383291083E0,-3.451450309E0,-1.015001647E0,2.013106068E1,2.044999613E1
9.393256083E0,-1.745833875E0,-2.667175845E0,2.155339121E1,2.178785064E1
9.403222083E0,1.087209717E-1,-2.735180717E0,1.950079632E1,1.969198037E1
9.413187083E0,1.285790881E0,-2.183741650E0,1.443594514E1,1.465668782E1
9.423153083E0,2.580531511E0,-2.063674485E0,9.997936528E0,1.052979725E1
9.433118083E0,2.707411413E0,-2.231981032E0,7.175142885E0,7.987145380E0
9.443084083E0,1.382313794E0,-2.830152948E0,5.218029521E0,6.094947843E0
9.453049083E0,-4.311286587E-1,-4.185104842E0,3.019168872E0,5.178451036E0
9.463015083E0,-1.436905738E0,-5.521795882E0,8.092815435E-1,5.762800055E0
9.472980083E0,-1.267706467E0,-5.899866321E0,-6.979072881E-1,6.074749120E0
9.482945083E0,-8.134792596E-1,-5.377511158E0,-2.048574927E0,5.811715237E0
9.492911083E0,-1.476700243E-1,-4.454819943E0,-3.782504164E0,5.845901548E0
9.502876083E0,1.389573404E0,-3.152573974E0,-5.729301871E0,6.685397283E0
9.512842083E0,2.811514948E0,-1.713513391E0,-7.715544895E0,8.388705351E0
9.522807083E0,3.515498663E0,-8.904999536E-1,-9.884881783E0,1.052913144E1
9.532773083E0,3.705988377E0,-3.618359372E-1,-1.202560357E1,1.258890052E1
9.542738083E0,3.389762476E0,3.783142680E-1,-1.383077703E1,1.424513969E1
9.552704083E0,3.254649695E0,8.778641206E-1,-1.480574177E1,1.518464288E1
9.562669083E0,3.275161435E0,9.542579931E-1,-1.494314315E1,1.532758357E1
9.572635083E0,2.999799677E0,6.978856534E-1,-1.444128365E1,1.476605959E1
9.582600083E0,2.458249275E0,2.374139124E-1,-1.333355320E1,1.356034645E1
9.592566083E0,1.820166458E0,-4.650354928E-1,-1.189070362E1,1.203819324E1
9.602531083E0,1.274358405E0,-1.223574314E0,-1.068016392E1,1.082529560E1
9.612497083E0,7.629963000E-1,-1.888025296E0,-9.959798648E0,1.016584438E1
9.622462083E0,4.955825533E-1,-2.468931845E0,-9.365678853E0,9.698307425E0
9.632428083E0,5.190565660E-1,-2.923229804E0,-8.807814134E0,9.294744861E0
9.642393083E0,9.385414814E-1,-3.167910928E0,-8.505993726E0,9.125154740E0
9.652359083E0,1.572615374E0,-3.162655158E0,-8.572630935E0,9.271758620E0
9.662324083E0,2.039249788E0,-2.954037614E0,-8.984187208E0,9.674735020E0
9.672290083E0,2.331777216E0,-2.672642992E0,-9.554305353E0,1.019141582E1
9.682255083E0,2.579488952E0,-2.432682324E0,-9.681289920E0,1.031014457E1
9.692221083E0,2.623829266E0,-2.426527545E0,-9.224494908E0,9.892614530E0
9.702186083E0,2.394176509E0,-2.731669756E0,-8.188629080E0,8.958110684E0
9.712152083E0,1.801928554E0,-3.144204562E0,-6.951709666E0,7.839594129E0
9.722117083E0,1.138719228E0,-3.534997373E0,-6.047222003E0,7.096603544E0
9.732083083E0,6.619670847E-1,-3.773769301E0,-5.218727093E0,6.474152271E0
9.742048083E0,3.013519365E-1,-3.714031807E0,-4.658139911E0,5.965158228E0
9.752013083E0,-9.298903797E-2,-3.046650785E0,-4.799649546E0,5.685715763E0
9.761979083E0,-3.860829153E-1,-1.750168416E0,-5.083759907E0,5.390432663E0
9.771944083E0,-5.507942293E-1,-1.385904130E-1,-5.316696022E0,5.346946622E0
9.781910083E0,-1.034667879E0,1.704626500E0,-5.163495464E0,5.535158040E0
9.791875083E0,-1.233726688E0,3.394103741E0,-3.971392034E0,5.367865165E0
9.801841083E0,-1.047448066E0,3.721439060E0,-1.120769738E0,4.025218122E0
9.811806083E0,-6.456650475E-1,2.182979904E0,4.007326097E0,4.608790195E0
9.821772083E0,-6.349441045E-1,-1.237338075E-1,1.032438658E1,1.034463253E1
9.831737083E0,-7.201509735E-1,-1.944159151E0,1.611529939E1,1.624811517E1
9.841703083E0,-2.118556451E0,-2.026579164E0,1.866702313E1,1.889584762E1
9.851668083E0,-4.020353986E0,2.554859018E-1,1.553757110E1,1.605131256E1
9.861634083E0,-4.060531375E0,2.177962992E0,9.188601190E0,1.027919402E1
9.871599083E0,-1.755975871E0,1.549757000E0,5.167194412E0,5.673190999E0
9.881565208E0,1.813755278E0,2.245550081E-1,6.513753798E0,6.765287999E0
9.891530208E0,3.444518435E0,-5.803446320E-1,1.048461081E1,1.105117962E1
9.901496208E0,2.755887170E0,-1.657027533E0,1.202747468E1,1.244993178E1
9.911461208E0,9.680506977E-1,-2.488895994E0,9.805311118E0,1.016247271E1
9.921427208E0,-9.803733393E-1,-1.743341646E0,5.513603348E0,5.865167846E0
9.931392208E0,-2.396427395E0,-1.755202577E-1,1.377972967E0,2.769924388E0
9.941358208E0,-2.938450106E0,1.129860843E0,-1.438130291E0,3.461111568E0
9.951323208E0,-2.517929758E0,1.892969994E0,-2.695938299E0,4.146249990E0
9.961289208E0,-1.544978509E0,2.170626052E0,-2.511397249E0,3.661378456E0
9.971254208E0,-4.763950248E-1,2.216045908E0,-1.649358033E0,2.803246976E0
9.981220208E0,5.128061483E-1,2.142777226E0,-7.589370167E-1,2.330332547E0
9.991185208E0,1.029884345E0,1.931550069E0,9.717546165E-2,2.191116269E0
1.000115121E1,1.248248541E0,1.646666706E0,1.243554835E0,2.411651776E0
1.001111621E1,1.353469625E0,1.281483091E0,2.364871872E0,3.011095799E0
1.002108121E1,1.225115567E0,8.984554560E-1,2.927547680E0,3.298282247E0
1.003104721E1,7.957855120E-1,6.596153346E-1,2.777466611E0,2.963559979E0
1.004101221E1,4.903722091E-1,6.231795797E-1,2.226380569E0,2.363384889E0
1.005097821E1,4.273996700E-1,7.217663399E-1,1.570115397E0,1.780134682E0
1.006094321E1,3.629368948E-1,9.145912861E-1,7.419181108E-1,1.232332298E0
1.007090921E1,2.749284786E-1,1.115417928E0,-3.735797775E-1,1.208016834E0
1.008087421E1,3.831483074E-2,1.346150081E0,-1.689075830E0,2.160223420E0
1.009084021E1,-4.099604224E-1,1.528156801E0,-2.824609787E0,3.237553275E0
1.010080521E1,-9.574049646E-1,1.481474239E0,-3.556135642E0,3.969570618E0
1.011077121E1,-1.510825507E0,1.235243456E0,-3.786973776E0,4.260233619E0
1.012073621E1,-1.985313024E0,1.048260171E0,-3.385417410E0,4.062187616E0
1.013070221E1,-2.119487474E0,7.741783690E-1,-2.493748598E0,3.363088070E0
1.014066721E1,-1.991652283E0,4.555235347E-1,-1.227415350E0,2.383427983E0
1.015063321E1,-2.016398869E0,6.433793709E-2,-3.811565995E-2,2.017785066E0
1.016059821E1,-1.965122442E0,-3.772146260E-1,1.032556888E0,2.251703980E0
1.017056421E1,-1.519660065E0,-7.336722212E-1,2.104404727E0,2.697435986E0
1.018052921E1,-8.464208646E-1,-1.078842644E0,3.179998877E0,3.463051052E0
1.019049521E1,-2.497644013E-1,-1.199060520E0,4.096694942E0,4.275866910E0
1.020046021E1,2.182931518E-1,-1.178136844E0,4.333815324E0,4.496400069E0
1.021042621E1,4.330900341E-1,-1.241115376E0,4.032807094E0,4.241634993E0
1.022039121E1,3.318264916E-1,-1.351289491E0,3.567880359E0,3.829603422E0
1.023035721E1,1.125945693E-1,-1.403017761E0,2.913241882E0,3.235446590E0
1.024032221E1,-5.618216760E-2,-1.414429918E0,2.253365470E0,2.661094581E0
1.025028821E1,-1.422861457E-2,-1.401775520E0,1.787040666E0,2.271275281E0
1.026025321E1,1.525330257E-2,-1.254961144E0,1.309516690E0,1.813834088E0
1.027021821E1,1.427398896E-1,-9.991763768E-1,6.389463043E-1,1.194562886E0
1.028018421E1,4.771192390E-1,-6.178832448E-1,6.041752517E-2,7.829896231E-1
1.029014921E1,8.632776564E-1,-2.432360581E-1,-3.272867864E-1,9.547401388E-1
1.030011521E1,1.262670844E0,6.574784696E-2,-5.819008684E-1,1.391858133E0
1.031008021E1,1.502854875E0,3.503242314E-1,-7.043520892E-1,1.696293521E0
1.032004621E1,1.620604496E0,5.581222158E-1,-9.680205846E-1,1.968482459E0
1.033001121E1,1.552945633E0,6.116159798E-1,-1.305098534E0,2.118725189E0
1.033997721E1,1.352344036E0,5.809755465E-1,-1.581424497E0,2.160386636E0
1.034994221E1,1.225597451E0,6.684762783E-1,-1.753458937E0,2.241331722E0
1.035990821E1,1.217468286E0,6.882731232E-1,-1.763645956E0,2.250865606E0
1.036987321E1,1.155292284E0,6.045879190E-1,-1.701475435E0,2.143652367E0
1.037983921E1,1.061993672E0,5.343212707E-1,-1.675187523E0,2.054162364E0
1.038980421E1,9.944744115E-1,5.235314767E-1,-1.473004839E0,1.852783803E0
1.039977021E1,8.616753732E-1,4.630718516E-1,-1.114295116E0,1.482758778E0
1.040973521E1,6.054033497E-1,2.925332024E-1,-9.668207359E-1,1.177637986E0
1.041970121E1,4.314982758E-1,1.584987936E-1,-8.980288285E-1,1.008845085E0
1.042966621E1,4.948826051E-1,1.640771835E-1,-6.615481317E-1,8.423040102E-1
1.043963221E1,6.867119897E-1,2.158171483E-1,-3.811840814E-1,8.145254461E-1
1.044959721E1,7.413018874E-1,3.128779314E-1,-4.611827624E-1,9.274214946E-1
1.045956321E1,7.643114850E-1,3.976078869E-1,-5.174411631E-1,1.004992256E0
1.046952821E1,8.162254775E-1,3.776001768E-1,-8.843387425E-2,9.036738758E-1
1.047949421E1,7.370153667E-1,2.887188444E-1,4.421880823E-1,9.066865622E-1
1.048945921E1,6.189616176E-1,1.643184543E-1,7.163915062E-1,9.609010504E-1
1.049942521E1,4.897114006E-1,1.426556897E-1,8.130740476E-1,9.598214983E-1
1.050939021E1,3.800532299E-1,9.115377970E-2,8.034968930E-1,8.935081008E-1
1.051935621E1,3.296648490E-1,1.494526394E-2,8.116192603E-1,8.761438793E-1
1.052932121E1,2.739012690E-1,-3.461113125E-2,6.832787240E-1,7.369461650E-1
1.053928621E1,2.437112906E-1,1.535946608E-2,3.297063643E-1,4.102894015E-1
1.054925221E1,2.834275527E-1,1.225897998E-1,-1.299169457E-1,3.350191777E-1
1.055921721E1,3.463171345E-1,2.240498087E-1,-4.679205090E-1,6.237655626E-1
1.056918321E1,4.139394526E-1,2.374744311E-1,-4.797576123E-1,6.766885121E-1
1.057914821E1,3.552423976E-1,2.347242663E-1,-4.727526480E-1,6.362292892E-1
1.058911421E1,3.062946244E-1,2.422209084E-1,-5.728593189E-1,6.932929861E-1
1.059907921E1,3.338268971E-1,2.316049960E-1,-7.350651741E-1,8.398821832E-1
1.060904521E1,3.272999427E-1,1.968216643E-1,-7.323497272E-1,8.259540804E-1
1.061901021E1,3.785268143E-1,1.936445796E-1,-5.762477803E-1,7.161300697E-1
1.062897621E1,4.691520788E-1,2.155250068E-1,-5.169020498E-1,7.305767794E-1
1.063894121E1,5.399605447E-1,1.923785113E-1,-4.383061159E-1,7.215809952E-1
1.064890721E1,5.686867458E-1,1.455117622E-1,-3.219482785E-1,6.694990529E-1
1.065887221E1,5.082392536E-1,9.262333117E-2,-2.621517277E-1,5.793183483E-1
1.066883821E1,3.834091663E-1,7.354978681E-2,-4.300130099E-1,5.807954447E-1
1.067880321E1,3.741816022E-1,1.281569338E-1,-7.831561840E-1,8.773651917E-1
1.068876921E1,5.998657442E-1,3.102238803E-1,-1.127222140E0,1.314042435E0
1.069873421E1,8.248810378E-1,6.483906540E-1,-1.551510141E0,1.872971672E0
1.070870021E1,8.619061189E-1,8.392743246E-1,-2.162654105E0,2.474739648E0
1.071866521E1,7.552901083E-1,8.661373103E-1,-2.504558346E0,2.755625064E0
1.072863121E1,4.281348842E-1,8.651515429E-1,-2.708127404E0,2.875020123E0
1.073859621E1,1.652643510E-1,7.900862309E-1,-2.901674920E0,3.011854230E0
1.074856221E1,2.742176034E-2,7.445014107E-1,-2.836224112E0,2.932439516E0
1.075852721E1,-2.688074671E-2,6.937839778E-1,-2.667937737E0,2.756800782E0
1.076849321E1,-9.952395927E-2,6.604528751E-1,-2.464311376E0,2.553220236E0
1.077845821E1,3.351075836E-3,6.075118557E-1,-2.549928061E0,2.621300250E0
1.078842421E1,1.475962946E-1,6.477994274E-1,-2.978678657E0,3.051877342E0
1.079838921E1,1.258552870E-1,6.939064769E-1,-3.868554713E0,3.932309922E0
1.080835421E1,4.357442314E-1,8.356080472E-1,-4.895400041E0,4.985283884E0
1.081832021E1,9.789854296E-1,8.899741428E-1,-5.387138014E0,5.547226553E0
1.082828521E1,1.504631259E0,4.533415000E-1,-5.194710824E0,5.427195804E0
1.083825121E1,1.869035878E0,-3.438405829E-1,-4.849618097E0,5.208677102E0
1.084821621E1,1.523627401E0,-7.964571378E-1,-4.870385068E0,5.164923537E0
1.085818221E1,1.199702983E0,-1.219360591E0,-5.160439124E0,5.436566881E0
1.086814721E1,1.117739638E0,-1.169273415E0,-5.542485670E0,5.773706748E0
1.087811308E1,9.529371071E-1,-8.108362450E-1,-6.249744410E0,6.373762604E0
1.088807808E1,4.920775495E-1,-1.077639433E0,-6.919896719E0,7.020571036E0
1.089804408E1,2.871959370E-1,-1.521107251E0,-7.562827317E0,7.719624719E0
1.090800908E1,7.979992678E-1,-1.340180512E0,-8.143491499E0,8.291522202E0
1.091797508E1,1.144882267E0,-8.228679876E-1,-8.330546851E0,8.449016391E0
1.092794008E1,1.082491525E0,-4.780720793E-1,-8.477096202E0,8.559293244E0
1.093790608E1,8.113347933E-1,-2.061457074E-1,-8.225189965E0,8.267678644E0
1.094787108E1,1.165609641E-1,2.783313388E-1,-7.816076658E0,7.821899330E0
1.095783708E1,-8.766887572E-1,6.257067463E-1,-7.418612174E0,7.496392379E0
1.096780208E1,-2.340759270E0,9.303571337E-1,-6.843133303E0,7.291995047E0
1.097776808E1,-4.307734695E0,1.266068077E0,-6.297510899E0,7.734219425E0
1.098773308E1,-6.399800336E0,1.806275082E0,-5.182252747E0,8.430647516E0
1.099769908E1,-7.144529203E0,2.529395856E0,-3.314873092E0,8.272274448E0
1.100766408E1,-6.741444376E0,2.858787348E0,-2.669598931E-1,7.327414616E0
1.101763008E1,-5.434363636E0,2.651338661E0,5.776464928E0,8.362383146E0
1.102759508E1,-2.393671017E0,2.759691076E0,1.441756033E1,1.487318397E1
1.103756108E1,-1.615905089E0,6.995060630E-1,2.392863312E1,2.399333118E1
1.104752608E1,-2.930352005E0,-1.711203887E0,3.142527112E1,3.160795544E1
1.105749208E1,-4.380470842E0,-1.538779145E0,3.538467344E1,3.568797389E1
1.106745708E1,-3.736421088E0,4.425114334E-1,3.665332277E1,3.684593233E1
1.107742208E1,-1.874169880E0,3.607058166E0,3.739137237E1,3.761167517E1
1.108738808E1,2.137764116E0,7.347067983E0,3.844206790E1,3.919619915E1
1.109735308E1,5.303104169E0,9.289758021E0,4.252701930E1,4.385168056E1
1.110731908E1,6.117705510E0,8.376749210E0,5.016548970E1,5.122667865E1
1.111728408E1,7.145958847E0,5.409266801E0,6.026159163E1,6.092441481E1
1.112725008E1,7.097950868E0,5.710409079E-1,6.913032088E1,6.949610248E1
1.113721508E1,5.574182841E0,-3.639660486E0,7.365739896E1,7.395763020E1
1.114718108E1,3.780937110E0,-9.724406703E0,7.661199703E1,7.731919335E1
1.115714608E1,-1.182538116E0,-1.807356349E1,7.052210322E1,7.281084491E1
1.116711208E1,-1.107870546E1,-2.662642382E1,5.049727007E1,5.815220069E1
1.117707708E1,-1.941741971E1,-3.291738700E1,2.686126203E1,4.671314540E1
1.118704308E1,-2.249329604E1,-3.747476068E1,5.516576657E0,4.405381564E1
1.119700808E1,-2.231029691E1,-3.967605260E1,-1.186531267E1,4.703960186E1
1.120697408E1,-2.224059809E1,-3.844241874E1,-2.138223151E1,4.929161781E1
1.121693908E1,-2.338943564E1,-3.693465805E1,-2.730895059E1,5.154622631E1
1.122690508E1,-2.061786711E1,-3.544721994E1,-2.552266129E1,4.830122240E1
1.123687008E1,-1.207996045E1,-3.134726693E1,-1.617689279E1,3.728630377E1
1.124683608E1,-4.226887291E0,-2.513416527E1,-1.051319083E1,2.757027423E1
1.125680108E1,1.463209876E0,-2.098328067E1,-8.019403642E0,2.251110583E1
1.126676708E1,7.606815920E0,-1.717812205E1,-5.660939734E0,1.962135990E1
1.127673208E1,1.156521603E1,-1.691719005E1,-7.106366765E0,2.168976693E1
1.128669808E1,1.076724767E1,-1.917661148E1,-1.002399640E1,2.416933086E1
1.129666308E1,6.045795867E0,-2.245134344E1,-1.123353623E1,2.582260262E1
1.130662908E1,2.912163363E0,-2.300670731E1,-1.624607354E1,2.831473436E1
1.131659408E1,4.118587502E0,-1.885846214E1,-2.216494682E1,2.939199253E1
1.132655908E1,5.663368083E0,-1.481165798E1,-2.788049019E1,3.207461120E1
1.133652508E1,5.083282775E0,-1.198192253E1,-3.159034504E1,3.416659379E1
1.134649008E1,3.877582814E0,-9.036504001E0,-3.228815877E1,3.375232214E1
1.135645608E1,4.377805681E0,-5.455522955E0,-3.058838254E1,3.137797093E1
1.136642108E1,5.779645228E0,-3.254610518E0,-2.666781275E1,2.748033889E1
1.137638708E1,5.403207332E0,-3.391024890E0,-2.123820056E1,2.217554649E1
1.138635208E1,3.478979293E0,-4.611173905E0,-1.522850014E1,1.628721702E1
1.139631808E1,1.742878985E0,-6.669231847E0,-8.947512302E0,1.129487747E1
1.140628308E1,5.732143910E-1,-8.147389838E0,-4.196649585E0,9.182614205E0
1.141624908E1,-1.723116712E-1,-9.449730824E0,-2.603813662E0,9.803415198E0
1.142621408E1,-1.295230444E-1,-1.063356863E1,-3.311447209E0,1.113800883E1
1.143618008E1,9.314736960E-2,-1.052660434E1,-4.312956551E0,1.137627662E1
1.144614508E1,1.416003404E0,-9.599359903E0,-5.053426307E0,1.094028764E1
1.145611108E1,3.763550122E0,-8.100124454E0,-6.015410811E0,1.076854182E1
1.146607608E1,5.391302986E0,-7.127569939E0,-8.020701140E0,1.200833244E1
1.147604208E1,6.353048923E0,-6.912131032E0,-9.721463215E0,1.351464513E1
1.148600708E1,6.879853817E0,-6.678614289E0,-1.069402299E1,1.436309177E1
1.149597308E1,7.362551410E0,-6.023230877E0,-1.110319594E1,1.462078772E1
1.150593808E1,8.152359386E0,-5.315395017E0,-1.094864234E1,1.464879370E1
1.151590408E1,9.020704240E0,-4.446698745E0,-1.055875935E1,1.458196262E1
1.152586908E1,9.296768247E0,-3.555395969E0,-9.998752799E0,1.410835915E1
1.153583508E1,8.878849618E0,-2.962877434E0,-9.859299045E0,1.359479279E1
1.154580008E1,8.028158094E0,-2.668498485E0,-1.029574341E1,1.332570969E1
1.155576608E1,6.764823883E0,-2.523230844E0,-1.086008392E1,1.304112567E1
1.156573108E1,5.556255863E0,-2.215130088E0,-1.132490950E1,1.280751169E1
1.157569708E1,3.978927341E0,-2.168138793E0,-1.118482775E1,1.206785235E1
1.158566208E1,1.933461378E0,-2.555370650E0,-1.016546160E1,1.065855532E1
1.159562808E1,-5.595810961E-2,-3.078257909E0,-8.787620190E0,9.311341025E0
1.160559308E1,-2.039472421E0,-3.409327844E0,-6.445734892E0,7.571688214E0
1.161555808E1,-4.053472908E0,-3.601517052E0,-3.348061888E0,6.372682802E0
1.162552408E1,-4.786653525E0,-3.341063941E0,-6.253316474E-1,5.870758034E0
1.163548908E1,-3.632050043E0,-2.129324537E0,8.968213785E-1,4.304660159E0
1.164545508E1,-1.862117453E0,-6.797044672E-2,7.749817765E-1,2.018092700E0
1.165542008E1,-1.794038321E0,1.406426249E0,-1.567921522E0,2.766764571E0
1.166538608E1,-2.664432039E0,1.737683003E0,-4.310046392E0,5.356793837E0
1.167535108E1,-3.393756417E0,2.093928271E0,-5.324388034E0,6.652159511E0
1.168531708E1,-3.740692187E0,2.163392316E0,-4.724739697E0,6.402828246E0
1.169528208E1,-4.041067163E0,1.942905216E0,-3.596190823E0,5.747842459E0
1.170524808E1,-4.866821190E0,1.479582372E0,-2.854048179E0,5.832726935E0
1.171521308E1,-6.118041140E0,1.050274464E0,-2.696751062E0,6.768010795E0
1.172517908E1,-7.182231465E0,9.064725734E-1,-3.110018231E0,7.878981834E0
1.173514408E1,-7.523127646E0,9.221253504E-1,-3.919086936E0,8.532702218E0
1.174511008E1,-7.416597809E0,1.287025082E0,-4.938301647E0,9.002731795E0
1.175507508E1,-6.160046952E0,1.904278655E0,-5.795663091E0,8.669611659E0
1.176504108E1,-4.721364099E0,2.641290514E0,-6.389555429E0,8.372222711E0
1.177500608E1,-3.924283064E0,3.003900914E0,-6.961049423E0,8.536956562E0
1.178497208E1,-3.399935754E0,2.744914577E0,-6.553488552E0,7.876695460E0
1.179493708E1,-3.305236588E0,1.926569411E0,-4.424792737E0,5.849363159E0
1.180490308E1,-3.657081973E0,8.746067829E-1,-1.423450271E0,4.020621377E0
1.181486808E1,-4.886002981E0,7.564066342E-1,2.110370641E0,5.375764166E0
1.182483408E1,-5.795922707E0,2.484162380E0,5.538609551E0,8.392852823E0
1.183479908E1,-5.307648041E0,5.628841444E0,7.145619124E0,1.053161224E1
1.184476508E1,-1.971774966E0,9.588155469E0,7.325226878E0,1.222618381E1
1.185473008E1,2.583409803E0,9.013431473E0,1.178709681E1,1.506159368E1
1.186469508E1,1.649189048E0,2.040901919E0,2.214966220E1,2.230454305E1
1.187466108E1,-1.400283457E0,-7.692429097E0,3.263081730E1,3.355450040E1
1.188462650E1,-2.443168721E0,-1.702279077E1,4.203131574E1,4.541338990E1
1.189459250E1,-3.609102645E0,-2.139383941E1,4.751816983E1,5.223694527E1
1.190455750E1,-3.231270772E0,-1.891054446E1,4.363318620E1,4.766450189E1
1.191452350E1,1.811853618E0,-1.474078505E1,3.349874525E1,3.664340992E1
1.192448850E1,7.428514434E0,-1.136801049E1,2.335739523E1,2.701818649E1
1.193445450E1,1.017938849E1,-7.776494517E0,1.750241214E1,2.168935794E1
1.194441950E1,1.108197990E1,-4.591111524E0,1.457987202E1,1.888018145E1
1.195438550E1,1.111716494E1,-1.834257809E0,1.217165766E1,1.658629278E1
1.196435050E1,1.057601332E1,1.621277218E-1,1.005705422E1,1.459529659E1
1.197431650E1,9.201736375E0,1.187841175E0,8.639135411E0,1.267744373E1
1.198428150E1,7.712088606E0,1.945907468E0,7.035671005E0,1.061901752E1
1.199424750E1,6.299739858E0,2.332958354E0,4.581279430E0,8.131269162E0
1.200421250E1,4.603395062E0,2.313950810E0,9.294172668E-1,5.235401694E0
1.201417850E1,3.377875964E0,2.213991343E0,-2.790811127E0,4.909218923E0
1.202414350E1,3.554638170E0,2.592790783E0,-5.152552400E0,6.775456649E0
1.203410950E1,4.038932052E0,3.003470267E0,-6.424869688E0,8.161663818E0
1.204407450E1,3.999780850E0,3.189535393E0,-7.042096510E0,8.704166022E0
1.205404050E1,2.699592224E0,3.057922170E0,-8.182715791E0,9.143058782E0
1.206400550E1,8.549127759E-1,2.287986541E0,-9.656736292E0,9.960839025E0
1.207397150E1,-4.945063733E-1,1.637098761E0,-1.024651570E1,1.038824879E1
1.208393650E1,-1.285411836E0,1.185345803E0,-9.584046630E0,9.742241943E0
1.209390250E1,-1.852804300E0,4.896807759E-1,-7.911169342E0,8.139979815E0
1.210386750E1,-1.980539942E0,-8.624986611E-2,-6.316170534E0,6.619968861E0
1.211383350E1,-1.456305192E0,-4.106475798E-1,-5.191503042E0,5.407509601E0
1.212379850E1,-6.898995993E-1,-5.553223131E-1,-4.294889240E0,4.385250040E0
1.213376350E1,-8.740032407E-2,-4.720629324E-1,-3.944984254E0,3.974088951E0
1.214372950E1,2.325878399E-1,-2.238680699E-1,-4.317058958E0,4.329112156E0
1.215369450E1,3.793773649E-1,-5.538700109E-2,-4.971303332E0,4.986065756E0
1.216366050E1,4.756954055E-1,5.330352852E-2,-5.515648704E0,5.536380407E0
1.217362550E1,4.231987744E-1,-2.958279988E-2,-5.512987636E0,5.529286122E0
1.218359150E1,2.316579864E-1,-4.625418746E-1,-4.642040187E0,4.670775900E0
1.219355650E1,2.730947187E-1,-9.782182749E-1,-3.136458755E0,3.296796209E0
1.220352250E1,5.294060646E-1,-1.166471210E0,-1.676791415E0,2.110107891E0
1.221348750E1,7.206146577E-1,-1.166026164E0,-6.178846335E-1,1.503557089E0
1.222345350E1,7.722846021E-1,-1.207598040E0,6.743009090E-3,1.433444104E0
1.223341850E1,7.779753316E-1,-1.119836449E0,2.303995925E-1,1.382882230E0
1.224338450E1,7.267091375E-1,-9.251164936E-1,3.868512028E-1,1.238386269E0
1.225334950E1,7.972484122E-1,-7.875481738E-1,5.879960060E-1,1.265534061E0
1.226331550E1,5.336925488E-1,-6.505109274E-1,3.416954952E-1,9.081563824E-1
1.227328050E1,4.358994750E-1,-5.128953914E-1,4.951714575E-2,6.749236865E-1
1.228324650E1,3.330420181E-1,-4.411479358E-1,8.834558129E-3,5.528169104E-1
1.229321150E1,-4.403720833E-3,-6.606134543E-1,5.405411732E-1,8.535890631E-1
1.230317750E1,-2.231022857E-1,-8.745698724E-1,1.076422700E0,1.404753687E0
1.231314250E1,-1.932140601E-1,-8.192057303E-1,1.090753641E0,1.377742068E0
1.232310850E1,-2.030678062E-1,-8.066413794E-1,1.085053191E0,1.367204182E0
1.233307350E1,1.695478750E-2,-8.120280538E-1,1.237319364E0,1.480079806E0
1.234303950E1,4.545130993E-1,-7.285517413E-1,1.458883229E0,1.692840829E0
1.235300450E1,6.692402901E-1,-6.711206815E-1,1.410463021E0,1.699320884E0
1.236297050E1,6.687478083E-1,-7.099148378E-1,1.394246353E0,1.701506862E0
1.237293550E1,6.562625411E-1,-6.223418199E-1,1.467271644E0,1.723622912E0
1.238290150E1,5.259866495E-1,-6.152186687E-1,1.454230599E0,1.664314454E0
1.239286650E1,1.804533890E-1,-7.250814919E-1,1.175064059E0,1.392509296E0
1.240283150E1,-1.630471417E-1,-7.575404093E-1,1.079902963E0,1.329150951E0
1.241279750E1,-2.362110488E-1,-6.675532222E-1,9.780163997E-1,1.207451466E0
1.242276250E1,-5.612649115E-2,-4.782760010E-1,7.015734923E-1,8.509427015E-1
1.243272850E1,3.151166841E-1,-1.809287129E-1,2.043227649E-1,4.168711024E-1
1.244269350E1,6.267902353E-1,1.872069414E-1,-4.584006572E-1,7.987763144E-1
1.245265950E1,9.317575418E-1,5.474757517E-1,-1.181287835E0,1.601044273E0
1.246262450E1,1.098009890E0,7.792723171E-1,-1.719851480E0,2.184211568E0
1.247259050E1,1.122919467E0,9.152360878E-1,-2.121431819E0,2.568867102E0
1.248255550E1,1.056805803E0,9.402464564E-1,-2.295869465E0,2.696649496E0
1.249252150E1,8.156605634E-1,9.463808434E-1,-2.187925186E0,2.519514929E0
1.250248650E1,5.698565178E-1,8.323297327E-1,-2.039512913E0,2.275329021E0
1.251245250E1,4.278560451E-1,6.565391144E-1,-1.729865422E0,1.899088935E0
1.252241750E1,4.133625882E-1,4.783141541E-1,-1.274583669E0,1.422749658E0
1.253238350E1,3.561259849E-1,4.712499136E-1,-1.031580988E0,1.188722648E0
1.254234850E1,3.194937636E-1,4.255254181E-1,-9.561068827E-1,1.094206798E0
1.255231450E1,2.387736459E-1,2.914315870E-1,-7.180591321E-1,8.108971211E-1
1.256227950E1,6.586090836E-2,2.518128271E-1,-7.057127362E-1,7.521820426E-1
1.257224550E1,1.574908250E-1,4.272654033E-1,-1.163707012E0,1.249629183E0
1.258221050E1,1.749788786E-1,5.991521280E-1,-1.668390720E0,1.781327728E0
1.259217650E1,7.247760389E-2,5.888298921E-1,-1.992476740E0,2.078926936E0
1.260214150E1,-4.378016839E-2,5.558633633E-1,-2.244017526E0,2.312253325E0
1.261210750E1,-5.581795002E-2,4.673115215E-1,-2.206828650E0,2.256454828E0
1.262207250E1,-6.990448639E-2,2.287379600E-1,-1.505070970E0,1.523957452E0
1.263203850E1,-2.819800562E-1,-2.131225321E-1,-2.985746187E-1,4.626886304E-1
1.264200350E1,-6.205834890E-1,-6.542217167E-1,5.832369572E-1,1.073915858E0
1.265196950E1,-7.935059018E-1,-8.441665437E-1,1.047465534E0,1.561874776E0
1.266193450E1,-7.413905458E-1,-7.836561209E-1,1.451276586E0,1.808308764E0
1.267189950E1,-7.631380219E-1,-5.851144981E-1,1.357118288E0,1.663282497E0
1.268186550E1,-6.804385120E-1,-3.750293022E-1,5.725745595E-1,9.651347949E-1
1.269183050E1,-4.707420829E-1,-1.109790567E-1,-2.092484593E-1,5.269718943E-1
1.270179650E1,-7.452614391E-2,6.478780724E-2,-4.469751978E-1,4.577536822E-1
1.271176150E1,1.886692204E-1,-5.000685006E-2,2.277642524E-1,2.999555208E-1
1.272172750E1,-9.085376272E-2,-6.113872806E-1,1.181556807E0,1.333463648E0
1.273169250E1,-5.656061402E-1,-1.358650258E0,2.242453396E0,2.682244967E0
1.274165850E1,-7.433134027E-1,-1.876242864E0,3.206946355E0,3.789103723E0
1.275162350E1,-1.073455458E0,-2.116862951E0,3.850140077E0,4.522940856E0
1.276158950E1,-1.548835917E0,-2.216608118E0,3.913695803E0,4.757022081E0
1.277155450E1,-1.851977504E0,-2.014714433E0,3.049158071E0,4.097103838E0
1.278152050E1,-1.742363991E0,-1.361451367E0,1.520175498E0,2.683340389E0
1.279148550E1,-1.322531130E0,-5.749280638E-1,9.987278223E-2,1.445546762E0
1.280145150E1,-8.223899777E-1,3.413575262E-2,-1.101266935E0,1.374874317E0
1.281141650E1,-3.906559495E-1,5.429498606E-1,-2.019161679E0,2.127068524E0
1.282138250E1,-3.527520684E-1,8.203701302E-1,-2.478493212E0,2.634458156E0
1.283134750E1,-5.664360794E-1,7.917542222E-1,-2.519950556E0,2.701458011E0
1.284131350E1,-6.889735465E-1,6.620452912E-1,-2.387935629E0,2.572007987E0
1.285127850E1,-6.565068816E-1,5.896107877E-1,-2.081714607E0,2.261012577E0
1.286124450E1,-5.339705474E-1,5.036901198E-1,-1.791626637E0,1.936170005E0
1.287120950E1,-3.697932303E-1,3.832773115E-1,-1.595578267E0,1.682117278E0
1.288117533E1,-3.673396289E-1,2.504656287E-1,-1.457948259E0,1.524232450E0
1.289114033E1,-3.050545031E-1,6.388887092E-2,-1.374956973E0,1.409839252E0
1.290110633E1,-5.335894916E-2,-4.888857007E-3,-1.333290884E0,1.334367138E0
1.291107133E1,4.390313533E-1,4.465050817E-2,-1.101212556E0,1.186343664E0
1.292103733E1,1.175925061E0,9.048792802E-2,-1.226183926E0,1.701327375E0
1.293100233E1,1.798537607E0,1.064697571E-1,-1.933801101E0,2.643039922E0
1.294096733E1,1.934053847E0,2.515165195E-1,-2.647088320E0,3.287993524E0
1.295093333E1,1.649393993E0,1.848747063E-1,-3.034258781E0,3.458526500E0
1.296089833E1,1.067667299E0,-2.846500593E-1,-2.834077599E0,3.041863730E0
1.297086433E1,2.292749171E-1,-9.482534143E-1,-2.362777984E0,2.556261201E0
1.298082933E1,-4.468504694E-1,-1.277739558E0,-1.745264649E0,2.208674357E0
1.299079533E1,-8.109569900E-1,-1.304139298E0,-1.101457554E0,1.889878116E0
1.300076033E1,-1.234592807E0,-1.343529359E0,-7.141298032E-1,1.959406010E0
1.301072633E1,-1.728803421E0,-1.156569462E0,-9.690964723E-1,2.294681277E0
1.302069133E1,-2.046912125E0,-7.039464386E-1,-1.608205914E0,2.696611967E0
1.303065733E1,-2.323146872E0,-2.083361475E-1,-2.517498819E0,3.431940507E0
1.304062233E1,-2.665986229E0,3.070905036E-1,-3.499998863E0,4.410417122E0
1.305058833E1,-2.578450195E0,1.082808444E0,-4.016479914E0,4.894179240E0
1.306055333E1,-2.573083620E0,1.780613406E0,-3.697482725E0,4.843833391E0
1.307051933E1,-2.888265208E0,1.998605792E0,-2.249784635E0,4.171094812E0
1.308048433E1,-3.462628431E0,2.000883282E0,1.458839375E-1,4.001826044E0
1.309045033E1,-5.135959756E0,1.616288082E0,3.355373247E0,6.344209911E0
1.310041533E1,-7.138124163E0,9.367310373E-1,6.017833312E0,9.383208373E0
1.311038133E1,-8.086647207E0,4.825099698E-1,6.927650127E0,1.065922207E1
1.312034633E1,-8.046169857E0,7.542249649E-1,6.860734007E0,1.060091391E1
1.313031233E1,-7.641644275E0,1.086205092E0,6.352396958E0,9.996375135E0
1.314027733E1,-6.334888641E0,1.593588459E0,6.357324992E0,9.115147795E0
1.315024333E1,-5.707838497E0,1.894990499E0,7.930078068E0,9.952715582E0
1.316020833E1,-6.611960708E0,1.370294696E0,9.259472367E0,1.146008554E1
1.317017333E1,-7.402189100E0,-2.376286514E-2,1.256689435E1,1.458491693E1
1.318013933E1,-7.000132213E0,-3.122999049E0,1.878190221E1,2.028582817E1
1.319010433E1,-4.972314316E0,-5.487875599E0,2.406482413E1,2.517849179E1
1.320007033E1,-2.853282194E0,-6.741502848E0,2.624439481E1,2.724623532E1
1.321003533E1,-2.269788690E0,-8.274217699E0,2.614732635E1,2.751903513E1
1.322000133E1,-1.416222674E0,-8.610175322E0,2.297865003E1,2.457964936E1
1.322996633E1,-2.835711019E-1,-6.962331133E0,1.812739179E1,1.942052523E1
1.323993233E1,1.246290162E-2,-5.313068994E0,1.316045223E1,1.419247548E1
1.324989733E1,-8.380029937E-1,-4.691112360E0,7.591006218E0,8.962820962E0
1.325986333E1,-2.733651159E-1,-3.740740719E0,3.100514166E0,4.866318702E0
1.326982833E1,2.223095604E0,-1.812022602E0,1.467794970E0,3.221801057E0
1.327979433E1,4.824827949E0,5.919553019E-1,9.757155204E-1,4.957962948E0
1.328975933E1,6.053026534E0,2.495674379E0,-7.203249282E-1,6.586834507E0
1.329972533E1,6.117542372E0,3.619132374E0,-2.786553184E0,7.634613446E0
1.330969033E1,5.509422589E0,3.780653813E0,-4.361280280E0,7.979213382E0
1.331965633E1,5.144300224E0,3.623131577E0,-5.518482850E0,8.369262822E0
1.332962133E1,5.117838065E0,3.342128718E0,-6.903040951E0,9.220307218E0
1.333958733E1,4.695518237E0,2.387427360E0,-8.818533250E0,1.027201195E1
1.334955233E1,3.909118895E0,1.296498595E0,-1.069367801E1,1.145935724E1
1.335951833E1,3.234021010E0,2.714245346E-1,-1.207468276E1,1.250322066E1
1.336948333E1,2.948116723E0,-1.082060293E0,-1.319084957E1,1.355952650E1
1.337944933E1,2.823677157E0,-2.309245848E0,-1.389218683E1,1.436309939E1
1.338941433E1,2.441236070E0,-3.171002059E0,-1.406164850E1,1.462001525E1
1.339938033E1,1.747814766E0,-3.943781189E0,-1.414546015E1,1.478858713E1
1.340934533E1,1.182994272E0,-4.531332807E0,-1.386316827E1,1.463283591E1
1.341931133E1,1.089702604E0,-5.041022608E0,-1.301820351E1,1.400260630E1
1.342927633E1,1.353431180E0,-5.449035469E0,-1.171245242E1,1.298866064E1
1.343924233E1,1.840604085E0,-5.733965610E0,-1.034583300E1,1.197089994E1
1.344920733E1,1.913773510E0,-5.978578030E0,-9.538699719E0,1.141896303E1
1.345917233E1,1.479279633E0,-6.210265764E0,-9.417351868E0,1.137726616E1
1.346913833E1,1.003887405E0,-6.230282537E0,-9.521536387E0,1.142295345E1
1.347910333E1,8.917129585E-1,-5.929742085E0,-9.403236104E0,1.115248145E1
1.348906933E1,9.190047645E-1,-5.602783912E0,-9.060278780E0,1.069225930E1
1.349903433E1,1.252213538E0,-5.197750792E0,-8.924936203E0,1.040380403E1
1.350900033E1,1.730779049E0,-4.664176576E0,-9.172271086E0,1.043459133E1
1.351896533E1,1.895855595E0,-4.133419257E0,-9.605574909E0,1.062762873E1
1.352893133E1,2.020985571E0,-3.647242278E0,-9.936554797E0,1.077598627E1
1.353889633E1,2.057888665E0,-3.265886289E0,-1.016355306E1,1.087192393E1
1.354886233E1,2.173415321E0,-2.814750212E0,-1.033516417E1,1.092987517E1
1.355882733E1,2.480577452E0,-2.202245310E0,-1.032019529E1,1.084018357E1
1.356879333E1,2.610784128E0,-1.732374170E0,-1.028279182E1,1.074956379E1
1.357875833E1,2.124025352E0,-1.514329744E0,-1.036302264E1,1.068629573E1
1.358872433E1,1.433896030E0,-1.459351299E0,-1.045848428E1,1.065671889E1
1.359868933E1,5.790396431E-1,-1.434697391E0,-1.006517483E1,1.018338784E1
1.360865533E1,-3.899697788E-1,-1.497966895E0,-9.031873591E0,9.163553995E0
1.361862033E1,-8.554763744E-1,-1.411907283E0,-7.843873152E0,8.015713819E0
1.362858633E1,-1.088342688E0,-1.184990292E0,-5.766590150E0,5.986840048E0
1.363855133E1,-1.590152051E0,-1.270179839E0,-2.450139479E0,3.185141101E0
1.364851733E1,-2.237407249E0,-7.216969773E-1,1.387743080E0,2.729957615E0
1.365848233E1,-2.485994898E0,6.046766505E-1,4.360228366E0,5.055432315E0
1.366844833E1,-2.869273744E0,2.263699839E0,5.581623423E0,6.671700594E0
1.367841333E1,-2.455471555E0,3.664019694E0,6.076539942E0,7.508576333E0
1.368837933E1,-5.192190090E-1,4.088208877E0,8.399534640E0,9.356025993E0
1.369834433E1,1.625175557E0,3.317723317E0,1.312945146E1,1.363931741E1
1.370831033E1,1.954756352E0,2.396740659E0,1.812187084E1,1.838389624E1
1.371827533E1,1.365270037E0,1.165719624E0,2.069879492E1,2.077650056E1
1.372824033E1,7.378021096E-1,-3.086268595E-1,2.118773207E1,2.120282040E1
1.373820633E1,1.902783193E-1,-7.234840326E-1,2.055748175E1,2.057108871E1
1.374817133E1,-1.214004396E-2,-8.164617781E-1,1.867729786E1,1.869513874E1
1.375813733E1,5.122215729E-3,-1.245799288E0,1.668356572E1,1.673001516E1
1.376810233E1,-8.482482657E-4,-1.328414306E0,1.509708046E1,1.515541236E1
1.377806833E1,-7.111189988E-2,-9.182189718E-1,1.256159210E1,1.259530782E1
1.378803333E1,-3.362059099E-1,-3.692484525E-1,9.116839482E0,9.130506063E0
1.379799933E1,-8.111699749E-1,3.925425902E-2,6.247235370E0,6.299800583E0
1.380796433E1,-1.027550868E0,2.300763877E-1,4.532292042E0,4.653006242E0
1.381793033E1,-4.035233688E-1,2.457638825E-1,3.691814434E0,3.721924880E0
1.382789533E1,6.372319738E-1,1.758658281E-1,3.470810148E0,3.533202012E0
1.383786133E1,1.472518936E0,4.534018725E-2,3.601569092E0,3.891229584E0
1.384782633E1,1.991321331E0,-2.255348553E-1,3.700179461E0,4.208034536E0
1.385779233E1,2.233944381E0,-4.080739644E-1,3.571217365E0,4.232094674E0
1.386775733E1,2.259048671E0,-4.818722579E-1,2.966651520E0,3.759856780E0
1.387772333E1,1.989098658E0,-5.374542819E-1,1.813963585E0,2.745147440E0
1.388768846E1,1.651258963E0,-6.602623290E-1,4.978705323E-1,1.846747837E0
1.389765446E1,1.496292691E0,-6.841449890E-1,-7.656081051E-1,1.814690595E0
1.390761946E1,1.430867172E0,-6.375439958E-1,-1.950411286E0,2.501588974E0
1.391758546E1,1.492593597E0,-5.525905305E-1,-2.979218355E0,3.377711348E0
1.392755046E1,1.528959916E0,-4.965628025E-1,-3.882912551E0,4.202535297E0
1.393751646E1,1.437151613E0,-5.151904236E-1,-4.481043536E0,4.733981105E0
1.394748146E1,1.286336719E0,-6.037820265E-1,-4.831495237E0,5.036125605E0
1.395744646E1,9.846118397E-1,-7.430764443E-1,-4.925084601E0,5.077211972E0
1.396741246E1,5.792292025E-1,-8.675689280E-1,-4.860545374E0,4.971225567E0
1.397737746E1,1.820036138E-1,-1.018189403E0,-4.699394941E0,4.811875703E0
1.398734346E1,-1.066406054E-2,-1.134368023E0,-4.559394472E0,4.698402120E0
1.399730846E1,-1.961639073E-1,-1.043639993E0,-4.444306650E0,4.569412031E0
1.400727446E1,-2.554592787E-1,-8.637609288E-1,-4.287510638E0,4.381106009E0
1.401723946E1,-9.206934404E-2,-6.866388264E-1,-4.143669718E0,4.201184163E0
1.402720546E1,-5.985164260E-2,-4.640394196E-1,-3.970308545E0,3.997782478E0
1.403717046E1,-4.004982753E-2,-2.324423173E-1,-3.342099482E0,3.350412269E0
1.404713646E1,6.591071019E-2,-7.554778039E-2,-2.394632446E0,2.396730322E0
1.405710146E1,2.957150196E-1,-1.301619440E-1,-1.252108727E0,1.293122487E0
1.406706746E1,2.833921040E-1,-3.560471937E-1,1.511797607E-1,4.795164322E-1
1.407703246E1,1.909260995E-1,-7.031276822E-1,1.624931290E0,1.780798419E0
1.408699846E1,1.019297962E-1,-1.099354895E0,2.926701588E0,3.128027023E0
1.409696346E1,2.814138813E-2,-1.323504691E0,3.589911498E0,3.826214993E0
1.410692946E1,-3.675360588E-2,-1.308395194E0,3.538977572E0,3.773275907E0
1.411689446E1,2.735650906E-2,-1.066108212E0,3.020683300E0,3.203414225E0
1.412686046E1,2.246528942E-1,-7.195919797E-1,2.260246473E0,2.382644677E0
1.413682546E1,4.914911835E-1,-4.239181647E-1,1.590650234E0,1.717975075E0
1.414679146E1,7.410719457E-1,-1.935021999E-1,9.530645764E-1,1.222686721E0
1.415675646E1,8.319295639E-1,-1.220647198E-1,4.430599022E-1,9.504255215E-1
1.416672246E1,7.276153097E-1,-1.583504936E-1,2.508280098E-1,7.857567106E-1
1.417668746E1,4.090032332E-1,-2.914185038E-1,-6.972395360E-2,5.070205310E-1
1.418665346E1,1.394792081E-1,-4.129727617E-1,-4.732280266E-1,6.433861333E-1
1.419661846E1,7.086366730E-2,-4.213044593E-1,-7.524331588E-1,8.652599408E-1
1.420658446E1,1.870248189E-1,-3.851479089E-1,-8.741213179E-1,9.733474575E-1
1.421654946E1,4.169656791E-1,-2.634796304E-1,-1.015794675E0,1.129212432E0
1.422651546E1,6.266625468E-1,-8.569153011E-2,-1.304395114E0,1.449653613E0
1.423648046E1,9.407317753E-1,1.259651050E-1,-1.657874503E0,1.910338019E0
1.424644546E1,1.189709434E0,3.694124669E-1,-2.136543363E0,2.473194625E0
1.425641146E1,1.345936950E0,6.600997764E-1,-2.633690595E0,3.030446194E0
1.426637646E1,1.450755453E0,9.174430463E-1,-2.833971180E0,3.313274177E0
1.427634246E1,1.384176863E0,9.574336159E-1,-2.541785814E0,3.048491404E0
1.428630746E1,1.163167899E0,7.646620256E-1,-1.915759517E0,2.368079834E0
1.429627346E1,1.002684414E0,5.906363162E-1,-1.249537706E0,1.707504545E0
1.430623846E1,8.056635788E-1,5.250875670E-1,-8.953268301E-1,1.313933365E0
1.431620446E1,5.205506393E-1,2.987819025E-1,-4.265678304E-1,7.363448290E-1
1.432616946E1,1.444902902E-1,1.465370715E-2,1.051417083E-1,1.792957164E-1
1.433613546E1,-1.244783408E-1,-1.761298299E-1,4.200049156E-1,4.721447907E-1
1.434610046E1,-2.307208239E-1,-1.537037113E-1,4.692074811E-1,5.449886144E-1
1.435606646E1,-2.240125327E-1,-8.829032511E-2,3.274733126E-1,4.064671780E-1
1.436603146E1,-1.086003729E-1,3.423954070E-2,1.622181344E-1,1.981946272E-1
1.437599746E1,9.953660388E-2,2.178488365E-1,-7.198507190E-3,2.396194265E-1
1.438596246E1,2.885537701E-1,3.572005570E-1,-1.669268972E-1,4.885899151E-1
1.439592846E1,4.330633561E-1,4.568657631E-1,-3.347735614E-1,7.129821409E-1
1.440589346E1,5.034346331E-1,6.171496385E-1,-5.024892479E-1,9.417088459E-1
1.441585946E1,5.003285921E-1,7.052572381E-1,-7.710682350E-1,1.158560613E0
1.442582446E1,3.998309618E-1,6.527837402E-1,-8.817490107E-1,1.167678349E0
1.443579046E1,2.700379771E-1,6.149250653E-1,-6.364156294E-1,9.252449397E-1
1.444575546E1,9.799575292E-2,5.148520160E-1,-3.037494045E-1,6.057552862E-1
1.445572146E1,-2.169480729E-1,2.896485516E-1,3.842205405E-2,3.639217004E-1
1.446568646E1,-5.193363187E-1,7.203360379E-2,2.167188621E-1,5.673324574E-1
1.447565246E1,-7.066115264E-1,-2.056699634E-2,2.317912298E-1,7.439422187E-1
1.448561746E1,-6.851599194E-1,-2.268047243E-2,9.909627199E-2,6.926605158E-1
1.449558346E1,-4.827060708E-1,4.527002066E-2,-1.492326379E-1,5.072720235E-1
1.450554846E1,-6.291220319E-2,2.471638522E-1,-4.610827750E-1,5.269205258E-1
1.451551346E1,2.766425168E-1,4.214094168E-1,-5.093293208E-1,7.166124027E-1
1.452547946E1,4.828325169E-1,4.490766871E-1,-2.954644847E-1,7.225623654E-1
1.453544446E1,5.862353728E-1,4.212708378E-1,-2.212492847E-1,7.550445531E-1
1.454541046E1,5.922523405E-1,2.997426000E-1,-2.692104864E-1,7.162979457E-1
1.455537546E1,5.548483597E-1,1.581677681E-1,-2.870497566E-1,6.444154778E-1
1.456534146E1,4.772445887E-1,1.157590824E-1,-4.626439816E-1,6.746866060E-1
1.457530646E1,3.276834469E-1,1.608688894E-1,-8.129214352E-1,8.911209238E-1
1.458527246E1,1.853046594E-1,2.104535705E-1,-1.004534692E0,1.042937424E0
1.459523746E1,9.567276377E-2,2.974075145E-1,-9.129222715E-1,9.648997778E-1
1.460520346E1,1.180686230E-1,3.435724515E-1,-7.086100316E-1,7.963104960E-1
1.461516846E1,1.400249908E-1,3.525634226E-1,-5.128727335E-1,6.379235109E-1
1.462513446E1,3.280485325E-2,3.200868174E-1,-3.829084253E-1,5.001505686E-1
1.463509946E1,-1.095082262E-1,3.358126116E-1,-4.247978783E-1,5.524630296E-1
1.464506546E1,-1.654763126E-1,3.661432886E-1,-4.985032010E-1,6.402724102E-1
1.465503046E1,-1.828744470E-1,4.094194087E-1,-4.293768328E-1,6.208315232E-1
1.466499646E1,-1.801304948E-1,4.256270134E-1,-2.982103372E-1,5.500315945E-1
1.467496146E1,-6.553281561E-2,4.483849615E-1,-2.447393042E-1,5.150154858E-1
1.468492746E1,1.824410221E-1,4.741545179E-1,-2.890068197E-1,5.844930926E-1
1.469489246E1,3.629273931E-1,5.312233427E-1,-4.639789009E-1,7.932155779E-1
1.470485846E1,3.389077256E-1,4.811776087E-1,-5.576822859E-1,8.108019916E-1
1.471482346E1,3.857988502E-1,3.660164040E-1,-4.381768924E-1,6.890629506E-1
1.472478946E1,4.029678468E-1,2.647160241E-1,-1.035173517E-1,4.931262527E-1
1.473475446E1,4.381418822E-1,1.938430926E-1,1.461464775E-1,5.009014338E-1
1.474472046E1,3.630861815E-1,6.055551946E-2,1.778991973E-1,4.088357501E-1
1.475468546E1,2.044107289E-1,-2.997458160E-2,7.314574420E-2,2.191632303E-1
1.476465046E1,-1.357734438E-2,-2.883203566E-2,-3.261085725E-1,3.276620692E-1
1.477461646E1,-1.599678700E-1,-4.600560039E-2,-7.188619548E-1,7.378812538E-1
1.478458146E1,-2.643054399E-1,-2.385722458E-2,-9.106646615E-1,9.485444947E-1
1.479454746E1,-3.249432224E-1,-2.251470387E-2,-1.120029480E0,1.166430901E0
1.480451246E1,-2.267627706E-1,-1.055697244E-1,-1.115899592E0,1.143590058E0
1.481447846E1,-1.046305520E-1,-9.848699212E-2,-1.006088297E0,1.016297644E0
1.482444346E1,2.703240886E-4,2.867445320E-2,-8.127109355E-1,8.132166759E-1
1.483440946E1,-1.602763837E-2,-5.296349466E-2,-5.313680613E-1,5.342415498E-1
1.484437446E1,-1.420689216E-1,-1.936950119E-1,-1.514908326E-1,2.839908598E-1
1.485434046E1,-1.867576194E-1,-2.225511673E-1,1.743815124E-2,2.910524345E-1
1.486430546E1,1.507302560E-3,-7.296404198E-2,-2.482640058E-1,2.587683133E-1
1.487427146E1,3.176144319E-1,1.975201142E-1,-7.572728992E-1,8.446036743E-1
1.488423583E1,7.153613730E-1,4.260146838E-1,-1.136451386E0,1.408812321E0
1.489420183E1,1.014386373E0,4.982674120E-1,-1.342692037E0,1.755013400E0
1.490416683E1,1.292721878E0,5.133127365E-1,-1.416524829E0,1.985236110E0
1.491413283E1,1.521239691E0,4.402484147E-1,-1.549392280E0,2.215537249E0
1.492409783E1,1.695447541E0,2.985154156E-1,-1.760265681E0,2.462151312E0
1.493406383E1,1.900536876E0,1.960834533E-1,-1.964642825E0,2.740494584E0
1.494402883E1,2.129201892E0,2.048781042E-1,-2.343131340E0,3.172655072E0
1.495399483E1,2.218471625E0,1.193081962E-1,-2.840437031E0,3.606096688E0
1.496395983E1,2.155177709E0,-3.239532888E-2,-3.199130382E0,3.857496029E0
1.497392583E1,1.949898339E0,-2.150660004E-1,-3.487326778E0,4.001225434E0
1.498389083E1,1.770822244E0,-4.103024845E-1,-3.730063995E0,4.149402000E0
1.499385683E1,1.703463781E0,-6.534995855E-1,-3.814862655E0,4.228714656E0
1.500382183E1,1.821784236E0,-7.327556701E-1,-4.041761520E0,4.493513643E0
1.501378683E1,2.221385732E0,-6.914060614E-1,-4.463041713E0,5.033024761E0
1.502375283E1,2.688419949E0,-5.905138171E-1,-4.826187719E0,5.555933431E0
1.503371783E1,2.893078636E0,-2.574948590E-1,-5.077906260E0,5.849900818E0
1.504368383E1,3.220233276E0,-1.552520540E-1,-4.930810779E0,5.891256274E0
1.505364883E1,3.496531464E0,-2.608780579E-1,-4.147707805E0,5.431138893E0
1.506361483E1,3.643615835E0,-1.937887135E-1,-2.874361991E0,4.644937812E0
1.507357983E1,4.051455034E0,-1.336778748E-1,-1.537145872E0,4.335317185E0
1.508354583E1,4.564226026E0,-1.650540340E-1,1.804158390E-1,4.570771480E0
1.509351083E1,4.822484677E0,-4.274140687E-1,2.967284773E0,5.678364216E0
1.510347683E1,4.722046177E0,-1.145854732E0,6.041226853E0,7.752878501E0
1.511344183E1,4.262766099E0,-2.230056129E0,8.773492733E0,1.000592324E1
1.512340783E1,3.921975168E0,-2.781565509E0,1.099095864E1,1.199667319E1
1.513337283E1,4.668021998E0,-2.389283267E0,1.229976080E1,1.337098424E1
1.514333883E1,6.170135154E0,-1.743845237E0,1.388139638E1,1.529067459E1
1.515330383E1,5.827445047E0,-2.403951153E0,1.740453326E1,1.851096634E1
1.516326983E1,3.686478557E0,-4.314655752E0,2.172709795E1,2.245602734E1
1.517323483E1,2.586410594E0,-6.474091550E0,2.644209853E1,2.734571184E1
1.518320083E1,3.091307725E0,-7.857971374E0,3.174106287E1,3.284507527E1
1.519316583E1,4.121523096E0,-7.194048103E0,3.334873610E1,3.436392702E1
1.520313183E1,5.368259693E0,-4.663448305E0,2.897198526E1,2.983189387E1
1.521309683E1,4.841332008E0,-1.657127959E0,2.133059124E1,2.193578564E1
1.522306283E1,1.873276572E0,-7.572465867E-2,1.465850303E1,1.477790954E1
1.523302783E1,-1.396930225E0,1.919554652E-1,1.020895202E1,1.030587028E1
1.524299383E1,-3.035086162E0,2.831271520E-1,7.936831602E0,8.502070623E0
1.525295883E1,-3.214191932E0,4.620392333E-1,7.587577996E0,8.253232692E0
1.526292483E1,-3.458673667E0,7.971070558E-3,7.090197460E0,7.888814049E0
1.527288983E1,-4.327950859E0,-5.424057041E-1,5.752257455E0,7.218990817E0
1.528285483E1,-5.050243083E0,-9.789675955E-1,4.174504425E0,6.624939241E0
1.529282083E1,-4.979264901E0,-1.541132065E0,2.286439075E0,5.691745834E0
1.530278583E1,-4.112468683E0,-1.835134014E0,8.932206631E-3,4.503353784E0
1.531275183E1,-2.753562024E0,-1.908479441E0,-2.624293535E0,4.255738967E0
1.532271683E1,-1.251354728E0,-2.142064012E0,-5.260475044E0,5.816091864E0
1.533268283E1,-8.115474857E-2,-2.611509767E0,-8.220184164E0,8.625427355E0
1.534264783E1,6.231778255E-1,-2.925741768E0,-1.124828290E1,1.163925186E1
1.535261383E1,1.351489612E0,-3.029098613E0,-1.377288375E1,1.416666119E1
1.536257883E1,1.900230482E0,-3.089377559E0,-1.528571748E1,1.571013331E1
1.537254483E1,1.796090986E0,-3.699225195E0,-1.609770278E1,1.661463947E1
1.538250983E1,1.177546933E0,-4.681340493E0,-1.645706330E1,1.715040810E1
1.539247583E1,8.589247698E-1,-5.228110120E0,-1.602121067E1,1.687453936E1
1.540244083E1,7.499740391E-1,-5.727940055E0,-1.528059883E1,1.633610905E1
1.541240683E1,8.302050007E-1,-6.111332045E0,-1.446938069E1,1.572897318E1
1.542237183E1,9.745240771E-1,-6.399906755E0,-1.358334041E1,1.504711402E1
1.543233783E1,1.140819548E0,-6.864911258E0,-1.254897731E1,1.434940094E1
1.544230283E1,1.314955624E0,-7.259027626E0,-1.131045401E1,1.350366470E1
1.545226883E1,1.253654438E0,-7.381045568E0,-1.044676178E1,1.285248283E1
1.546223383E1,1.355868153E0,-7.388615373E0,-9.711664451E0,1.227788426E1
1.547219983E1,1.598563709E0,-7.213777778E0,-9.043917686E0,1.167846064E1
1.548216483E1,1.794570710E0,-6.762501369E0,-8.690320768E0,1.115677300E1
1.549213083E1,1.745745582E0,-6.287525024E0,-8.995398660E0,1.111295621E1
1.550209583E1,1.420551514E0,-6.185313941E0,-9.529260558E0,1.144914328E1
1.551206183E1,1.299187730E0,-6.312766285E0,-9.691478693E0,1.163888595E1
1.552202683E1,1.214825418E0,-6.333192948E0,-9.661064985E0,1.161556328E1
1.553199183E1,1.482935312E0,-6.262656232E0,-9.602180600E0,1.155949101E1
1.554195783E1,1.577984434E0,-6.172971053E0,-9.219922970E0,1.120725596E1
1.555192283E1,9.712906399E-1,-6.111237320E0,-8.854159750E0,1.080216515E1
1.556188883E1,2.784748149E-1,-6.143419225E0,-8.872839850E0,1.079566742E1
1.557185383E1,-2.610397334E-1,-5.886253418E0,-8.933885366E0,1.070188903E1
1.558181983E1,-4.795433850E-1,-5.445398501E0,-8.564091661E0,1.016001932E1
1.559178483E1,-5.057607651E-1,-5.131922253E0,-8.331225128E0,9.798047362E0
1.560175083E1,-5.303309114E-1,-4.997978330E0,-8.156737196E0,9.580887222E0
1.561171583E1,-8.202640032E-1,-4.882897232E0,-7.586510879E0,9.059286160E0
1.562168183E1,-9.640534680E-1,-4.558323554E0,-6.769579423E0,8.217963147E0
1.563164683E1,-1.138463705E0,-4.052509579E0,-5.056242326E0,6.579097199E0
1.564161283E1,-2.069223200E0,-3.028588736E0,-2.346259600E0,4.354189763E0
1.565157783E1,-3.877288699E0,-1.511833567E0,-8.638734877E-2,4.162507798E0
1.566154383E1,-6.317128308E0,-7.752560109E-2,1.720543206E-1,6.319946437E0
1.567150883E1,-7.971033720E0,1.681309266E0,-1.304139590E-1,8.147465079E0
1.568147483E1,-7.015005190E0,3.339089043E0,1.607521790E0,7.933721684E0
1.569143983E1,-3.956841238E0,3.427589284E0,7.065273119E0,8.793352325E0
1.570140583E1,-1.247051762E0,2.716207964E0,1.434490633E1,1.465296084E1
1.571137083E1,1.100849297E0,2.065584478E0,2.005278751E1,2.018892755E1
1.572133683E1,2.139696474E0,1.181317656E0,2.264950090E1,2.278099435E1
1.573130183E1,1.587648565E0,7.689053500E-1,2.245164750E1,2.252084187E1
1.574126783E1,5.053565763E-1,1.110501735E0,1.984289586E1,1.988037010E1
1.575123283E1,-1.130261304E-1,2.270550144E0,1.580395972E1,1.596663131E1
1.576119883E1,-2.087674528E-1,3.668574091E0,1.183119768E1,1.238867460E1
1.577116383E1,-2.347107081E-1,4.605681615E0,8.063468260E0,9.289074907E0
1.578112983E1,-2.483719600E-1,5.092286317E0,5.206770707E0,7.287216873E0
1.579109483E1,-1.160670845E-1,4.976336616E0,4.282808892E0,6.566570618E0
1.580105983E1,2.411264741E-1,4.343504160E0,4.897202738E0,6.550325566E0
1.581102583E1,5.359562252E-1,3.551094465E0,5.829136062E0,6.846630427E0
1.582099083E1,4.100823368E-1,2.682716575E0,6.432492118E0,6.981553595E0
1.583095683E1,-1.234583488E-1,1.833926564E0,6.236354871E0,6.501588320E0
1.584092183E1,-7.882035005E-1,1.253972673E0,5.428317615E0,5.626752558E0
1.585088783E1,-1.309228276E0,9.486715633E-1,4.334184283E0,4.625927995E0
1.586085283E1,-1.606997148E0,7.053886543E-1,2.980607069E0,3.458906112E0
1.587081883E1,-1.700489156E0,6.523479764E-1,1.572360728E0,2.406146195E0
1.588078438E1,-1.670444554E0,5.401874167E-1,4.207545286E-1,1.805331501E0
1.589075037E1,-1.473749482E0,3.608359171E-1,-3.987543797E-1,1.568803733E0
1.590071537E1,-1.397374029E0,2.374102579E-1,-1.028986579E0,1.751522533E0
1.591068138E1,-1.363321453E0,2.174053252E-2,-1.553567192E0,2.067048392E0
1.592064638E1,-1.227633305E0,-2.158265769E-1,-1.923328153E0,2.291910955E0
1.593061237E1,-9.851640362E-1,-2.602677548E-1,-2.081507031E0,2.317532956E0
1.594057738E1,-8.196160586E-1,-3.797490285E-1,-2.262912219E0,2.436544996E0
1.595054338E1,-5.352739648E-1,-5.272327642E-1,-2.584665785E0,2.691651877E0
1.596050837E1,-2.044952577E-1,-4.963885555E-1,-3.031423466E0,3.078595157E0
1.597047438E1,-1.076595559E-1,-4.297799984E-1,-3.623728870E0,3.650713951E0
1.598043938E1,6.117457515E-2,-4.298422712E-1,-4.025919074E0,4.049263031E0
1.599040537E1,-3.751493163E-2,-5.226858231E-1,-3.890976446E0,3.926105646E0
1.600037037E1,-3.676708006E-1,-7.497106951E-1,-3.637304935E0,3.731921105E0
1.601033638E1,-7.290954593E-1,-9.762271518E-1,-3.229486202E0,3.451692450E0
1.602030138E1,-1.133986126E0,-1.144672278E0,-2.810419765E0,3.239546020E0
1.603026737E1,-1.544189427E0,-1.262259493E0,-2.616938907E0,3.290317501E0
1.604023238E1,-1.829895202E0,-1.246364129E0,-2.541635540E0,3.370734521E0
1.605019838E1,-1.881152040E0,-1.082771607E0,-2.189069486E0,3.082718373E0
1.606016338E1,-1.635644997E0,-9.403699788E-1,-1.448957580E0,2.378888043E0
1.607012837E1,-1.374451920E0,-7.187964660E-1,-7.506836718E-1,1.723169294E0
1.608009438E1,-9.878819682E-1,-5.048392439E-1,-1.153228801E-1,1.115380120E0
1.609005938E1,-5.070148101E-1,-3.388324061E-1,3.383532268E-1,6.973910834E-1
1.610002537E1,-1.628028377E-1,-2.082944861E-1,6.636753488E-1,7.143922770E-1
1.610999038E1,3.176609538E-3,-1.231388533E-1,9.923718989E-1,9.999876268E-1
1.611995638E1,-9.383343986E-2,-1.112128723E-1,1.164253142E0,1.173310869E0
1.612992138E1,-3.021553074E-1,-1.914825717E-1,1.174503311E0,1.227770920E0
1.613988738E1,-5.043349581E-1,-2.576894251E-1,1.382148464E0,1.493684025E0
1.614985238E1,-5.653829227E-1,-3.800696021E-1,1.830890690E0,1.953527955E0
1.615981838E1,-6.560782807E-1,-6.146031761E-1,2.455729417E0,2.615106641E0
1.616978337E1,-8.431219386E-1,-7.968489012E-1,2.968077655E0,3.186739359E0
1.617974938E1,-1.006701159E0,-9.329229650E-1,3.070941288E0,3.363699285E0
1.618971438E1,-9.392271405E-1,-9.393370682E-1,2.673818867E0,2.985600288E0
1.619968037E1,-7.632597171E-1,-7.949234131E-1,2.110682298E0,2.381060350E0
1.620964537E1,-5.270755107E-1,-5.924781892E-1,1.599119925E0,1.784943566E0
1.621961138E1,-2.802231506E-1,-3.736107677E-1,1.085485300E0,1.181688773E0
1.622957638E1,-1.665826058E-1,-1.596079373E-1,5.969486779E-1,6.399782670E-1
1.623954237E1,-1.570406808E-1,-3.106771857E-2,1.299719095E-1,2.062029966E-1
1.624950738E1,-2.580080435E-1,-4.648536444E-4,-3.156455648E-1,4.076769422E-1
1.625947338E1,-3.392517611E-1,4.542877257E-2,-6.213684046E-1,7.094041338E-1
1.626943837E1,-4.022492240E-1,6.585806698E-2,-9.341915184E-1,1.019242619E0
1.627940438E1,-3.909145426E-1,7.815505385E-2,-1.133341836E0,1.201410051E0
1.628936938E1,-3.516719415E-1,1.113423881E-1,-1.174027932E0,1.230614427E0
1.629933537E1,-1.843871034E-1,1.620286846E-1,-1.280789904E0,1.304099182E0
