"Time (s)","Linear Acceleration x (m/s^2)","Linear Acceleration y (m/s^2)","Linear Acceleration z (m/s^2)","Absolute acceleration (m/s^2)"
1.545500010E-3,1.896787056E-1,1.134833461E0,-1.562338600E0,1.940290416E0
1.154950005E-2,5.910307109E-2,1.102887198E0,-2.146487723E0,2.413972429E0
2.155350009E-2,1.469171405E-1,1.058957359E0,-2.351064842E0,2.582727478E0
3.155850002E-2,2.301689199E-1,1.090554543E0,-2.077422166E0,2.357534687E0
4.156250006E-2,3.789636013E-1,1.256047996E0,-1.327035533E0,1.866090374E0
5.156649998E-2,5.885719568E-1,1.507640237E0,-6.161766618E-1,1.731782235E0
6.157150003E-2,8.130772635E-1,1.358671016E0,-3.475620067E-1,1.621074000E0
7.157550007E-2,8.457380560E-1,1.048239413E0,-4.783800083E-1,1.429309679E0
8.158050000E-2,1.253919902E0,1.476130176E0,-2.780046988E-1,1.956671160E0
9.158450004E-2,1.458490004E0,1.754539795E0,3.935351551E-2,2.281918421E0
1.015885001E-1,9.848877552E-1,1.529411175E0,6.070889193E-1,1.917722448E0
1.115935000E-1,5.525007758E-1,7.517873338E-1,9.711593699E-1,1.346696634E0
1.215975001E-1,1.656808555E-1,2.883551475E-1,1.533341673E0,1.568991881E0
1.316025000E-1,1.114181095E-1,3.295071204E-1,1.806018974E0,1.839210013E0
1.416065000E-1,3.024668178E-1,3.587214178E-1,1.385674335E0,1.462962950E0
1.516105001E-1,6.076335874E-1,5.561409599E-1,5.561257571E-1,9.938748420E-1
1.616155000E-1,1.187668025E0,8.157237133E-1,-4.319203717E-1,1.504166121E0
1.716195000E-1,1.311552398E0,1.160454791E0,-1.286711379E0,2.173120150E0
1.816235001E-1,1.210247925E0,1.374362896E0,-1.795788685E0,2.564845105E0
1.916285000E-1,1.001606114E0,1.395083382E0,-1.944528987E0,2.594352604E0
2.016325000E-1,3.618315518E-2,1.414397320E0,-2.121785576E0,2.550255483E0
2.116375001E-1,-6.925535774E-1,1.566189869E0,-2.217314461E0,2.801618208E0
2.216415000E-1,-8.904715946E-1,1.558005813E0,-1.972246544E0,2.666472990E0
2.316455001E-1,-1.515156540E0,1.165140457E0,-1.144344542E0,2.227728901E0
2.416505000E-1,-3.339838949E0,1.183963960E0,5.450347584E0,6.500967901E0
2.516545000E-1,-3.391511378E0,9.049143635E-1,5.171775121E0,6.250478169E0
2.616595001E-1,-1.675467020E-1,6.176616354E-1,1.733510576E0,1.847873564E0
2.716635000E-1,9.935838805E-1,4.446449362E-1,-5.017560071E-1,1.198614674E0
2.816675000E-1,1.923755438E0,9.696962504E-1,-3.164701976E0,3.828378822E0
2.916725001E-1,4.013459827E0,1.130728569E0,-4.157711806E0,5.888376206E0
3.016765000E-1,6.029658721E0,7.328448401E-1,-5.963136703E0,8.511923707E0
3.116805000E-1,6.737178832E0,7.282531679E-1,-5.738982521E0,8.880081738E0
3.216855001E-1,6.941011015E0,6.144099256E-1,-4.623026796E0,8.362267051E0
3.316895000E-1,5.804466074E0,1.130980000E0,-2.514292206E0,6.425932420E0
3.416945001E-1,-1.824919221E0,2.437057503E0,2.132967791E0,3.717409183E0
3.516985000E-1,-1.462569898E1,4.527865115E0,7.177777056E0,1.690955696E1
3.617025000E-1,1.073652874E0,2.468886237E0,2.409335854E0,3.612897591E0
3.717075001E-1,1.018506497E1,-1.728048107E-1,1.265656140E0,1.026485730E1
3.817115000E-1,8.085654935E0,1.180431145E0,1.664840875E0,8.339240286E0
3.917155000E-1,6.319906905E0,2.575698495E0,-9.675972462E-3,6.824627436E0
4.017205001E-1,5.312450944E0,1.872049826E0,-9.370367736E-1,5.710056348E0
4.117245000E-1,5.832813960E0,3.725945947E-1,-9.662822074E-1,5.924039731E0
4.217295001E-1,5.590576095E0,-8.781539963E-1,-5.432455105E-1,5.685139506E0
4.317335001E-1,4.888408526E0,-2.087922011E0,-6.264315087E-1,5.352417461E0
4.417375000E-1,4.267294182E0,-2.697591307E0,-1.115211375E0,5.170154244E0
4.517425001E-1,3.371268318E0,-2.874820998E0,-1.666134279E0,4.733502855E0
4.617465000E-1,2.133346544E0,-3.060275090E0,-1.599795279E0,4.059038807E0
4.717515000E-1,7.236660272E-1,-3.645025014E0,-1.355302727E-1,3.718637967E0
4.817555001E-1,1.419927616E0,-2.897143913E0,-3.324569530E0,4.632752945E0
4.917595000E-1,1.277759877E-1,-2.500976341E0,-5.003125049E0,5.594861001E0
5.017645000E-1,-1.021256852E0,-2.783168231E0,-6.075133102E0,6.759898902E0
5.117685001E-1,-1.498471218E0,-3.900908527E0,-7.206171720E0,8.330150910E0
5.217725000E-1,-2.693299743E0,-5.810560627E0,-7.440753826E0,9.817397608E0
5.317775001E-1,-4.129884322E0,-7.833694904E0,-5.769858744E0,1.056948392E1
5.417815000E-1,-5.842735516E0,-9.830106236E0,-2.399024874E0,1.168434283E1
5.517865000E-1,-6.542719150E0,-1.130870452E1,-2.683491915E0,1.333773222E1
5.617905001E-1,-7.565564398E0,-1.302189193E1,-8.530801123E-1,1.508426928E1
5.717945000E-1,-5.828961230E0,-1.457697531E1,1.698880441E0,1.579085789E1
5.817995000E-1,-3.359168674E0,-1.526698300E1,4.980927849E0,1.640653609E1
5.918035001E-1,-1.072338420E-1,-1.535416382E1,9.860359730E0,1.824797358E1
6.018075000E-1,3.089310901E0,-1.487747073E1,1.505435836E1,2.138963962E1
6.118125001E-1,5.136790060E0,-1.386135446E1,1.769870902E1,2.306009672E1
6.218160833E-1,7.442405080E0,-1.305056200E1,1.681922112E1,2.255200127E1
6.318210834E-1,9.491250148E0,-1.141616114E1,1.294822403E1,1.969946878E1
6.418250834E-1,1.309644159E1,-9.157099900E0,9.494208255E0,1.858787915E1
6.518290833E-1,1.655098595E1,-5.865315124E0,8.106990255E0,1.934063982E1
6.618340834E-1,2.010243037E1,-2.371343570E0,7.511539049E0,2.159060435E1
6.718380834E-1,2.223004270E1,5.774371040E-1,7.433684542E0,2.344712984E1
6.818420833E-1,2.129630317E1,3.408258389E0,6.889634455E0,2.264102067E1
6.918470834E-1,1.945812685E1,5.486539510E0,5.672157617E0,2.099748052E1
7.018510833E-1,1.870430030E1,6.577271517E0,3.075164148E0,2.006409691E1
7.118560834E-1,1.983251822E1,8.081640821E0,-1.567398781E0,2.147320275E1
7.218600834E-1,1.826300275E1,9.560718579E0,-1.680093922E0,2.068253671E1
7.318640833E-1,1.704212400E1,9.469881499E0,-2.377990685E0,1.964096448E1
7.418690834E-1,1.621103468E1,8.655585383E0,-2.752201962E0,1.858201871E1
7.518730834E-1,1.511083896E1,7.907352279E0,-2.413434752E0,1.722464343E1
7.618770833E-1,1.511868592E1,7.175641068E0,-1.852124269E0,1.683730540E1
7.718820834E-1,1.553855460E1,7.470874003E0,-2.701417140E0,1.745159855E1
7.818860834E-1,1.524483960E1,7.927247431E0,-4.008683821E0,1.764414725E1
7.918910834E-1,1.488902951E1,8.390507709E0,-6.523798145E0,1.829327094E1
8.018950834E-1,1.477049826E1,9.214789699E0,-8.661061885E0,1.944463836E1
8.118990833E-1,1.305845223E1,9.813060433E0,-1.116614239E1,1.978641113E1
8.219040834E-1,9.610184854E0,8.532783329E0,-1.361266069E1,1.872080594E1
8.319080834E-1,6.618358732E0,5.377525191E0,-1.573067071E1,1.789341920E1
8.419120833E-1,5.403975656E0,3.556987289E0,-1.579083155E1,1.706474355E1
8.519170834E-1,4.340357189E0,3.733702133E0,-1.337502399E1,1.454890027E1
8.619210834E-1,3.025331837E-1,8.817817551E-1,-1.281517064E1,1.284903358E1
8.719260833E-1,-2.730190703E0,-1.650924502E0,-1.161343333E1,1.204372562E1
8.819300834E-1,-5.337368853E0,-3.021666802E0,-1.001033262E1,1.173987801E1
8.919340834E-1,-5.153848143E0,-3.621625042E0,-7.307015140E0,9.647320295E0
9.019390834E-1,-2.279439666E0,-1.283235794E0,-4.864135564E0,5.522893633E0
9.119430834E-1,-6.658440810E-1,1.335944350E0,-2.689652542E0,3.076089473E0
9.219470833E-1,1.135687155E0,2.667193971E0,-1.604216943E0,3.313188946E0
9.319520834E-1,3.186800651E0,2.978665501E0,-3.359581488E0,5.505899956E0
9.419560834E-1,3.148524192E0,3.965580194E0,-2.340182004E0,5.578125373E0
9.519610833E-1,2.050294886E0,3.855198503E0,-1.565736417E0,4.638727751E0
9.619650834E-1,-2.173702419E-3,1.000707397E0,-4.940967393E-1,1.116042834E0
9.719690834E-1,-1.197584902E0,-1.454175343E0,-9.629253209E-2,1.886294722E0
9.819740833E-1,-2.501122522E0,-2.357635943E0,-1.003917811E0,3.580769761E0
9.919780834E-1,-3.058683770E0,-3.774531193E0,4.843944544E-1,4.882342688E0
1.001982083E0,-4.107578949E0,-5.132972413E0,3.533533815E0,7.463609839E0
1.011987083E0,-4.819285081E0,-6.808689110E0,5.073188142E0,9.763247104E0
1.021991083E0,-2.139461124E-1,-7.971154758E0,3.415041744E0,8.674536946E0
1.031996083E0,6.536867257E0,-7.347871975E0,-3.009549617E0,1.028490374E1
1.042000083E0,3.945953722E0,-3.747203354E0,-5.867947540E0,8.002805263E0
1.052004083E0,-2.949189395E0,-1.810773637E0,-4.024559304E0,5.307890055E0
1.062009083E0,1.736283910E0,-2.233422079E0,-3.737476803E0,4.687386143E0
1.072013083E0,-3.820170758E0,1.201852493E0,-9.374281862E0,1.019388613E1
1.082017083E0,-1.758524497E1,1.786398934E0,-6.832868516E0,1.895046579E1
1.092022083E0,-1.117043892E0,-4.058269671E0,-6.582810584E0,7.813496975E0
1.102026083E0,1.727286449E1,-8.995243124E0,-7.686522386E-1,1.948992234E1
1.112031083E0,1.753188211E1,-7.023075517E0,1.238896943E0,1.892684193E1
1.122035083E0,1.650804517E1,-3.687070588E0,-2.945465449E-1,1.691735211E1
1.132039083E0,2.147220145E1,-4.279129824E0,6.639758956E0,2.287909059E1
1.142044083E0,1.816727564E1,-2.619519283E0,1.337540640E1,2.271152311E1
1.152048083E0,1.392188133E1,-2.303918157E0,1.576689305E1,2.115943607E1
1.162052083E0,8.665486473E0,-2.695547120E0,1.274674769E1,1.564724278E1
1.172057083E0,4.739921408E0,-2.043397803E0,1.022563529E1,1.145451643E1
1.182061083E0,4.883419681E0,-1.886987708E0,7.455659548E0,9.110179454E0
1.192066083E0,6.513543298E0,-1.728373212E0,5.223480295E0,8.526327853E0
1.202070083E0,6.719172916E0,-6.973202276E-1,3.639426305E0,7.673262931E0
1.212074083E0,5.030120475E0,-3.578215313E-1,4.330401500E-1,5.061390324E0
1.222079083E0,1.962102209E0,3.445237935E-2,-6.222157831E0,6.524283878E0
1.232083083E0,-1.521265419E0,4.390594127E0,-1.413975911E1,1.488369420E1
1.242087083E0,-1.972125506E0,8.137744271E0,-1.151824417E1,1.424015834E1
1.252092083E0,-5.087475228E-1,6.403503962E0,-5.491633605E0,8.451137597E0
1.262096083E0,-1.500301981E0,4.021735976E0,-2.894902675E0,5.177424822E0
1.272100083E0,1.159887611E0,1.250611255E0,2.184096429E0,2.771217240E0
1.282105083E0,-2.627005473E0,-3.289238899E0,-4.344810136E-1,4.231905486E0
1.292109083E0,-5.221154857E0,-5.309960614E0,-4.778444034E0,8.848144843E0
1.302114083E0,-4.375321784E0,-5.651609332E0,-6.847510529E0,9.898107354E0
1.312118083E0,-3.259116383E0,-3.501418567E0,-5.323149594E0,7.156653770E0
1.322122083E0,-2.776798859E0,-2.041758243E0,-2.662355985E0,4.355172559E0
1.332127083E0,-3.440684123E0,-3.218365383E0,-1.317755417E0,4.892102034E0
1.342131083E0,-1.613124007E0,-5.444262972E0,-6.952103768E0,8.976297409E0
1.352135083E0,-2.506154636E0,-3.777871415E0,-4.905418661E0,6.679540083E0
1.362140083E0,-7.089622094E0,1.549921453E-2,1.326468937E0,7.212662581E0
1.372144083E0,-9.978041961E0,8.213355786E-1,-5.602193928E-1,1.002745029E1
1.382149083E0,-1.166514845E1,1.591347222E0,4.138893127E-1,1.178046598E1
1.392153083E0,-1.134292827E1,1.734104653E0,-3.767361045E-1,1.148090026E1
1.402157083E0,-1.065840176E1,-2.826707768E-1,-1.148218907E0,1.072379771E1
1.412162083E0,-9.773284163E0,-1.314261998E0,6.841637000E-2,9.861493231E0
1.422166083E0,-8.258656504E0,-5.197063744E-1,5.350329499E-1,8.292271235E0
1.432170083E0,-6.500895771E0,1.132299278E0,4.523470348E-1,6.614254706E0
1.442175083E0,-4.439524212E0,3.797704878E0,1.764662787E0,6.102947839E0
1.452179083E0,-4.431349220E0,5.287558762E0,1.800883949E0,7.130099338E0
1.462184083E0,-6.454826143E0,3.680092228E0,3.079436123E-1,7.436577749E0
1.472188083E0,-7.526127852E0,3.271358698E0,-2.400051645E0,8.550124916E0
1.482192083E0,-5.992466336E0,4.098946412E0,-3.422209845E0,8.026364975E0
1.492197083E0,-6.362822544E0,3.731311791E0,-3.683990859E0,8.244997699E0
1.502201083E0,-6.694843821E0,3.519039736E0,-3.381220279E0,8.284758598E0
1.512205083E0,-6.921175506E0,3.495495338E0,-3.484607822E0,8.500802886E0
1.522210083E0,-6.563911799E0,3.699517556E0,-3.422025073E0,8.275362460E0
1.532214083E0,-6.443972542E0,3.897873237E0,-3.467950274E0,8.291253041E0
1.542219083E0,-6.107199817E0,4.082786754E0,-3.436425596E0,8.110244026E0
1.552223083E0,-5.429229780E0,3.927753094E0,-3.535009067E0,7.576283355E0
1.562227083E0,-4.622246193E0,3.534327282E0,-3.082150401E0,6.584548602E0
1.572232083E0,-4.436235738E0,3.049410671E0,-2.110683467E0,5.782220824E0
1.582236083E0,-4.825228776E0,2.666953651E0,-8.719227648E-1,5.581731257E0
1.592240083E0,-5.334824730E0,2.539282621E0,6.233118729E-1,5.941113432E0
1.602245083E0,-6.373606564E0,-2.168843383E-1,3.874169794E0,7.461842336E0
1.612249083E0,-7.009749128E0,-7.947122117E0,5.644228392E0,1.200627531E1
1.622254458E0,-3.866543271E0,-1.294130443E1,1.783935356E0,1.362387400E1
1.632258458E0,-6.599302071E-1,-1.577616439E1,-2.043150465E0,1.592159962E1
1.642262458E0,1.151217008E1,-1.889570072E1,-2.573663372E0,2.227557651E1
1.652267458E0,1.960759455E1,-2.211767325E1,-9.310332911E-1,2.957221765E1
1.662271458E0,1.826784424E1,-2.474731114E1,-1.362910978E0,3.078962598E1
1.672275458E0,2.087457859E1,-3.090588635E1,-4.642651806E0,3.758292243E1
1.682280458E0,2.009561720E1,-2.253735364E1,-5.081500836E-1,3.019974100E1
1.692284458E0,1.533059837E1,-1.056285708E1,-3.079719129E0,1.887023757E1
1.702289458E0,1.138903825E1,-3.467728080E0,-5.873026432E0,1.327508078E1
1.712293458E0,8.298933880E0,7.655157191E-1,-9.436509100E0,1.258991747E1
1.722297458E0,2.844651996E0,2.383832054E0,-1.232294618E1,1.286972038E1
1.732302458E0,-9.327302992E-1,2.217642490E0,-8.662564620E0,8.990436575E0
1.742306458E0,3.404547161E-1,1.594356199E0,-3.001336033E0,3.415537891E0
1.752310458E0,7.774943250E-1,9.793214983E-1,-5.500335431E-1,1.366054509E0
1.762315458E0,6.095470887E-1,5.196286064E-1,9.467123075E-1,1.240091019E0
1.772319458E0,1.972198597E-1,3.601381981E-1,1.611005122E0,1.662507954E0
1.782324458E0,-5.704260001E-1,5.555965841E-1,1.751949770E0,1.924422351E0
1.792328458E0,-1.258329579E0,6.212953144E-1,1.714907659E0,2.215921812E0
1.802332458E0,-1.752224882E0,2.289529914E-1,1.640632672E0,2.411304019E0
1.812337458E0,-2.181958103E0,-5.400839210E-2,1.514492004E0,2.656603865E0
1.822341458E0,-2.585008724E0,-1.455927461E-1,1.315499415E0,2.904136027E0
1.832345458E0,-3.066854377E0,-9.867234886E-2,1.007243561E0,3.229531172E0
1.842350458E0,-3.499547751E0,5.913084537E-1,8.013630979E-1,3.638497349E0
1.852354458E0,-3.686868274E0,1.479575356E0,5.547181861E-1,4.011215922E0
1.862359458E0,-3.073546223E0,2.495452477E0,4.648303286E-1,3.986230887E0
1.872363458E0,-2.121184190E0,2.876343028E0,1.480223373E-1,3.576965501E0
1.882367458E0,-1.267850016E0,3.413939543E0,9.480331935E-2,3.642995270E0
1.892372458E0,-4.185504207E-1,3.951578743E0,5.198817909E-1,4.007547392E0
1.902376458E0,-9.379898697E-2,4.237196517E0,7.709577227E-1,4.307784626E0
1.912380458E0,2.184870601E-1,5.138950022E0,1.115486194E0,5.263160018E0
1.922385458E0,9.018239638E-1,6.106946048E0,1.935000365E0,6.469335585E0
1.932389458E0,9.804573199E-1,6.718419210E0,2.411056251E0,7.204973663E0
1.942394458E0,-7.124656856E-2,4.947695784E0,2.416225190E0,5.506624539E0
1.952398458E0,-9.089011413E-1,3.514820386E0,2.730609949E0,4.542718825E0
1.962402458E0,-6.755364257E-1,3.538299295E0,3.266069891E0,4.862419552E0
1.972407458E0,-1.438637245E-1,3.281586063E0,3.623356987E0,4.890625698E0
1.982411458E0,5.936216122E-1,2.434789369E0,3.482991067E0,4.290898817E0
1.992416458E0,1.171600168E0,1.180836430E0,2.991426172E0,3.422813488E0
2.002420458E0,1.136255504E0,-3.574607581E-1,2.101389903E0,2.415511186E0
2.012424458E0,7.891887563E-1,-1.423848467E0,1.207572824E0,2.026917728E0
2.022429458E0,4.590344954E-1,-2.250787432E0,3.458685800E-1,2.323011366E0
2.032433458E0,1.272646487E-2,-2.558701808E0,-4.532270408E-1,2.598563383E0
2.042437458E0,-2.925145644E-1,-1.681896619E0,-9.198043712E-1,1.939170206E0
2.052442458E0,-5.054824376E-1,-4.737712330E-1,-1.135250952E0,1.329949774E0
2.062446458E0,-6.029485059E-1,1.055153453E0,-1.306182607E0,1.784098852E0
2.072450458E0,-7.608589965E-1,2.038623551E0,-1.279321668E0,2.524194193E0
2.082455458E0,-6.519499272E-1,3.792626279E0,-4.333967936E-1,3.872581255E0
2.092459458E0,-1.999443113E0,3.275017301E0,-1.240416634E-1,3.839127169E0
2.102464458E0,-2.038021288E0,6.947784430E-1,-1.050004395E0,2.395570305E0
2.112468458E0,-5.079447001E-1,-1.524881921E0,-1.876532886E0,2.470758662E0
2.122472458E0,1.652405602E0,-3.522443401E0,-2.364302938E0,4.552799157E0
2.132477458E0,3.413336695E0,-4.974247406E0,-2.224603601E0,6.429841820E0
2.142481458E0,4.893214352E0,-5.321522314E0,-1.901983477E0,7.475271740E0
2.152485458E0,5.358120621E0,-5.158116610E0,-1.730472947E0,7.636108968E0
2.162490458E0,5.213959858E0,-5.104479516E0,-1.669052625E0,7.485106893E0
2.172494458E0,4.674127368E0,-5.176663393E0,-1.800791563E0,7.203343723E0
2.182499458E0,3.700906854E0,-4.593259791E0,-1.552744489E0,6.099652654E0
2.192503458E0,2.072253812E0,-3.488608487E0,-9.865498263E-1,4.175871837E0
2.202507458E0,2.960328341E-1,-3.336660402E0,-1.524308310E0,3.680279052E0
2.212512458E0,-7.368257707E-1,-3.992779394E0,-2.799764383E0,4.931924585E0
2.222516458E0,-7.062372315E-1,-4.533694789E0,-4.220912021E0,6.234521454E0
2.232520458E0,-1.104948342E-2,-4.766937298E0,-4.502266590E0,6.556997617E0
2.242525458E0,1.004477974E0,-4.165400310E0,-3.020728324E0,5.242550463E0
2.252529458E0,1.923499476E0,-3.229980876E0,-1.488856641E0,4.043429336E0
2.262534458E0,2.165027490E0,-3.148222184E0,-1.008871572E0,3.951767807E0
2.272538458E0,2.238269713E0,-3.262635237E0,-1.291790271E-1,3.958702719E0
2.282542458E0,1.543129912E0,-3.494237602E0,9.097975194E-1,3.926662434E0
2.292547458E0,6.684893614E-1,-3.322272159E0,1.338332938E0,3.643556693E0
2.302551458E0,-6.926582426E-1,-2.835373342E0,1.106517735E0,3.121457821E0
2.312555458E0,-2.037253549E0,-1.823574654E0,5.922820151E-1,2.797610503E0
2.322560458E0,-3.151728759E0,-8.696616465E-1,1.358389874E-1,3.272332162E0
2.332564458E0,-4.028081374E0,-1.001978874E-2,2.218551476E-2,4.028154931E0
2.342569458E0,-4.369442409E0,6.724093348E-1,-1.196819794E-1,4.422497603E0
2.352573458E0,-4.552131645E0,1.241864989E0,-3.706058836E-1,4.733020165E0
2.362577458E0,-4.748379990E0,1.869416240E0,-5.372269714E-1,5.131319755E0
2.372582458E0,-5.106355303E0,2.478556362E0,-5.725511706E-1,5.704903239E0
2.382586458E0,-5.060371630E0,3.212638620E0,-6.485848546E-1,6.029019012E0
2.392590458E0,-4.773764507E0,3.315989910E0,-9.497994912E-1,5.889544611E0
2.402595458E0,-4.676235874E0,3.519462490E0,-9.949750793E-1,5.936646661E0
2.412599458E0,-4.668149174E0,3.850044183E0,-9.973958266E-1,6.132638531E0
2.422604458E0,-4.576911560E0,4.065752646E0,-1.106564512E0,6.221169426E0
2.432608458E0,-4.668178995E0,4.158191863E0,-1.159423342E0,6.358200782E0
2.442612458E0,-4.822480584E0,3.835578756E0,-7.778492510E-1,6.210719188E0
2.452617458E0,-4.773102602E0,3.417971783E0,-1.368259426E-1,5.872287536E0
2.462621458E0,-4.680431251E0,3.118013713E0,3.441776748E-1,5.634439145E0
2.472625458E0,-4.819424245E0,2.596542649E0,8.169074821E-1,5.534999694E0
2.482630458E0,-4.809590397E0,2.011460311E0,1.334576687E0,5.381377826E0
2.492634458E0,-4.531854086E0,1.541533622E0,1.745452344E0,5.095157628E0
2.502639458E0,-4.072604413E0,1.357942160E0,2.047091489E0,4.756122074E0
2.512643458E0,-3.498946365E0,1.241761494E0,2.356910888E0,4.397684186E0
2.522647458E0,-2.658924254E0,8.964682066E-1,2.613766208E0,3.834749956E0
2.532652458E0,-1.770091342E0,5.723324847E-1,2.722050794E0,3.297021134E0
2.542656458E0,-8.907203937E-1,3.506703866E-1,2.768544345E0,2.929366882E0
2.552660458E0,6.331365108E-3,6.002751589E-2,2.696855142E0,2.697530546E0
2.562665458E0,8.214250410E-1,-2.024206656E-1,2.560583442E0,2.696720377E0
2.572669458E0,1.413508835E0,-3.819851500E-1,2.579907321E0,2.966452708E0
2.582674458E0,1.942001821E0,-3.999910659E-1,2.550609262E0,3.230630207E0
2.592678458E0,2.397414551E0,-3.374586028E-1,2.369243835E0,3.387446116E0
2.602682458E0,2.811936532E0,-1.536162955E-1,2.073392265E0,3.497075995E0
2.612687458E0,3.111928516E0,-6.664890289E-2,1.659519324E0,3.527399262E0
2.622690875E0,3.218399881E0,-1.250064540E-1,1.140281897E0,3.416718779E0
2.632694875E0,3.620866658E0,-7.980338395E-2,3.006345928E-1,3.634202126E0
2.642699875E0,4.996997167E0,7.432044983E-2,-1.658163940E0,5.265454574E0
2.652703875E0,7.308611430E0,1.812823963E-1,-4.622535045E0,8.649652859E0
2.662708875E0,1.051405622E1,7.890583634E-2,-8.829255874E0,1.372979838E1
2.672712875E0,1.048013067E1,-9.368063933E-1,-1.020005021E1,1.465441127E1
2.682716875E0,8.355415059E0,-1.668893580E0,-8.495520194E0,1.203212491E1
2.692721875E0,6.579985210E0,-1.728572602E0,-6.463298174E0,9.383943302E0
2.702725875E0,5.098773218E0,-1.886312939E0,-4.435531733E0,7.016381303E0
2.712729875E0,3.368861604E0,-2.298955041E0,-2.393948321E0,4.729208322E0
2.722734875E0,2.304259050E0,-2.666066628E0,-1.310313081E0,3.759579950E0
2.732738875E0,1.515105962E0,-1.771991102E0,-7.358861232E-1,2.444795887E0
2.742743875E0,1.527103279E0,-1.177108830E0,-6.896767473E-1,2.047750873E0
2.752747875E0,2.161820877E0,-6.042746544E-1,-8.207749037E-1,2.390039498E0
2.762751875E0,2.344955086E0,2.686351204E-1,-5.170974199E-1,2.416271699E0
2.772756875E0,2.428952678E0,1.851813197E-1,3.093761802E-2,2.436197933E0
2.782760875E0,2.259260632E0,-3.862892854E-1,9.882215452E-1,2.496008782E0
2.792764875E0,1.986662854E0,-9.960591531E-1,2.182600712E0,3.114917174E0
2.802769875E0,1.649425276E0,-1.461331458E0,3.076884398E0,3.784615036E0
2.812773875E0,1.375731729E0,-1.936607180E0,3.700830256E0,4.397639110E0
2.822778875E0,9.830303872E-1,-2.118593581E0,4.242647291E0,4.843020085E0
2.832782875E0,8.744136786E-1,-2.205192014E0,4.836216863E0,5.386693295E0
2.842786875E0,5.198665881E-1,-2.416220366E0,5.276613944E0,5.826751825E0
2.852791875E0,-1.425492704E-1,-2.072977697E0,5.501856877E0,5.881155152E0
2.862795875E0,-6.122531801E-1,-1.757729158E0,5.425546035E0,5.735940683E0
2.872799875E0,-1.099317473E0,-1.260455627E0,5.223026551E0,5.484273302E0
2.882804875E0,-1.170757585E0,-4.774204803E-1,4.849494721E0,5.011606797E0
2.892808875E0,-9.838378876E-1,2.122656226E-1,4.359169436E0,4.473852015E0
2.902813875E0,-8.605779970E-1,8.647336131E-1,4.085410985E0,4.263677008E0
2.912817875E0,-1.079833966E0,1.625473911E0,3.844260117E0,4.311211277E0
2.922821875E0,-1.364734871E0,2.221849562E0,3.640310404E0,4.477831683E0
2.932826875E0,-1.990241935E0,2.647631527E0,3.320581144E0,4.690125243E0
2.942830875E0,-2.416567106E0,2.938593655E0,3.004984696E0,4.848201963E0
2.952834875E0,-2.634723213E0,3.059245103E0,2.693689460E0,4.853525514E0
2.962839875E0,-3.311631396E0,2.797343636E0,2.181461674E0,4.852917571E0
2.972843875E0,-3.427513855E0,3.011299689E0,1.906682446E0,4.944816982E0
2.982848875E0,-3.569738604E0,2.668865690E0,1.598150311E0,4.734972248E0
2.992852875E0,-3.381651803E0,2.521746821E0,1.161713111E0,4.375426071E0
3.002856875E0,-3.100611815E0,2.261498362E0,7.757385524E-1,3.915346571E0
3.012861875E0,-2.818097159E0,1.668017083E0,4.357076132E-1,3.303603140E0
3.022865875E0,-2.643500469E0,9.900084543E-1,2.421786623E-1,2.833171716E0
3.032869875E0,-2.435239604E0,4.881208849E-1,-2.666907750E-2,2.483820679E0
3.042874875E0,-2.151373656E0,1.432211155E-1,-1.951916067E-1,2.164952808E0
3.052878875E0,-1.718286180E0,-1.913062781E-1,-8.257540271E-2,1.730873822E0
3.062883875E0,-1.294708616E0,-5.054356599E-1,1.182225875E-1,1.394887876E0
3.072887875E0,-8.858291978E-1,-7.337150520E-1,1.178297277E-1,1.156250401E0
3.082891875E0,-8.489695197E-1,-5.678120023E-1,-8.557283163E-2,1.024930449E0
3.092896875E0,-9.176316190E-1,-3.601387829E-1,-3.468918427E-1,1.045027120E0
3.102900875E0,-1.011875287E0,-1.035319698E-1,-6.994730993E-1,1.234452543E0
3.112904875E0,-1.222660394E0,2.633030444E-1,-9.829062800E-1,1.590701634E0
3.122909875E0,-1.514275072E0,4.731175143E-1,-1.251189544E0,2.020481243E0
3.132913875E0,-1.770409430E0,4.165082806E-1,-1.514896631E0,2.367010879E0
3.142918875E0,-1.941364474E0,-1.209350377E-1,-1.675206234E0,2.567067828E0
3.152922875E0,-2.046877481E0,-9.750068378E-1,-1.803166556E0,2.896852668E0
3.162926875E0,-1.979849094E0,-1.987692549E0,-1.939417205E0,3.410581064E0
3.172931875E0,-1.655618647E0,-3.045097180E0,-1.959035929E0,3.981395699E0
3.182935875E0,-1.123085820E0,-3.845111471E0,-1.863996456E0,4.418222128E0
3.192939875E0,-4.668984157E-1,-4.136735505E0,-1.672626443E0,4.486452272E0
3.202944875E0,4.232968980E-1,-3.890343193E0,-1.492479576E0,4.188250913E0
3.212948875E0,1.192378249E0,-3.410710126E0,-1.376915206E0,3.866601213E0
3.222953875E0,1.748896939E0,-3.185000001E0,-1.327659431E0,3.868532677E0
3.232957875E0,2.123086581E0,-3.190402243E0,-1.282845346E0,4.041269019E0
3.242961875E0,2.286080056E0,-3.306561860E0,-1.149798971E0,4.181094478E0
3.252966875E0,2.143455942E0,-3.037698698E0,-1.015546680E0,3.854004646E0
3.262970875E0,2.059104593E0,-2.568295920E0,-1.023060352E0,3.447130422E0
3.272974875E0,1.991434182E0,-2.220378987E0,-1.162645011E0,3.201192960E0
3.282979875E0,1.873378898E0,-2.042447045E0,-1.296620071E0,3.059797712E0
3.292983875E0,1.895514702E0,-2.098121309E0,-1.029750663E0,3.009231703E0
3.302988875E0,1.768013826E0,-2.412996211E0,-3.288449232E-1,3.009412333E0
3.312992875E0,1.435812455E0,-2.868415958E0,6.236757159E-1,3.267772775E0
3.322996875E0,1.136318654E0,-3.231297669E0,1.582827098E0,3.773307082E0
3.333001875E0,9.329770517E-1,-3.370114077E0,2.486120321E0,4.290560490E0
3.343005875E0,5.633815670E-1,-3.122372228E0,3.176159595E0,4.489387140E0
3.353009875E0,3.548090458E-3,-2.425360733E0,3.455553592E0,4.221757680E0
3.363014875E0,-6.473750657E-1,-1.607144644E0,3.293742424E0,3.721659246E0
3.373018875E0,-1.331029766E0,-8.405834430E-1,2.939124875E0,3.334167931E0
3.383023875E0,-2.022558326E0,8.522550702E-2,2.637532800E0,3.324843582E0
3.393027875E0,-2.622979665E0,1.074048146E0,2.355550826E0,3.685406550E0
3.403031875E0,-3.091292523E0,2.048180240E0,2.053946618E0,4.239083447E0
3.413036875E0,-3.542092969E0,2.872669807E0,1.806704267E0,4.905388336E0
3.423040875E0,-3.722376661E0,3.520331971E0,1.632266622E0,5.377092106E0
3.433045875E0,-3.696928116E0,3.982206459E0,1.525439161E0,5.643776255E0
3.443049875E0,-3.477977372E0,4.254582628E0,1.514773694E0,5.700205196E0
3.453053875E0,-3.037594325E0,4.351313701E0,1.552125853E0,5.529014820E0
3.463058875E0,-2.375911415E0,4.265651407E0,1.677976499E0,5.162978027E0
3.473062875E0,-1.710099494E0,4.140425683E0,1.861435375E0,4.851031516E0
3.483066875E0,-1.081314189E0,3.937040226E0,2.020637370E0,4.555491356E0
3.493071875E0,-3.558393252E-1,3.731549188E0,2.229939770E0,4.361618088E0
3.503075875E0,4.740875673E-1,3.542171322E0,2.447200084E0,4.331342164E0
3.513080875E0,1.246777528E0,3.333007647E0,2.637827500E0,4.429619408E0
3.523084875E0,2.033297322E0,3.096432225E0,2.777871823E0,4.630201118E0
3.533088875E0,2.720172669E0,2.952743332E0,2.845727592E0,4.920995637E0
3.543093875E0,3.320118922E0,2.801980478E0,2.826498438E0,5.182989261E0
3.553097875E0,3.897767987E0,2.643533213E0,2.738598415E0,5.448007380E0
3.563101875E0,4.412846290E0,2.511644002E0,2.604705070E0,5.706667721E0
3.573106875E0,4.830880987E0,2.392222808E0,2.392882959E0,5.897968288E0
3.583110875E0,5.060110259E0,2.308242758E0,2.062764366E0,5.931921889E0
3.593115875E0,5.254634260E0,2.373857288E0,1.641293553E0,5.995016610E0
3.603119875E0,5.451649175E0,2.437059258E0,1.170685152E0,6.085247758E0
3.613123875E0,5.628335075E0,2.473393271E0,6.244254021E-1,6.179460904E0
3.623129333E0,5.659599552E0,2.539936924E0,9.987117425E-3,6.203422153E0
3.633133333E0,5.592517955E0,2.580863925E0,-6.500805724E-1,6.193522457E0
3.643137333E0,5.439219164E0,2.648745421E0,-1.595652527E0,6.256761495E0
3.653142333E0,5.345084839E0,2.591355000E0,-2.540667826E0,6.460653657E0
3.663146333E0,5.504079988E0,2.271898220E0,-3.200662937E0,6.760226422E0
3.673151333E0,5.499597512E0,1.851598020E0,-3.549537059E0,6.802440838E0
3.683155333E0,5.034746207E0,1.276216212E0,-3.910845870E0,6.501700747E0
3.693159333E0,4.214282156E0,3.062555212E-1,-4.351387961E0,6.065356026E0
3.703164333E0,4.343602978E0,-4.915040839E-1,-4.171188469E0,6.042125151E0
3.713168333E0,5.041155925E0,-4.344440299E-1,-2.836064483E0,5.800453122E0
3.723172333E0,5.883686491E0,-6.581818897E-1,-1.121022338E0,6.025583889E0
3.733177333E0,6.715147108E0,-1.721286387E0,-1.641605429E-1,6.934188935E0
3.743181333E0,7.158141521E0,-2.474039388E0,5.409851231E-2,7.573822521E0
3.753186333E0,7.065943210E0,-2.558256251E0,4.409505922E-2,7.514929997E0
3.763190333E0,6.863368762E0,-2.601456649E0,-1.319319328E-1,7.341036269E0
3.773194333E0,6.535265704E0,-2.669489588E0,-3.380158059E-1,7.067540391E0
3.783199333E0,5.922967501E0,-2.488499553E0,-4.231921963E-1,6.438421054E0
3.793203333E0,5.270845081E0,-2.117099617E0,-4.649986919E-1,5.699135236E0
3.803208333E0,4.661316118E0,-1.936484388E0,-2.116808280E-1,5.051994508E0
3.813212333E0,4.141039348E0,-2.418121296E0,4.199750217E-1,4.813719612E0
3.823216333E0,3.474613761E0,-2.727917891E0,1.354395239E0,4.620483013E0
3.833221333E0,3.109228564E0,-2.793240060E0,2.016712865E0,4.640756735E0
3.843225333E0,2.667007445E0,-3.273406393E0,2.812798412E0,5.073455729E0
3.853229333E0,1.790326216E0,-3.465216116E0,3.324426273E0,5.124919584E0
3.863234333E0,1.530342636E0,-3.661387278E0,3.784447778E0,5.483589187E0
3.873238333E0,1.191775401E0,-3.528016967E0,4.110626518E0,5.546573960E0
3.883243333E0,7.325947255E-1,-2.951838183E0,4.135478354E0,5.133441819E0
3.893247333E0,4.181402385E-1,-2.482254726E0,4.069405986E0,4.785028199E0
3.903251333E0,-9.469799638E-2,-2.207111070E0,4.201713274E0,4.747072932E0
3.913256333E0,-6.244001859E-1,-1.862275035E0,4.206559446E0,4.642530158E0
3.923260333E0,-1.145829150E0,-1.581145585E0,4.167876606E0,4.602623296E0
3.933264333E0,-1.860489880E0,-1.368777636E0,4.243948882E0,4.831777822E0
3.943269333E0,-2.650739322E0,-1.427771949E0,4.328614225E0,5.272746230E0
3.953273333E0,-3.302980440E0,-1.174079388E0,4.508704959E0,5.711091192E0
3.963278333E0,-4.152126546E0,-1.437088317E0,4.657559867E0,6.402986928E0
3.973282333E0,-5.143185745E0,-8.757070827E-1,4.862275565E0,7.131686068E0
3.983286333E0,-5.575870348E0,-7.078305978E-1,4.845621525E0,7.421010865E0
3.993291333E0,-5.672755787E0,-4.494655269E-1,4.729208139E0,7.399161243E0
4.003295333E0,-6.159932347E0,-1.249625999E-1,4.488819748E0,7.622983989E0
4.013300333E0,-7.080507454E0,-6.005792141E-2,4.272786180E0,8.270060127E0
4.023304333E0,-7.832175797E0,-1.050159931E-1,3.976372107E0,8.784391909E0
4.033308333E0,-8.344842124E0,3.264798707E-1,3.770447205E0,9.162928097E0
4.043313333E0,-8.729391278E0,9.248073220E-2,3.328263216E0,9.342813324E0
4.053317333E0,-8.234059022E0,3.042639595E-1,2.601415719E0,8.640582635E0
4.063321333E0,-8.021318606E0,9.056892657E-1,1.915906867E0,8.296536888E0
4.073326333E0,-7.594016950E0,9.364456201E-1,1.172628694E0,7.740870874E0
4.083330333E0,-6.968949596E0,9.699156672E-1,3.965042981E-1,7.047283912E0
4.093335333E0,-6.388956090E0,9.962275529E-1,-5.365755916E-2,6.466382945E0
4.103339333E0,-5.638585829E0,8.212046009E-1,-3.586143772E-1,5.709345971E0
4.113343333E0,-4.764774413E0,4.532393199E-1,-4.583913747E-1,4.808182998E0
4.123348333E0,-3.920593178E0,2.199792695E-1,-6.406465285E-1,3.978676881E0
4.133352333E0,-2.995502266E0,7.550100267E-2,-9.958720422E-1,3.157609120E0
4.143356333E0,-2.226004009E0,1.123712057E-1,-1.470138534E0,2.670024053E0
4.153361333E0,-1.614816191E0,5.600147402E-1,-2.173831058E0,2.765282862E0
4.163365333E0,-1.008038929E0,9.738777405E-1,-2.866370602E0,3.190714773E0
4.173370333E0,-3.213968861E-1,1.337283947E0,-3.454250833E0,3.717993159E0
4.183374333E0,2.613214231E-1,1.352553951E0,-3.930332301E0,4.164757264E0
4.193378333E0,7.746315283E-1,8.344994152E-1,-4.204385451E0,4.355835201E0
4.203383333E0,1.084520509E0,9.341219366E-2,-4.229247812E0,4.367086858E0
4.213387333E0,1.289679426E0,-7.765535080E-1,-4.268868545E0,4.526538084E0
4.223392333E0,1.619088752E0,-1.609484115E0,-4.197348912E0,4.778035725E0
4.233396333E0,1.975894622E0,-2.289750354E0,-4.077454094E0,5.076686727E0
4.243400333E0,2.362006152E0,-2.518770003E0,-3.932284101E0,5.233176248E0
4.253405333E0,2.707463161E0,-2.250778661E0,-3.893127637E0,5.249076504E0
4.263409333E0,3.069756058E0,-2.094819387E0,-3.910711384E0,5.394935963E0
4.273413333E0,3.392888398E0,-2.110944838E0,-3.747629031E0,5.478366832E0
4.283418333E0,3.602826828E0,-2.148445371E0,-3.304539893E0,5.340052675E0
4.293422333E0,3.742895125E0,-2.367417750E0,-2.558241048E0,5.114540838E0
4.303427333E0,3.965165918E0,-2.769375819E0,-1.542039260E0,5.076403084E0
4.313431333E0,4.273124149E0,-3.478464738E0,-4.453297182E-1,5.527895212E0
4.323435333E0,4.573708456E0,-4.419719692E0,6.542964149E-1,6.393812243E0
4.333440333E0,4.684212645E0,-5.224130505E0,1.754852621E0,7.232765402E0
4.343444333E0,4.733388898E0,-5.846873006E0,2.805844903E0,8.028926455E0
4.353449333E0,4.663186058E0,-6.115482398E0,3.620783043E0,8.500264644E0
4.363453333E0,4.435417712E0,-5.975054498E0,4.166976135E0,8.528651514E0
4.373457333E0,3.829975369E0,-5.303966049E0,4.188600308E0,7.768213418E0
4.383462333E0,2.977953603E0,-4.306259735E0,3.976010749E0,6.574248402E0
4.393466333E0,2.116514896E0,-3.379462021E0,3.689917012E0,5.432852512E0
4.403470333E0,1.101259918E0,-2.234366112E0,3.376254823E0,4.195743314E0
4.413475333E0,3.048036575E-2,-1.129856896E0,3.095650452E0,3.295535978E0
4.423479333E0,-9.948897099E-1,-1.298877096E-1,2.899814336E0,3.068484893E0
4.433484333E0,-1.976863505E0,6.682858783E-1,2.660085511E0,3.380924468E0
4.443488333E0,-2.798577399E0,1.421920640E0,2.556147745E0,4.048182932E0
4.453492333E0,-3.351959642E0,2.132618127E0,2.494840858E0,4.691260431E0
4.463497333E0,-4.080822675E0,2.767976580E0,2.353340578E0,5.463791717E0
4.473501333E0,-4.662879079E0,3.302461208E0,2.208983349E0,6.126034506E0
4.483506333E0,-5.073612649E0,3.725394409E0,2.056271617E0,6.621809555E0
4.493510333E0,-5.393448329E0,4.147196174E0,1.965529847E0,7.081795575E0
4.503514333E0,-5.695681551E0,4.378017350E0,1.880898417E0,7.426008558E0
4.513519333E0,-5.836074368E0,4.511213999E0,1.753782288E0,7.581989718E0
4.523523333E0,-5.849955073E0,4.633275796E0,1.628548962E0,7.638153617E0
4.533527333E0,-5.773917296E0,4.657990807E0,1.546830469E0,7.578105554E0
4.543532333E0,-5.549890584E0,4.719575436E0,1.578600876E0,7.454371772E0
4.553536333E0,-5.195487335E0,4.689016718E0,1.672689447E0,7.195683179E0
4.563541333E0,-4.732749798E0,4.372221590E0,1.904480092E0,6.718800987E0
4.573545333E0,-4.256167808E0,4.052681195E0,2.269920691E0,6.300137239E0
4.583549333E0,-3.757235422E0,3.743368750E0,2.646000738E0,5.927136536E0
4.593554333E0,-3.219354147E0,3.342543871E0,2.922547141E0,5.484352509E0
4.603558333E0,-2.647902253E0,2.876930088E0,3.169594342E0,5.033333027E0
4.613563333E0,-1.961031584E0,2.298003114E0,3.355368569E0,4.514970810E0
4.623566583E0,-1.150747828E0,1.734238554E0,3.384937938E0,3.973614070E0
4.633570583E0,-3.085651714E-1,1.188202752E0,3.353277605E0,3.570925502E0
4.643575583E0,6.639279485E-1,6.635777003E-1,3.287739673E0,3.419117992E0
4.653579583E0,1.686010135E0,1.746832287E-1,3.088256063E0,3.522849687E0
4.663584583E0,2.560361248E0,-1.181915241E-1,2.666039146E0,3.698267660E0
4.673588583E0,3.313274463E0,-1.901602238E-1,1.939543651E0,3.843927439E0
4.683592583E0,3.792156748E0,-1.200152707E-1,1.082020167E0,3.945329404E0
4.693597583E0,4.053802106E0,4.171988368E-3,1.825536541E-1,4.057912611E0
4.703601583E0,4.224020986E0,1.971301049E-1,-9.979325279E-1,4.344776507E0
4.713605583E0,4.468013601E0,3.283018631E-1,-3.196948786E0,5.503763184E0
4.723610583E0,5.398588616E0,9.812978572E-1,-9.282631434E0,1.078308633E1
4.733614583E0,6.740616410E0,5.917043102E-1,-1.114171155E1,1.303548081E1
4.743619583E0,7.334049742E0,4.263204932E-3,-8.883547271E0,1.151979670E1
4.753623583E0,7.229418495E0,-2.330969131E-1,-7.157159189E0,1.017564512E1
4.763627583E0,7.009371398E0,-1.265101824E0,-5.089184954E0,8.753946168E0
4.773632583E0,6.201444654E0,-2.289091957E0,-3.028745734E0,7.271255635E0
4.783636583E0,4.563841864E0,-2.304261974E0,-1.786041377E0,5.415553490E0
4.793641583E0,3.406817635E0,-2.660232861E0,-8.518106087E-1,4.405544982E0
4.803645583E0,3.706756409E0,-3.573359200E0,-3.828289032E-2,5.148825558E0
4.813649583E0,4.260730391E0,-3.888901854E0,1.149983597E-1,5.769801185E0
4.823654583E0,4.080730873E0,-3.848737915E0,-3.022600822E-1,5.617518060E0
4.833658583E0,3.655048896E0,-3.826767586E0,-3.307360590E-1,5.302161723E0
4.843662583E0,3.301542610E0,-3.625605826E0,1.182050093E-1,4.905015152E0
4.853667583E0,3.305075498E0,-3.362479368E0,8.418177172E-1,4.789410049E0
4.863671583E0,3.650081102E0,-3.025829435E0,1.828164718E0,5.081429135E0
4.873676583E0,3.853133851E0,-2.608821802E0,2.816946427E0,5.439464941E0
4.883680583E0,3.509392415E0,-2.068066621E0,3.204099931E0,5.182566067E0
4.893684583E0,2.696841109E0,-1.528732898E0,3.258350397E0,4.497424102E0
4.903689583E0,1.829223649E0,-1.313353048E0,3.231055595E0,3.938359512E0
4.913693583E0,9.799430573E-1,-1.443737186E0,3.370328085E0,3.795230805E0
4.923698583E0,3.729295671E-2,-1.624268800E0,3.647874362E0,3.993322835E0
4.933702583E0,-5.342466456E-1,-1.526460670E0,3.944048699E0,4.262748151E0
4.943706583E0,-7.624839377E-1,-1.297563812E0,4.156824199E0,4.420886904E0
4.953711583E0,-9.450673395E-1,-1.010529258E0,4.297172577E0,4.514422866E0
4.963715583E0,-1.156746486E0,-6.762644041E-1,4.301734575E0,4.505587235E0
4.973719583E0,-1.428290597E0,-2.304785299E-1,4.144908743E0,4.390148388E0
4.983724583E0,-1.634957510E0,2.956410706E-1,3.938461100E0,4.274571971E0
4.993728583E0,-1.713986723E0,8.895345783E-1,3.600256977E0,4.085446433E0
5.003733583E0,-1.751038190E0,1.521307518E0,3.140276402E0,3.904080838E0
5.013737583E0,-1.811149321E0,2.016541541E0,2.814518663E0,3.907456583E0
5.023741583E0,-1.922172158E0,2.464669225E0,2.578829094E0,4.052122863E0
5.033746583E0,-2.080414186E0,2.731299920E0,2.359716236E0,4.166099273E0
5.043750583E0,-2.219193172E0,2.806472894E0,2.043548076E0,4.120339449E0
5.053755583E0,-2.387649116E0,2.836029984E0,1.713569963E0,4.084146960E0
5.063759583E0,-2.563713457E0,2.855988870E0,1.368149060E0,4.074448548E0
5.073763583E0,-2.745727925E0,2.778060688E0,1.007542134E0,4.033829964E0
5.083768583E0,-3.006014975E0,2.521945041E0,6.602781165E-1,3.978982284E0
5.093772583E0,-3.238003256E0,2.261536369E0,4.060177910E-1,3.970398252E0
5.103777583E0,-3.387688469E0,2.000535958E0,2.803249470E-1,3.944256502E0
5.113781583E0,-3.486424552E0,1.697565402E0,2.417225794E-1,3.885268879E0
5.123785583E0,-3.560167882E0,1.250268023E0,3.602656674E-1,3.790482400E0
5.133790583E0,-3.521705482E0,6.764842594E-1,5.947110216E-1,3.635068315E0
5.143794583E0,-3.407484217E0,2.195886755E-1,7.343893091E-1,3.492634469E0
5.153799583E0,-3.296494124E0,2.728316671E-1,7.769511918E-1,3.397788072E0
5.163803583E0,-3.335838284E0,7.216516614E-2,8.847550642E-1,3.451929372E0
5.173807583E0,-2.913494482E0,-1.724291271E-1,8.660300139E-1,3.044370195E0
5.183812583E0,-2.711462656E0,-2.765159976E-1,8.354186705E-1,2.850686792E0
5.193816583E0,-2.641677892E0,-1.042938620E-1,6.257094506E-1,2.716772278E0
5.203820583E0,-2.491133139E0,1.336772901E-1,2.308023926E-1,2.505370966E0
5.213825583E0,-2.269525419E0,3.326130152E-1,-1.363780459E-1,2.297819840E0
5.223829583E0,-2.034288425E0,2.123124003E-1,-4.844686409E-1,2.101931449E0
5.233834583E0,-1.788421778E0,-1.432819265E-1,-7.359995592E-1,1.939246637E0
5.243838583E0,-1.479276563E0,-6.159749329E-1,-9.102126718E-1,1.842870417E0
5.253842583E0,-1.154027531E0,-1.367864301E0,-1.061173820E0,2.080606201E0
5.263847583E0,-8.270699430E-1,-2.350179573E0,-1.135608875E0,2.738064322E0
5.273851583E0,-4.408063853E-1,-3.376676992E0,-1.005717584E0,3.550735929E0
5.283856583E0,-9.583995759E-2,-3.966638832E0,-7.975719094E-1,4.047163188E0
5.293860583E0,2.157640117E-1,-3.954069657E0,-6.451783399E-1,4.012166005E0
5.303864583E0,6.232015067E-1,-3.569367306E0,-6.099651647E-1,3.674346280E0
5.313869583E0,1.051372059E0,-3.225037056E0,-7.347798300E-1,3.470756202E0
5.323873583E0,1.427476664E0,-2.926781695E0,-9.866509831E-1,3.402531540E0
5.333877583E0,1.587995013E0,-2.728414904E0,-1.291224260E0,3.410753016E0
5.343882583E0,1.686627016E0,-2.537212121E0,-1.648487967E0,3.464053784E0
5.353886583E0,1.776965913E0,-2.472441344E0,-1.907864606E0,3.593121403E0
5.363891583E0,1.856838294E0,-2.663399128E0,-2.036360679E0,3.832532868E0
5.373895583E0,1.928271389E0,-3.172961753E0,-2.017588778E0,4.225704830E0
5.383899583E0,2.038021873E0,-3.800141705E0,-1.754214982E0,4.655306685E0
5.393904583E0,2.210949767E0,-4.367943767E0,-1.204691316E0,5.041677577E0
5.403908583E0,2.536931455E0,-4.793366128E0,-5.441957561E-1,5.450553097E0
5.413913583E0,2.850098385E0,-4.794582349E0,1.214642107E-1,5.579053169E0
5.423917583E0,3.040001332E0,-4.202736536E0,6.160719967E-1,5.223422938E0
5.433921583E0,3.059728668E0,-3.126300972E0,8.488286018E-1,4.456030440E0
5.443926583E0,2.751608469E0,-2.056930014E0,7.943174223E-1,3.526081454E0
5.453930583E0,2.109877136E0,-9.970508409E-1,6.773052815E-1,2.429904186E0
5.463935583E0,1.135165583E0,-6.201907754E-2,5.656164459E-1,1.269791018E0
5.473939583E0,5.872592568E-2,6.344802010E-1,4.925812141E-1,8.053881749E-1
5.483943583E0,-1.022523066E0,1.224021626E0,4.754991583E-1,1.664296191E0
5.493948583E0,-2.001039403E0,1.780877700E0,3.873231462E-1,2.706603646E0
5.503952583E0,-2.809673660E0,2.332715110E0,2.960352460E-1,3.663804406E0
5.513956583E0,-3.107205135E0,2.832535104E0,2.007326476E-1,4.209307836E0
5.523961583E0,-3.107599238E0,3.194691761E0,-5.582453728E-2,4.457167805E0
5.533965583E0,-2.978165857E0,3.646487988E0,-6.492491714E-1,4.752669881E0
5.543970583E0,-2.786320465E0,3.841376270E0,-1.009335841E0,4.851650464E0
5.553974583E0,-2.868834618E0,3.881065416E0,-7.616618192E-1,4.886001387E0
5.563978583E0,-3.314359707E0,3.700708049E0,4.851946458E-3,4.967921484E0
5.573983583E0,-4.057402822E0,3.324960709E0,7.625530080E-1,5.300883743E0
5.583987583E0,-4.670421987E0,3.011769220E0,1.489948901E0,5.753567858E0
5.593992583E0,-4.718382019E0,2.678041726E0,2.195773319E0,5.852901574E0
5.603996583E0,-4.424536629E0,2.473928876E0,2.805243809E0,5.793638001E0
5.614000583E0,-3.959522186E0,2.394961644E0,3.373507801E0,5.726623098E0
5.624006333E0,-3.304495454E0,2.337522690E0,3.719791607E0,5.497322269E0
5.634010333E0,-2.664524717E0,2.342734898E0,3.906976182E0,5.277552621E0
5.644015333E0,-2.086896994E0,2.291749517E0,4.070891179E0,5.116581857E0
5.654019333E0,-1.588013139E0,2.272923821E0,4.144528674E0,4.986490385E0
5.664023333E0,-1.153905909E0,2.234140994E0,4.153312361E0,4.855191901E0
5.674028333E0,-7.744830090E-1,2.210900066E0,4.118977511E0,4.738552392E0
5.684032333E0,-3.319259673E-1,2.185595655E0,3.985100831E0,4.557195612E0
5.694037333E0,9.732398093E-2,2.120217937E0,3.820191808E0,4.370201541E0
5.704041333E0,4.859808040E-1,1.995086938E0,3.624487839E0,4.165748591E0
5.714045333E0,8.763426751E-1,1.813455462E0,3.352860113E0,3.911300057E0
5.724050333E0,1.128034903E0,1.580749143E0,2.998826408E0,3.572700719E0
5.734054333E0,1.276274099E0,1.377777085E0,2.435057756E0,3.075166914E0
5.744058333E0,1.495275130E0,1.167963785E0,1.514437040E0,2.427654560E0
5.754063333E0,1.984439743E0,1.120611863E0,-4.503244829E-1,2.323050619E0
5.764067333E0,2.909345298E0,1.830984830E0,-5.893346676E0,6.822633696E0
5.774072333E0,4.743994578E0,1.793526397E0,-9.228655787E0,1.053044677E1
5.784076333E0,6.772281421E0,1.614772922E-1,-7.768376827E0,1.030716009E1
5.794080333E0,8.860419195E0,-8.917109120E-1,-6.621004597E0,1.109684093E1
5.804085333E0,1.009352681E1,-1.208741682E0,-5.951583774E0,1.177971516E1
5.814089333E0,8.612517132E0,-1.270780640E0,-4.786716675E0,9.934937911E0
5.824094333E0,6.431240230E0,-1.485117347E0,-3.659878696E0,7.547260198E0
5.834098333E0,5.004289230E0,-2.021397654E0,-2.684476587E0,6.027883021E0
5.844102333E0,3.655886802E0,-2.281129804E0,-1.669471285E0,4.621276432E0
5.854107333E0,3.361604624E0,-2.790031693E0,-5.141047784E-1,4.398745983E0
5.864111333E0,4.043929667E0,-3.411985989E0,3.415685741E-1,5.302045325E0
5.874116333E0,4.615557563E0,-3.769987614E0,5.628096728E-1,5.986061556E0
5.884120333E0,4.362853181E0,-3.998278116E0,1.765110501E-1,5.920462138E0
5.894124333E0,3.647116563E0,-3.663005787E0,8.889637074E-2,5.169813651E0
5.904129333E0,2.714076362E0,-3.122511392E0,4.645378947E-1,4.163181877E0
5.914133333E0,2.531298832E0,-2.465639863E0,9.491995668E-1,3.658938853E0
5.924138333E0,2.866485792E0,-1.761336890E0,1.612431697E0,3.730815516E0
5.934142333E0,3.250594651E0,-1.163559077E0,2.283668665E0,4.139490051E0
5.944146333E0,3.172888078E0,-5.841988242E-1,2.839497968E0,4.297819881E0
5.954151333E0,2.610860142E0,3.084289312E-2,2.996907352E0,3.974795044E0
5.964155333E0,1.924646115E0,4.709575528E-1,3.017376115E0,3.609795328E0
5.974159333E0,1.177254426E0,5.653397995E-1,3.116427948E0,3.379002846E0
5.984164333E0,3.923031467E-1,3.335620183E-1,3.264022197E0,3.304391968E0
5.994168333E0,-2.587287676E-1,9.365836143E-2,3.406755069E0,3.417849114E0
6.004173333E0,-7.711167669E-1,-2.444054282E-1,3.500346773E0,3.592601093E0
6.014177333E0,-1.257432616E0,-5.784714764E-1,3.655868676E0,3.909110104E0
6.024181333E0,-1.715542082E0,-8.088307232E-1,3.784168282E0,4.232873889E0
6.034186333E0,-2.116200315E0,-9.848155421E-1,3.790363991E0,4.451407037E0
6.044190333E0,-2.418209589E0,-1.035086979E0,3.644880588E0,4.494919039E0
6.054195333E0,-2.691028976E0,-1.014982497E0,3.372961671E0,4.432685062E0
6.064199333E0,-2.840694893E0,-7.884952766E-1,3.275715458E0,4.406992630E0
6.074203333E0,-2.948439782E0,-4.583825308E-1,3.197692552E0,4.373631140E0
6.084208333E0,-2.893843744E0,5.923989594E-2,3.096464385E0,4.238623912E0
6.094212333E0,-2.958644927E0,4.972326010E-1,3.011513697E0,4.250886356E0
6.104217333E0,-3.005072404E0,8.302157450E-1,3.026527008E0,4.345064334E0
6.114221333E0,-3.349692092E0,1.014930457E0,2.967364880E0,4.588657241E0
6.124225333E0,-3.476231686E0,1.205614007E0,2.834420246E0,4.644526886E0
6.134230333E0,-3.885880013E0,1.439790900E0,2.672786833E0,4.931211896E0
6.144234333E0,-4.376021111E0,1.377233294E0,2.575258784E0,5.261016073E0
6.154239333E0,-4.458527663E0,1.393202625E0,2.414591331E0,5.258301415E0
6.164243333E0,-4.610196251E0,1.463772086E0,2.229322304E0,5.326013155E0
6.174247333E0,-5.119402780E0,1.249635939E0,1.905544431E0,5.603657233E0
6.184252333E0,-5.534961473E0,9.415584254E-1,1.493142650E0,5.809630431E0
6.194256333E0,-5.705915932E0,6.716199607E-1,1.160568227E0,5.861353820E0
6.204260333E0,-5.561486197E0,5.118506402E-1,8.019853878E-1,5.642277941E0
6.214265333E0,-5.058109927E0,4.443345952E-1,4.456689298E-1,5.097109971E0
6.224269333E0,-4.357615246E0,4.947025108E-1,1.544460336E-1,4.388324826E0
6.234274333E0,-3.622817874E0,5.982502681E-1,-1.301742232E-1,3.674188082E0
6.244278333E0,-2.926377652E0,6.273588771E-1,-3.256595063E-1,3.010534743E0
6.254282333E0,-2.236514379E0,6.590367526E-1,-4.576545525E-1,2.376083689E0
6.264287333E0,-1.556464487E0,6.942176950E-1,-6.255222666E-1,1.815433286E0
6.274291333E0,-1.015885892E0,7.328876710E-1,-8.781629133E-1,1.529809984E0
6.284296333E0,-5.155794096E-1,6.385077631E-1,-1.237654409E0,1.485026171E0
6.294300333E0,-9.341511726E-3,2.700261730E-1,-1.623946034E0,1.646269151E0
6.304304333E0,4.790161854E-1,-2.573540872E-1,-1.993911647E0,2.066729612E0
6.314309333E0,8.706176662E-1,-8.880944091E-1,-2.397685862E0,2.701033930E0
6.324313333E0,1.254217232E0,-1.610286353E0,-2.836339302E0,3.494410343E0
6.334318333E0,1.532322503E0,-2.362257582E0,-3.374241042E0,4.394744105E0
6.344322333E0,1.766740302E0,-3.038713775E0,-3.945733282E0,5.284312995E0
6.354326333E0,1.856753510E0,-3.607957175E0,-4.471673373E0,6.038273870E0
6.364331333E0,1.789990001E0,-3.887206746E0,-4.941666135E0,6.537163352E0
6.374335333E0,1.718468029E0,-3.960937212E0,-5.367025346E0,6.888186774E0
6.384340333E0,1.573743594E0,-3.626541381E0,-5.748396538E0,6.976570365E0
6.394344333E0,1.566784823E0,-2.999166716E0,-5.933090785E0,6.830181691E0
6.404348333E0,1.830402448E0,-2.390148801E0,-5.894136050E0,6.618460862E0
6.414353333E0,2.212358946E0,-1.521754830E0,-5.594676163E0,6.205696676E0
6.424357333E0,2.537197503E0,-7.770639700E-1,-5.017271803E0,5.675756860E0
6.434361333E0,2.884434405E0,-4.373354781E-1,-4.356338798E0,5.242986924E0
6.444366333E0,3.089975730E0,-4.939148909E-1,-3.596191993E0,4.767022003E0
6.454370333E0,3.347691175E0,-9.721417022E-1,-2.828081864E0,4.488891035E0
6.464375333E0,3.628783788E0,-1.713187408E0,-1.904097830E0,4.441696908E0
6.474379333E0,3.806552593E0,-2.604901829E0,-8.931119049E-1,4.698191679E0
6.484383333E0,3.963424618E0,-3.409951742E0,1.209204562E-1,5.229830527E0
6.494388333E0,3.973006450E0,-3.992815062E0,1.010676023E0,5.722658333E0
6.504392333E0,3.811388240E0,-4.282594299E0,1.765269728E0,5.998622463E0
6.514397333E0,3.401030645E0,-4.064843404E0,2.269029576E0,5.765280267E0
6.524401333E0,2.660786592E0,-3.333565471E0,2.371498522E0,4.880209963E0
6.534405333E0,1.805309122E0,-2.551817881E0,2.250600321E0,3.851768079E0
6.544410333E0,8.487186742E-1,-1.923747983E0,2.157693912E0,3.012768280E0
6.554414333E0,-2.680702794E-1,-1.250431160E0,2.066538159E0,2.430230385E0
6.564419333E0,-1.331967659E0,-5.720412934E-1,2.060210302E0,2.519094197E0
6.574423333E0,-2.390081558E0,2.719540000E-2,2.104720477E0,3.184819889E0
6.584427333E0,-3.230576123E0,6.017691225E-1,2.082012230E0,3.890182912E0
6.594432333E0,-3.786967928E0,1.130681938E0,2.127241759E0,4.488287562E0
6.604436333E0,-4.511743172E0,1.587141320E0,2.228239399E0,5.276352418E0
6.614441333E0,-5.100927333E0,1.994163662E0,2.295288252E0,5.938391745E0
6.624446208E0,-5.642403476E0,2.450711337E0,2.233768526E0,6.544648567E0
6.634450208E0,-5.917579876E0,2.760061789E0,2.133612739E0,6.869351934E0
6.644455208E0,-6.067538738E0,3.001880994E0,2.038399018E0,7.069751509E0
6.654459208E0,-6.120315122E0,3.252148840E0,1.803169041E0,7.161434763E0
6.664463208E0,-6.264860047E0,3.383446314E0,1.654041506E0,7.309721860E0
6.674468208E0,-6.182939386E0,3.506174693E0,1.725280620E0,7.314273282E0
6.684472208E0,-5.849339946E0,3.396324806E0,1.896819216E0,7.024793458E0
6.694477208E0,-5.306993737E0,3.134964792E0,2.295809823E0,6.577456158E0
6.704481208E0,-4.795138419E0,2.927989145E0,2.672516692E0,6.221641131E0
6.714485208E0,-4.231217154E0,2.686255894E0,3.057630687E0,5.870968809E0
6.724490208E0,-3.569149205E0,2.360330340E0,3.374612925E0,5.449586934E0
6.734494208E0,-2.852118014E0,2.025607649E0,3.653171940E0,5.057996514E0
6.744499208E0,-2.152193436E0,1.756107141E0,3.908031020E0,4.794638186E0
6.754503208E0,-1.384078630E0,1.450220579E0,4.111974885E0,4.574620295E0
6.764507208E0,-5.786702818E-1,1.113199933E0,4.273663262E0,4.454017407E0
6.774512208E0,2.198833752E-1,8.183763027E-1,4.421213071E0,4.501690071E0
6.784516208E0,1.071201721E0,5.522046143E-1,4.401714946E0,4.563715321E0
6.794521208E0,1.832377637E0,4.597846931E-1,4.152531173E0,4.562074628E0
6.804525208E0,2.505543017E0,5.771254474E-1,3.538208663E0,4.373755839E0
6.814529208E0,2.979373891E0,6.730478507E-1,2.685715027E0,4.067275181E0
6.824534208E0,3.200475242E0,8.185137123E-1,1.234282905E0,3.526536652E0
6.834538208E0,3.062448792E0,1.497995839E0,-3.810539224E0,5.113002378E0
6.844542208E0,3.512566869E0,2.518249601E0,-1.133294123E1,1.212910813E1
6.854547208E0,5.170907394E0,1.773914836E0,-1.361309806E1,1.466974764E1
6.864551208E0,6.822851651E0,6.464629000E-1,-1.174753689E1,1.360050888E1
6.874556208E0,8.147245996E0,-1.135312933E-1,-8.282915432E0,1.161882932E1
6.884560208E0,9.592145024E0,-7.667722857E-1,-5.642179527E0,1.115488125E1
6.894564208E0,9.592112280E0,-1.071491743E0,-4.208801268E0,1.052951664E1
6.904569208E0,7.092124118E0,-1.243334395E0,-3.255301659E0,7.901967718E0
6.914573208E0,4.939191594E0,-1.916368797E0,-2.360779260E0,5.800117385E0
6.924578208E0,3.101530997E0,-2.273263544E0,-1.260449195E0,4.046721369E0
6.934582208E0,1.911377614E0,-2.583704503E0,4.354550501E-1,3.243225931E0
6.944586208E0,1.958417294E0,-3.057931234E0,1.656134956E0,3.991130757E0
6.954591208E0,2.721722766E0,-3.475030083E0,1.838970373E0,4.781780100E0
6.964595208E0,3.273948430E0,-3.549043554E0,1.729713979E0,5.128972501E0
6.974600208E0,3.473448411E0,-3.549798430E0,1.536752354E0,5.198799915E0
6.984604208E0,3.380740222E0,-3.344424920E0,1.206758891E0,4.906205206E0
6.994608208E0,2.999005333E0,-2.729875538E0,1.231876191E0,4.238369072E0
7.004613208E0,2.840764475E0,-2.036088783E0,1.678228076E0,3.877118751E0
7.014617208E0,3.026400708E0,-1.260719921E0,2.383646697E0,4.053429109E0
7.024621208E0,2.856343796E0,-3.508265072E-1,2.827009485E0,4.034075080E0
7.034626208E0,2.311325410E0,2.817802459E-1,2.839142457E0,3.671832669E0
7.044630208E0,1.635384942E0,6.672842503E-1,2.847943686E0,3.351199102E0
7.054635208E0,9.733889133E-1,7.755015939E-1,2.931488703E0,3.184731498E0
7.064639208E0,1.980153733E-1,6.756849450E-1,3.033179970E0,3.113830593E0
7.074643208E0,-5.627430511E-1,5.203671098E-1,3.170379038E0,3.261711961E0
7.084648208E0,-1.240016685E0,3.135429060E-1,3.268303528E0,3.509666435E0
7.094652208E0,-1.766918058E0,1.540653616E-1,3.305852008E0,3.751585406E0
7.104657208E0,-2.086035115E0,1.014269722E-1,3.270565231E0,3.880518890E0
7.114661208E0,-2.284700698E0,7.858657837E-2,3.197803649E0,3.930900826E0
7.124665208E0,-2.408304405E0,5.136194229E-2,3.079099324E0,3.909401591E0
7.134670208E0,-2.504868833E0,9.084994376E-2,2.886782062E0,3.823105054E0
7.144674208E0,-2.493567919E0,1.208555156E-1,2.669018887E0,3.654606524E0
7.154679208E0,-2.303335190E0,1.963249433E-1,2.424892956E0,3.350224221E0
7.164683208E0,-2.058166700E0,3.307565242E-1,2.168458636E0,3.007933327E0
7.174687208E0,-1.789494157E0,4.692080659E-1,1.904219452E0,2.654900614E0
7.184692208E0,-1.398062246E0,5.982771653E-1,1.757877678E0,2.324359598E0
7.194696208E0,-1.098295380E0,7.896009851E-1,1.653964469E0,2.136661162E0
7.204700208E0,-1.038244475E0,8.849626404E-1,1.542752767E0,2.059416559E0
7.214705208E0,-1.248298681E0,8.797556949E-1,1.531453607E0,2.162769019E0
7.224709208E0,-1.513690935E0,8.606352997E-1,1.499678668E0,2.298040355E0
7.234714208E0,-1.834145835E0,8.179921407E-1,1.422983079E0,2.461317316E0
7.244718208E0,-2.133044389E0,7.463900614E-1,1.348708237E0,2.631727646E0
7.254722208E0,-2.574652428E0,5.995577055E-1,1.209210044E0,2.906973254E0
7.264727208E0,-2.939829172E0,6.611657238E-1,1.066733279E0,3.196506775E0
7.274731208E0,-3.393778344E0,7.959615862E-1,8.341860044E-1,3.584292480E0
7.284736208E0,-3.648197713E0,9.818024719E-1,6.327529335E-1,3.830621219E0
7.294740208E0,-4.018124735E0,1.020241483E0,3.414142442E-1,4.159661375E0
7.304744208E0,-4.217508357E0,1.026232540E0,1.336860609E-1,4.342626156E0
7.314749208E0,-4.275924965E0,8.774898988E-1,3.292917967E-2,4.365158320E0
7.324753208E0,-4.155379352E0,6.036647898E-1,1.208502714E-1,4.200737260E0
7.334758208E0,-3.878514860E0,4.040613127E-1,3.278229761E-1,3.913260913E0
7.344762208E0,-3.529820248E0,3.595645863E-1,3.919985068E-1,3.569675126E0
7.354766208E0,-3.172084671E0,3.488121414E-1,3.560217583E-1,3.211003357E0
7.364771208E0,-2.840389668E0,2.997364604E-1,2.018645954E-1,2.863285653E0
7.374775208E0,-2.462450792E0,2.808943927E-1,-6.397906423E-2,2.479245628E0
7.384780208E0,-2.002281936E0,2.321841627E-1,-4.126052642E-1,2.057494968E0
7.394784208E0,-1.472247040E0,-4.638186872E-2,-7.742660773E-1,1.664076496E0
7.404788208E0,-9.554315293E-1,-5.766921687E-1,-1.060972602E0,1.539833149E0
7.414793208E0,-4.152891362E-1,-1.381762547E0,-1.201785250E0,1.877770111E0
7.424797208E0,1.355209172E-1,-2.123569561E0,-1.287565073E0,2.487114275E0
7.434801208E0,6.618574494E-1,-2.802268161E0,-1.361279751E0,3.184940296E0
7.444806208E0,1.189512529E0,-3.332620561E0,-1.431489608E0,3.817127501E0
7.454810208E0,1.627718073E0,-3.724516742E0,-1.534974800E0,4.344840471E0
7.464815208E0,1.932267961E0,-3.919005075E0,-1.621865594E0,4.660762626E0
7.474819208E0,2.235350198E0,-3.827868032E0,-1.876609485E0,4.813629331E0
7.484823208E0,2.525469743E0,-3.786590198E0,-2.208344833E0,5.058957368E0
7.494828208E0,2.735303509E0,-3.807252504E0,-2.450532997E0,5.289817472E0
7.504832208E0,2.838532008E0,-3.840419666E0,-2.620876422E0,5.447483858E0
7.514837208E0,2.843705040E0,-3.807265953E0,-2.690533133E0,5.460851667E0
7.524841208E0,2.878959657E0,-3.607628562E0,-2.576348121E0,5.285921129E0
7.534845208E0,2.874550272E0,-3.171625080E0,-2.397559562E0,4.906173332E0
7.544850208E0,2.980728106E0,-2.626658733E0,-2.066868526E0,4.478394986E0
7.554854208E0,3.169152292E0,-2.068654266E0,-1.677998865E0,4.139871606E0
7.564858208E0,3.227971188E0,-1.680862831E0,-1.318714945E0,3.870931019E0
7.574863208E0,3.047054243E0,-1.455745613E0,-9.806388760E-1,3.516445287E0
7.584867208E0,2.676071214E0,-1.153881935E0,-7.479863513E-1,3.008701422E0
7.594872208E0,2.076243952E0,-8.954472828E-1,-5.595609963E-1,2.329318203E0
7.604876208E0,1.361426516E0,-6.806691116E-1,-4.338704181E-1,1.582730596E0
7.614880208E0,6.234131759E-1,-4.526733094E-1,-3.953162169E-1,8.659284176E-1
7.624884500E0,-1.717093349E-2,-2.010114866E-1,-4.551624691E-1,4.978687900E-1
7.634888500E0,-6.196183330E-1,1.107117659E-1,-3.890784073E-1,7.399770136E-1
7.644893500E0,-1.174373503E0,4.810755748E-1,-4.273811051E-1,1.339119652E0
7.654897500E0,-1.453705519E0,9.922023296E-1,-7.499346435E-1,1.913145883E0
7.664901500E0,-1.444099129E0,1.552192512E0,-1.161175168E0,2.417240505E0
7.674906500E0,-1.137154806E0,2.117372682E0,-1.657919526E0,2.919774868E0
7.684910500E0,-8.132348460E-1,2.551006873E0,-1.891120520E0,3.278006071E0
7.694915500E0,-9.818913496E-1,2.743602462E0,-1.691201878E0,3.369217844E0
7.704919500E0,-1.620906651E0,2.807345299E0,-1.162002037E0,3.443657174E0
7.714923500E0,-2.523725519E0,2.800970079E0,-4.549133778E-1,3.797574234E0
7.724928500E0,-3.353868173E0,2.716550903E0,1.085558975E-1,4.317390985E0
7.734932500E0,-4.052866552E0,2.719097366E0,6.683929554E-1,4.926049829E0
7.744937500E0,-4.642415578E0,2.658551202E0,1.234010425E0,5.490236664E0
7.754941500E0,-4.947684674E0,2.496153558E0,1.653446406E0,5.783100487E0
7.764945500E0,-5.143747078E0,2.271107676E0,1.883329690E0,5.929839356E0
7.774950500E0,-5.217236638E0,1.898066427E0,2.265152872E0,5.996093047E0
7.784954500E0,-4.717772740E0,1.525500557E0,2.665474305E0,5.629323658E0
7.794958500E0,-4.106084985E0,1.304562344E0,3.078944957E0,5.295443217E0
7.804963500E0,-3.436073009E0,1.166282710E0,3.434041686E0,4.995943893E0
7.814967500E0,-2.787004589E0,1.019600628E0,3.768206552E0,4.796494620E0
7.824972500E0,-2.212090559E0,8.403413683E-1,4.074479030E0,4.711782850E0
7.834976500E0,-1.741356955E0,6.684583712E-1,4.279427447E0,4.668260909E0
7.844980500E0,-1.273686706E0,4.821461999E-1,4.449244623E0,4.653011982E0
7.854985500E0,-7.770417506E-1,2.465490174E-1,4.450866641E0,4.524908193E0
7.864989500E0,-2.858282733E-1,-2.342336118E-2,4.315467346E0,4.324986112E0
7.874994500E0,1.864443183E-1,-2.430330867E-1,3.998605560E0,4.010320809E0
7.884998500E0,5.440752304E-1,-3.015479279E-1,3.603615618E0,3.656910517E0
7.895002500E0,8.366564530E-1,-1.645003027E-1,3.103062383E0,3.218081808E0
7.905007500E0,9.853762901E-1,5.781843781E-2,2.436832970E0,2.629156582E0
7.915011500E0,8.393584514E-1,3.899753702E-1,1.701859013E0,1.937247403E0
7.925015500E0,7.429688555E-1,5.330222386E-1,1.012869825E0,1.364558797E0
7.935020500E0,7.799507403E-1,4.671779126E-1,3.885077190E-1,9.886943952E-1
7.945024500E0,9.104459757E-1,2.712078953E-1,-1.398501956E-1,9.602206383E-1
7.955029500E0,1.154399999E0,1.071560740E-2,-5.480828754E-1,1.277947190E0
7.965033500E0,1.845306416E0,-1.484321541E-1,-1.100541880E0,2.153689927E0
7.975037500E0,3.118815951E0,-8.957875907E-2,-2.739096597E0,4.151829412E0
7.985042500E0,6.018153155E0,2.766042906E-1,-7.681217061E0,9.761955382E0
7.995046500E0,7.945892447E0,5.321831632E-1,-1.122381464E1,1.376206528E1
8.005051500E0,7.556972499E0,-1.720654303E-1,-1.015082835E1,1.265609561E1
8.015055500E0,7.264595929E0,-1.062809798E0,-9.065133723E0,1.166535761E1
8.025059500E0,6.538660013E0,-2.062821084E0,-7.651294520E0,1.027383149E1
8.035064500E0,5.439096372E0,-2.982853569E0,-5.505230720E0,8.293898362E0
8.045068500E0,3.929010830E0,-3.970279893E0,-2.180328337E0,5.996172128E0
8.055073500E0,2.421715579E0,-4.596729528E0,8.820244876E-1,5.269971148E0
8.065077500E0,1.721672303E0,-4.721251833E0,1.630831715E0,5.283368856E0
8.075081500E0,1.246402429E0,-4.199383158E0,1.492090151E0,4.627598831E0
8.085086500E0,8.938042152E-1,-3.173712536E0,1.017906690E0,3.450720398E0
8.095090500E0,7.328180891E-1,-1.916999127E0,4.657985544E-1,2.104489557E0
8.105094500E0,1.058367083E0,-8.782582229E-1,5.555147231E-1,1.483264978E0
8.115099500E0,1.504573372E0,-8.160724998E-2,1.014607691E0,1.816543294E0
8.125103500E0,1.873867725E0,5.147455966E-1,1.526101066E0,2.470896142E0
8.135108500E0,1.780036871E0,9.519115055E-1,1.723862085E0,2.654499438E0
8.145112500E0,1.408766744E0,1.040413207E0,1.862569735E0,2.556608965E0
8.155116500E0,9.461432272E-1,9.279607254E-1,2.138720866E0,2.516033597E0
8.165121500E0,4.108996314E-1,6.584526157E-1,2.492014314E0,2.610083082E0
8.175125500E0,-2.859405398E-2,4.038736171E-1,2.815958247E0,2.844916935E0
8.185130500E0,-2.152933109E-1,1.246351558E-1,3.055469556E0,3.065579772E0
8.195134500E0,-3.866126364E-1,-1.207029033E-1,3.226111189E0,3.251435364E0
8.205138500E0,-5.718974519E-1,-3.286749154E-1,3.288741885E0,3.354238674E0
8.215143500E0,-7.236742133E-1,-4.990534240E-1,3.181652470E0,3.300859149E0
8.225147500E0,-8.691084999E-1,-5.019875568E-1,2.990979445E0,3.154884963E0
8.235151500E0,-9.856283051E-1,-3.131534815E-1,2.705919496E0,2.896813521E0
8.245156500E0,-1.103664878E0,2.510794401E-2,2.290511076E0,2.542665445E0
8.255160500E0,-1.269591317E0,4.498222071E-1,1.779833972E0,2.232041912E0
8.265165500E0,-1.386658421E0,8.780354440E-1,1.297876053E0,2.092426837E0
8.275169500E0,-1.510647460E0,1.301626457E0,8.827038610E-1,2.180700183E0
8.285173500E0,-1.615220234E0,1.588981438E0,4.754313306E-1,2.315131393E0
8.295178500E0,-1.619464143E0,1.834132386E0,-6.754703522E-3,2.446783878E0
8.305182500E0,-1.633264157E0,1.938078924E0,-5.117318686E-1,2.585647158E0
8.315187500E0,-1.635308928E0,1.990916119E0,-9.602180600E-1,2.749545600E0
8.325191500E0,-1.568714989E0,2.046292759E0,-1.213532233E0,2.849708977E0
8.335195500E0,-1.545594513E0,2.053859056E0,-1.332399184E0,2.895252495E0
8.345200500E0,-1.618304055E0,1.902808519E0,-1.279215249E0,2.806417633E0
8.355204500E0,-1.668889487E0,1.611843467E0,-1.076753068E0,2.557856261E0
8.365209500E0,-1.696328716E0,1.278805944E0,-7.712571732E-1,2.260025085E0
8.375213500E0,-1.661930716E0,9.812920099E-1,-3.666835713E-1,1.964536728E0
8.385217500E0,-1.640966694E0,7.811774862E-1,5.201683044E-2,1.818162728E0
8.395222500E0,-1.694368730E0,6.671947879E-1,4.479445931E-1,1.875283615E0
8.405226500E0,-1.877249170E0,6.278114516E-1,7.794711956E-1,2.127389717E0
8.415230500E0,-2.218397951E0,5.132808691E-1,1.091586212E0,2.525135080E0
8.425235500E0,-2.648253086E0,4.659681237E-1,1.326646693E0,2.998393261E0
8.435239500E0,-3.100755072E0,5.600626874E-1,1.383814920E0,3.441409008E0
8.445244500E0,-3.380169534E0,5.873054498E-1,1.364567056E0,3.692223858E0
8.455248500E0,-3.503227111E0,5.791655409E-1,1.290654742E0,3.778071277E0
8.465252500E0,-3.366297600E0,3.949864340E-1,1.066238678E0,3.553144907E0
8.475257500E0,-3.023292328E0,-5.383765340E-2,8.609464446E-1,3.143950345E0
8.485261500E0,-2.574540746E0,-6.761006820E-1,5.854185534E-1,2.725451718E0
8.495266500E0,-2.022563004E0,-1.424125625E0,2.334863377E-1,2.484634937E0
8.505270500E0,-1.437119308E0,-2.234271972E0,-7.071724936E-2,2.657495828E0
8.515274500E0,-8.833681047E-1,-2.987631329E0,-2.894534739E-1,3.128907714E0
8.525279500E0,-3.305740911E-1,-3.365740945E0,-4.283037957E-1,3.408949322E0
8.535283500E0,3.071250021E-1,-3.551233921E0,-4.847912610E-1,3.597306033E0
8.545287500E0,8.635822964E-1,-3.376497483E0,-5.188046607E-1,3.523587364E0
8.555292500E0,1.331199920E0,-3.003255674E0,-5.832234355E-1,3.336433342E0
8.565296500E0,1.734641427E0,-2.731337342E0,-7.416150058E-1,3.319514630E0
8.575301500E0,2.081445635E0,-2.540427505E0,-8.694271731E-1,3.397365369E0
8.585305500E0,2.256391988E0,-2.474330580E0,-9.237967770E-1,3.473761234E0
8.595309500E0,2.342405700E0,-2.486154819E0,-8.666532540E-1,3.524048540E0
8.605314500E0,2.412235488E0,-2.480669546E0,-7.109581272E-1,3.532430170E0
8.615318500E0,2.485498177E0,-2.329547673E0,-5.454154122E-1,3.449923408E0
8.625323875E0,2.711884825E0,-2.223209624E0,-4.360794961E-1,3.533715561E0
8.635327875E0,3.083189451E0,-2.026347907E0,-3.004194152E-1,3.701674601E0
8.645331875E0,3.436475297E0,-1.803145067E0,-1.366856094E-1,3.883217423E0
8.655336875E0,3.697295029E0,-1.677733986E0,5.434058703E-2,4.060509175E0
8.665340875E0,3.771007369E0,-1.519289060E0,2.727539722E-1,4.074693921E0
8.675344875E0,3.582799530E0,-1.175250000E0,3.149276729E-1,3.783760626E0
8.685349875E0,3.150673336E0,-6.522656769E-1,1.345655552E-1,3.220295153E0
8.695353875E0,2.428021801E0,-1.820723552E-1,-1.262728878E-1,2.438110960E0
8.705358875E0,1.699935279E0,2.667137253E-1,-3.482204032E-1,1.755612034E0
8.715362875E0,1.033541560E0,7.328408933E-1,-4.615499675E-1,1.348440693E0
8.725366875E0,4.119147080E-1,1.180892563E0,-4.540083750E-1,1.330527932E0
8.735371875E0,-1.320377308E-1,1.608979501E0,-3.657610269E-1,1.655303635E0
8.745375875E0,-6.701528943E-1,2.028283920E0,-2.792209196E-1,2.154299163E0
8.755380875E0,-1.140911642E0,2.454085180E0,-1.355851635E-1,2.709722639E0
8.765384875E0,-1.567887608E0,2.837530965E0,1.047937989E-2,3.241907362E0
8.775388875E0,-1.904906500E0,3.055019320E0,1.524217824E-1,3.603476685E0
8.785393875E0,-2.278569308E0,3.076659865E0,2.909353045E-1,3.839577759E0
8.795397875E0,-2.640724211E0,3.053448173E0,4.970004666E-1,4.067429110E0
8.805401875E0,-2.951733518E0,3.045505316E0,7.564379898E-1,4.308135539E0
8.815406875E0,-3.199453148E0,2.990115811E0,1.002501688E0,4.492471775E0
8.825410875E0,-3.407521055E0,2.851246778E0,1.259895025E0,4.618240293E0
8.835415875E0,-3.564673162E0,2.637123495E0,1.513609074E0,4.685331099E0
8.845419875E0,-3.635091764E0,2.405438100E0,1.764842881E0,4.702626392E0
8.855423875E0,-3.505708669E0,2.167473380E0,2.006269445E0,4.583999478E0
8.865428875E0,-3.277928045E0,1.929869433E0,2.145891892E0,4.367385981E0
8.875432875E0,-3.053661012E0,1.679612111E0,2.200633525E0,4.121738751E0
8.885437875E0,-2.737139534E0,1.286865746E0,2.226175332E0,3.755504345E0
8.895441875E0,-2.352841811E0,9.075749928E-1,2.222271585E0,3.361256900E0
8.905445875E0,-1.891730384E0,5.453633720E-1,2.166279817E0,2.927256958E0
8.915450875E0,-1.346458229E0,2.216007024E-1,2.081801877E0,2.489167669E0
8.925454875E0,-7.882982254E-1,-1.089494151E-1,2.038213077E0,2.188057726E0
8.935458875E0,-2.399808401E-1,-3.670180321E-1,1.980877619E0,2.028834439E0
8.945463875E0,2.966187251E-1,-4.186904615E-1,1.751220038E0,1.824844101E0
8.955467875E0,7.476828808E-1,-3.073781866E-1,1.366771456E0,1.587946867E0
8.965472875E0,9.402246755E-1,-6.616533816E-2,8.302799913E-1,1.256091221E0
8.975476875E0,8.244486362E-1,3.012462115E-1,2.196330412E-1,9.048223618E-1
8.985480875E0,5.494944298E-1,6.900094539E-1,-4.661575735E-1,9.976773317E-1
8.995485875E0,3.323229933E-1,9.880566537E-1,-1.105678074E0,1.519611308E0
9.005489875E0,2.123492378E-1,1.173877074E0,-1.567729733E0,1.969988858E0
9.015494875E0,1.753971738E-1,1.164616839E0,-1.834967369E0,2.180413216E0
9.025498875E0,2.760786259E-1,9.674732852E-1,-1.902251279E0,2.151925625E0
9.035502875E0,4.482709408E-1,6.200679839E-1,-1.876736369E0,2.026714223E0
9.045507875E0,6.413044864E-1,1.733138108E-1,-1.753975246E0,1.875563458E0
9.055511875E0,8.671099216E-1,-3.221938616E-1,-1.561144599E0,1.814624192E0
9.065515875E0,1.099218071E0,-8.591349041E-1,-1.375583210E0,1.959240240E0
9.075520875E0,1.430885006E0,-1.341558847E0,-1.210391182E0,2.304833802E0
9.085524875E0,1.902605621E0,-1.735937755E0,-1.090577055E0,2.796917294E0
9.095529875E0,2.467811519E0,-2.014417248E0,-1.031952871E0,3.348566450E0
9.105533875E0,3.159183374E0,-2.261494269E0,-1.014217097E0,4.015399387E0
9.115537875E0,3.833521705E0,-2.324444808E0,-1.159708686E0,4.630751188E0
9.125542875E0,4.489751210E0,-2.132158536E0,-1.495371609E0,5.190385554E0
9.135546875E0,4.750059895E0,-1.779102486E0,-1.933101189E0,5.428181543E0
9.145551875E0,4.584498323E0,-1.384828243E0,-2.402971745E0,5.358138421E0
9.155555875E0,4.226822972E0,-9.864054000E-1,-2.886738793E0,5.212704567E0
9.165559875E0,3.860818847E0,-8.940386885E-1,-3.248803064E0,5.124446184E0
9.175564875E0,3.007025959E0,-8.467031389E-1,-3.324247348E0,4.561768490E0
9.185568875E0,2.045758324E0,-4.280676413E-1,-3.269682301E0,3.880617396E0
9.195572875E0,1.472566298E0,-6.454226804E-1,-2.691335371E0,3.135013240E0
9.205577875E0,1.432001240E0,-1.092946932E0,-1.755950435E0,2.515655477E0
9.215581875E0,1.524770240E0,-1.456078320E0,-8.504342473E-1,2.273395426E0
9.225586875E0,1.618104081E0,-1.642662386E0,-1.953812392E-1,2.314038539E0
9.235590875E0,1.603713498E0,-1.742455646E0,1.656364167E-1,2.373917456E0
9.245594875E0,1.508781613E0,-1.708597344E0,2.499123541E-1,2.293072835E0
9.255599875E0,1.497690030E0,-1.557155628E0,3.387912198E-1,2.186913022E0
9.265603875E0,1.571177251E0,-1.366733449E0,5.369930828E-1,2.150562681E0
9.275608875E0,1.639771523E0,-1.069448141E0,7.079621601E-1,2.081773377E0
9.285612875E0,1.598222963E0,-6.879319382E-1,9.105143881E-1,1.963823679E0
9.295616875E0,1.328307887E0,-2.253651398E-1,1.117339761E0,1.750325521E0
9.305621875E0,9.495258415E-1,3.072092021E-1,1.301848651E0,1.640361767E0
9.315625875E0,4.573762250E-1,7.855892104E-1,1.541037194E0,1.789172728E0
9.325629875E0,-1.674946618E-1,1.077200380E0,1.847377499E0,2.145045162E0
9.335634875E0,-9.306001586E-1,1.262456544E0,2.162632470E0,2.671477565E0
9.345638875E0,-1.735172939E0,1.409713992E0,2.410354439E0,3.287541208E0
9.355643875E0,-2.440743003E0,1.494234910E0,2.662059531E0,3.908519582E0
9.365647875E0,-3.110642713E0,1.546560473E0,2.860183078E0,4.499843845E0
9.375651875E0,-3.724274082E0,1.505028285E0,2.934710519E0,4.974721441E0
9.385656875E0,-4.216197996E0,1.501483703E0,2.887317667E0,5.326103845E0
9.395660875E0,-4.609153692E0,1.516900472E0,2.743199004E0,5.574085178E0
9.405664875E0,-5.007682954E0,1.524900048E0,2.538552303E0,5.817770752E0
9.415669875E0,-5.371896077E0,1.491758614E0,2.348487389E0,6.049628438E0
9.425673875E0,-5.619074839E0,1.395465497E0,2.168245797E0,6.182444164E0
9.435678875E0,-5.816728855E0,1.304148361E0,1.961133910E0,6.275442911E0
9.445682875E0,-6.001472803E0,1.140523971E0,1.700914103E0,6.341260089E0
9.455686875E0,-6.079778130E0,9.674171519E-1,1.360062361E0,6.304709960E0
9.465691875E0,-5.926655924E0,8.128185242E-1,1.068616083E0,6.076830155E0
9.475695875E0,-5.483401310E0,6.598343128E-1,8.069777405E-1,5.581602307E0
9.485700875E0,-4.855455372E0,4.432277173E-1,5.940315020E-1,4.911697375E0
9.495704875E0,-4.174618446E0,3.269207507E-1,3.657117641E-1,4.203339320E0
9.505708875E0,-3.480344617E0,2.932787955E-1,1.486654580E-1,3.495842177E0
9.515713875E0,-2.704601533E0,3.044510704E-1,-1.544249654E-1,2.726060707E0
9.525717875E0,-1.977409635E0,2.035509324E-1,-4.397924781E-1,2.035927128E0
9.535721875E0,-1.319286802E0,6.262835741E-2,-7.209967732E-1,1.504751250E0
9.545726875E0,-6.148967063E-1,-2.201710582E-2,-9.978998566E-1,1.172342457E0
9.555730875E0,1.077238387E-1,-3.018098831E-1,-1.268471575E0,1.308324794E0
9.565735875E0,8.429275918E-1,-7.451101059E-1,-1.458619519E0,1.842087647E0
9.575739875E0,1.644464498E0,-1.353089556E0,-1.638462331E0,2.686945039E0
9.585743875E0,2.434749023E0,-1.987855101E0,-1.779253929E0,3.611829903E0
9.595748875E0,3.078836199E0,-2.574351296E0,-1.902315599E0,4.441319801E0
9.605752875E0,3.706807280E0,-3.067934065E0,-1.984002371E0,5.204700284E0
9.615757875E0,4.305982577E0,-3.320251361E0,-1.996766843E0,5.792463455E0
9.625761750E0,4.660845417E0,-3.271664507E0,-1.995193942E0,6.033909804E0
9.635765750E0,4.839468500E0,-2.988704293E0,-2.107557546E0,6.065855877E0
9.645770750E0,4.928673037E0,-2.728071672E0,-2.207536747E0,6.050405891E0
9.655774750E0,4.963455200E0,-2.602095750E0,-2.172922400E0,6.010688943E0
9.665778750E0,4.857829342E0,-2.407514446E0,-2.069783363E0,5.803329639E0
9.675783750E0,4.634014884E0,-2.233237014E0,-1.861642367E0,5.470571616E0
9.685787750E0,4.404643816E0,-2.128764228E0,-1.658375609E0,5.165533268E0
9.695792750E0,4.136855958E0,-1.896778286E0,-1.503968185E0,4.793043436E0
9.705796750E0,3.749325893E0,-1.535755404E0,-1.391934364E0,4.284095072E0
9.715800750E0,3.457265657E0,-1.206405135E0,-1.419637302E0,3.927272494E0
9.725805750E0,3.377919526E0,-1.069032989E0,-1.456489964E0,3.830735552E0
9.735809750E0,3.288094599E0,-1.006834987E0,-1.415856493E0,3.718861706E0
9.745813750E0,3.154008003E0,-1.060500732E0,-1.323576905E0,3.581100964E0
9.755818750E0,2.941319627E0,-1.233770689E0,-1.228929194E0,3.418160064E0
9.765822750E0,2.541377678E0,-1.397192765E0,-1.176726422E0,3.129765678E0
9.775827750E0,1.969072090E0,-1.455525173E0,-1.145592338E0,2.703364613E0
9.785831750E0,1.326816262E0,-1.328659889E0,-1.160233766E0,2.207242824E0
9.795835750E0,6.725637013E-1,-1.010574281E0,-1.188595101E0,1.698929258E0
9.805840750E0,-1.573134899E-2,-5.095550233E-1,-1.123003374E0,1.233300602E0
9.815844750E0,-7.177620935E-1,3.908863664E-2,-1.013835858E0,1.242808711E0
9.825849750E0,-1.418571939E0,5.503545552E-1,-7.876141012E-1,1.713351236E0
9.835853750E0,-2.153513737E0,1.032781422E0,-4.985452644E-1,2.439837343E0
9.845857750E0,-2.846718695E0,1.426694307E0,-2.164148068E-1,3.191566910E0
9.855862750E0,-3.501735486E0,1.778114891E0,4.060533129E-2,3.927530111E0
9.865866750E0,-4.090112146E0,2.047789646E0,2.683707532E-1,4.581973665E0
9.875870750E0,-4.582860518E0,2.267469538E0,4.702412689E-1,5.134701109E0
9.885875750E0,-4.981182788E0,2.434798139E0,6.637045117E-1,5.583988505E0
9.895879750E0,-5.276349065E0,2.555536711E0,8.004160682E-1,5.917034157E0
9.905884750E0,-5.494108146E0,2.546409207E0,9.215493266E-1,6.125249165E0
9.915888750E0,-5.606039057E0,2.479896544E0,1.036259930E0,6.217024644E0
9.925892750E0,-5.608345199E0,2.477657061E0,1.147567600E0,6.237726491E0
9.935897750E0,-5.404262754E0,2.376702543E0,1.226106232E0,6.029768436E0
9.945901750E0,-5.015969628E0,2.032065899E0,1.359807422E0,5.580171982E0
9.955905750E0,-4.670458825E0,1.723376766E0,1.536892687E0,5.210110579E0
9.965910750E0,-4.341712573E0,1.484517422E0,1.689336616E0,4.889592851E0
9.975914750E0,-3.989765739E0,1.134187344E0,1.797080920E0,4.520410536E0
9.985919750E0,-3.623220162E0,7.672459102E-1,1.865933053E0,4.147058812E0
9.995923750E0,-3.154130795E0,5.169692928E-1,1.877816935E0,3.707019660E0
1.000592775E1,-2.569195806E0,3.598926151E-1,1.811661537E0,3.164238820E0
1.001593275E1,-1.917030117E0,2.221801615E-1,1.749518498E0,2.604838473E0
1.002593675E1,-1.177736821E0,1.518521905E-2,1.643309673E0,2.021821281E0
1.003594175E1,-3.717291337E-1,-1.648499662E-1,1.568169444E0,1.620035019E0
1.004594575E1,4.630983102E-1,-1.036401433E-1,1.337053567E0,1.418771851E0
1.005594975E1,1.279488314E0,1.089546776E-1,9.532236207E-1,1.599248804E0
1.006595475E1,1.805007405E0,4.432569534E-1,4.196593451E-1,1.905424474E0
1.007595875E1,2.078928993E0,7.651116765E-1,-1.427656174E-1,2.219847666E0
1.008596275E1,2.192643304E0,1.056543921E0,-6.304760277E-1,2.514253317E0
1.009596775E1,2.232875656E0,1.116554480E0,-1.040069976E0,2.704472806E0
1.010597175E1,2.194216790E0,9.985857350E-1,-1.281961101E0,2.730418477E0
1.011597675E1,2.165654896E0,6.943615365E-1,-1.385397177E0,2.662991628E0
1.012598075E1,2.138927273E0,2.850652117E-1,-1.380439907E0,2.561617925E0
1.013598475E1,2.278988553E0,-2.191062802E-1,-1.352871455E0,2.659334045E0
1.014598975E1,2.604546903E0,-7.317305070E-1,-1.366813556E0,3.031051534E0
1.015599375E1,3.165026497E0,-1.235887966E0,-1.574707800E0,3.744932101E0
1.016599775E1,4.082993161E0,-1.524919928E0,-2.249085892E0,4.904549041E0
1.017600275E1,5.718616669E0,-1.437749637E0,-4.075572460E0,7.167983782E0
1.018600675E1,6.498027712E0,-1.675978652E0,-4.600971683E0,8.136473991E0
1.019601175E1,6.145689114E0,-2.567826388E0,-3.158817923E0,7.371659089E0
1.020601575E1,5.647481198E0,-3.516758738E0,-2.142168385E0,6.989314794E0
1.021601975E1,4.600989810E0,-3.965044881E0,-2.006391360E0,6.396584591E0
1.022602475E1,3.145862247E0,-3.874746915E0,-2.010837582E0,5.380853159E0
1.023602875E1,1.924187109E0,-3.406836931E0,-1.697923837E0,4.265205652E0
1.024603375E1,1.464269684E0,-2.844652289E0,-1.602841094E0,3.578439873E0
1.025603775E1,1.616805999E0,-2.209110818E0,-6.522545671E-1,2.814190517E0
1.026604175E1,2.015266848E0,-1.673448561E0,4.216661096E-1,2.653211802E0
1.027604675E1,2.168056932E0,-1.191007662E0,1.232278479E0,2.763599168E0
1.028605075E1,1.815863931E0,-7.826755428E-1,1.793838054E0,2.669793584E0
1.029605475E1,1.042701808E0,-4.300866848E-1,2.032255933E0,2.324277478E0
1.030605975E1,3.823827606E-1,-3.142410636E-1,2.327305266E0,2.379351555E0
1.031606375E1,-7.262241840E-4,-2.614687729E-1,2.650733474E0,2.663598018E0
1.032606875E1,-1.499331343E-1,-2.577388340E-1,2.902755486E0,2.918029928E0
1.033607275E1,-1.865577543E-1,-2.652402270E-1,3.040790706E0,3.058032748E0
1.034607675E1,-1.298783541E-1,-1.734371871E-1,3.113567491E0,3.121097782E0
1.035608175E1,-2.348458153E-1,-9.910445809E-3,3.022271404E0,3.031398228E0
1.036608575E1,-4.259983116E-1,1.984767187E-1,2.826876168E0,2.865675564E0
1.037608975E1,-6.027555478E-1,4.817450809E-1,2.628057972E0,2.738992749E0
1.038609475E1,-7.755641592E-1,8.320003152E-1,2.450816002E0,2.701892552E0
1.039609875E1,-9.783876979E-1,1.183578190E0,2.293407787E0,2.760039691E0
1.040610375E1,-1.337272838E0,1.457261211E0,2.243843279E0,2.991110419E0
1.041610775E1,-1.737965569E0,1.610153037E0,2.242297275E0,3.262056743E0
1.042611175E1,-2.296244271E0,1.728206567E0,2.260269277E0,3.656262148E0
1.043611675E1,-2.708499287E0,1.919644407E0,2.280591860E0,4.027667100E0
1.044612075E1,-3.123665047E0,2.014564013E0,2.150778995E0,4.294368612E0
1.045612475E1,-3.601312984E0,2.017595794E0,2.024582047E0,4.597725575E0
1.046612975E1,-4.046128805E0,1.894558682E0,1.914584227E0,4.860673171E0
1.047613375E1,-4.496504159E0,1.706732082E0,1.779746264E0,5.128253194E0
1.048613875E1,-5.021653706E0,1.445341077E0,1.657781532E0,5.482176245E0
1.049614275E1,-5.512517520E0,1.150558378E0,1.490505556E0,5.825224528E0
1.050614675E1,-5.836261479E0,9.504251432E-1,1.225855898E0,6.038872302E0
1.051615175E1,-5.957698207E0,9.194805086E-1,9.425664854E-1,6.101478830E0
1.052615575E1,-5.872208991E0,9.531879526E-1,5.709993196E-1,5.976407443E0
1.053616075E1,-5.567443925E0,9.107886225E-1,2.169533354E-1,5.645621004E0
1.054616475E1,-4.967858153E0,8.154211199E-1,-4.657600542E-2,5.034550184E0
1.055616875E1,-4.225706738E0,7.066149616E-1,-2.218199730E-1,4.290117276E0
1.056617375E1,-3.427073559E0,6.099552244E-1,-5.305126137E-1,3.521125131E0
1.057617775E1,-2.649718398E0,4.564915413E-1,-8.527573460E-1,2.820742315E0
1.058618175E1,-1.869317422E0,1.914664918E-1,-1.081070652E0,2.167883944E0
1.059618675E1,-9.590053475E-1,-1.511288899E-1,-1.256737382E0,1.588055429E0
1.060619075E1,-2.444720864E-2,-6.531357425E-1,-1.397924252E0,1.543170819E0
1.061619575E1,9.206680781E-1,-1.443438978E0,-1.439649398E0,2.236903257E0
1.062619925E1,1.887191191E0,-2.198212193E0,-1.477051113E0,3.251969776E0
1.063620325E1,2.861194646E0,-2.945084649E0,-1.660282386E0,4.429051365E0
1.064620825E1,3.634750872E0,-3.346707673E0,-1.989982903E0,5.326527772E0
1.065621225E1,4.179332471E0,-3.488595039E0,-2.418132990E0,5.956885294E0
1.066621625E1,4.342139420E0,-3.422158974E0,-2.862544184E0,6.225713292E0
1.067622125E1,4.282750420E0,-3.134008772E0,-3.373666846E0,6.288528455E0
1.068622525E1,4.273760911E0,-2.876567561E0,-3.751834933E0,6.373063519E0
1.069623025E1,4.429779242E0,-2.775312497E0,-3.945051497E0,6.548949145E0
1.070623425E1,4.455820402E0,-2.645838186E0,-3.954186017E0,6.518464713E0
1.071623825E1,4.378641248E0,-2.451669111E0,-3.806170185E0,6.298421396E0
1.072624325E1,4.315730470E0,-2.089383230E0,-3.518743867E0,5.947487720E0
1.073624725E1,4.199276739E0,-1.627126334E0,-3.249018241E0,5.553159890E0
1.074625125E1,4.010816301E0,-1.205270775E0,-2.934085452E0,5.113529356E0
1.075625625E1,3.766046591E0,-8.397344273E-1,-2.498720486E0,4.596940819E0
1.076626025E1,3.558658715E0,-6.551916236E-1,-2.021699370E0,4.144948282E0
1.077626525E1,3.339354799E0,-6.572878504E-1,-1.498275336E0,3.718621623E0
1.078626925E1,3.052033147E0,-9.211756164E-1,-1.004939904E0,3.342659878E0
1.079627325E1,2.711792439E0,-1.198371060E0,-5.531290591E-1,3.015934878E0
1.080627825E1,2.251291462E0,-1.393121349E0,-2.785297787E-1,2.662081738E0
1.081628225E1,1.616836404E0,-1.538687198E0,-7.892454743E-2,2.233371293E0
1.082628625E1,9.153254771E-1,-1.614758304E0,4.698354721E-2,1.856737074E0
1.083629125E1,2.530376726E-1,-1.572274774E0,1.273430014E-1,1.597589518E0
1.084629525E1,-3.628413659E-1,-1.383238385E0,2.441984367E-1,1.450736076E0
1.085630025E1,-9.042333090E-1,-1.063310319E0,3.902255214E-1,1.449324901E0
1.086630425E1,-1.390397716E0,-6.853234953E-1,5.440694197E-1,1.642828547E0
1.087630825E1,-1.897091696E0,-2.830169320E-1,6.461337018E-1,2.023992156E0
1.088631325E1,-2.390380350E0,1.036956918E-1,7.592152711E-1,2.510194981E0
1.089631725E1,-2.893826787E0,4.610880375E-1,9.227222049E-1,3.072173810E0
1.090632225E1,-3.388631040E0,8.793943369E-1,1.015371337E0,3.645152079E0
1.091632625E1,-3.884941535E0,1.230294519E0,1.085554297E0,4.217205647E0
1.092633025E1,-4.325209976E0,1.563021555E0,1.149578969E0,4.740465117E0
1.093633525E1,-4.727866788E0,1.830710596E0,1.253769336E0,5.222658633E0
1.094633925E1,-5.051531809E0,2.120505620E0,1.315941610E0,5.634378406E0
1.095634325E1,-5.206318717E0,2.410670773E0,1.270305262E0,5.876288252E0
1.096634825E1,-5.353748074E0,2.621392146E0,1.248782830E0,6.090465810E0
1.097635225E1,-5.441658037E0,2.685886935E0,1.296993123E0,6.205467104E0
1.098635725E1,-5.560386921E0,2.602338994E0,1.349255537E0,6.285742713E0
1.099636125E1,-5.596182990E0,2.459748793E0,1.438064218E0,6.279781595E0
1.100636525E1,-5.557900100E0,2.230438537E0,1.544524473E0,6.184712235E0
1.101637025E1,-5.350570112E0,1.892946020E0,1.655434459E0,5.912047734E0
1.102637425E1,-5.056197887E0,1.523614830E0,1.834918252E0,5.590479784E0
1.103637825E1,-4.784505258E0,1.221696188E0,1.960707064E0,5.313040968E0
1.104638325E1,-4.300997241E0,9.178228229E-1,2.060044241E0,4.856414138E0
1.105638725E1,-3.713683020E0,6.713936734E-1,2.102328966E0,4.319953486E0
1.106639225E1,-3.050483635E0,4.194196093E-1,2.135230079E0,3.747074953E0
1.107639625E1,-2.335039963E0,1.875932962E-1,2.130193287E0,3.166279569E0
1.108640025E1,-1.568685168E0,-8.518808484E-3,2.048643340E0,2.580268447E0
1.109640525E1,-7.661834711E-1,-1.049692154E-1,1.973402538E0,2.119521933E0
1.110640925E1,4.031011999E-2,-5.570642352E-2,1.799066634E0,1.800380200E0
1.111641325E1,7.594351995E-1,4.529487133E-2,1.600076530E0,1.771733148E0
1.112641825E1,1.424830799E0,3.023712158E-2,1.295472847E0,1.925956123E0
1.113642225E1,2.055054812E0,1.854970694E-2,9.389634311E-1,2.259479298E0
1.114642725E1,2.595829874E0,4.990949392E-2,4.888646507E-1,2.641933447E0
1.115643125E1,2.969172254E0,7.694468021E-2,5.229281902E-2,2.970629377E0
1.116643525E1,3.215140643E0,-3.753912449E-2,-3.411101159E-1,3.233402952E0
1.117644025E1,3.472566066E0,-3.030874997E-1,-6.953766131E-1,3.554451540E0
1.118644425E1,3.773002439E0,-6.689086068E-1,-1.129352281E0,3.994799457E0
1.119644825E1,4.330799915E0,-1.046194934E0,-2.016238071E0,4.890354558E0
1.120645325E1,6.805321698E0,-3.855016655E-1,-6.463002305E0,9.393157815E0
1.121645725E1,9.196385588E0,7.888613123E-1,-1.104443142E1,1.439358453E1
1.122646225E1,8.658696102E0,6.773590028E-2,-9.163869807E0,1.260770067E1
1.123646625E1,7.424750581E0,-1.410739009E0,-6.520973940E0,9.981994133E0
1.124647025E1,5.476468851E0,-3.123970272E0,-2.975430529E0,6.971663228E0
1.125647525E1,3.953851556E0,-4.526670529E0,-5.386466753E-1,6.034387164E0
1.126647925E1,2.437669122E0,-4.728172013E0,9.030788859E-2,5.320338039E0
1.127648325E1,1.310647541E0,-4.261076546E0,3.036587727E-1,4.468420186E0
1.128648825E1,1.083934618E0,-3.875890630E0,1.419002295E-1,4.027105425E0
1.129649225E1,1.474188901E0,-3.330903819E0,4.802727520E-1,3.674073363E0
1.130649725E1,1.913378531E0,-2.637479006E0,9.421197581E-1,3.391887756E0
1.131650125E1,2.425436162E0,-2.007821004E0,1.348954990E0,3.425458411E0
1.132650525E1,2.910864989E0,-1.534902295E0,1.823311529E0,3.762117086E0
1.133651025E1,2.870659534E0,-1.113587603E0,2.043345762E0,3.695405988E0
1.134651425E1,2.402795159E0,-7.091620088E-1,2.056333598E0,3.241117584E0
1.135651825E1,1.773444135E0,-2.701916492E-1,1.902617315E0,2.614968504E0
1.136652325E1,1.263946999E0,4.171812952E-2,1.776517432E0,2.180668843E0
1.137652725E1,9.166048479E-1,2.218533021E-1,1.761604693E0,1.998157759E0
1.138653225E1,6.331967372E-1,3.179797733E-1,1.788296063E0,1.923551937E0
1.139653625E1,2.923116660E-1,4.103511626E-1,1.841022745E0,1.908716568E0
1.140654025E1,1.153363287E-2,4.928898740E-1,1.925200431E0,1.987327390E0
1.141654525E1,-3.405582118E-1,6.066410226E-1,1.960798280E0,2.080558368E0
1.142654925E1,-7.341886765E-1,7.765155011E-1,1.944695048E0,2.218974576E0
1.143655325E1,-1.223947366E0,1.040838885E0,1.862864435E0,2.460011513E0
1.144655825E1,-1.660681166E0,1.361053464E0,1.775464933E0,2.786145042E0
1.145656225E1,-2.032664654E0,1.624116188E0,1.673294195E0,3.093443461E0
1.146656725E1,-2.511606579E0,1.796493859E0,1.575043430E0,3.466456347E0
1.147657125E1,-3.136852273E0,1.852110236E0,1.518319591E0,3.946574323E0
1.148657525E1,-3.737184150E0,1.946872551E0,1.488227481E0,4.468968464E0
1.149658025E1,-4.204957893E0,1.978461549E0,1.468204275E0,4.873561817E0
1.150658425E1,-4.556776088E0,1.920976987E0,1.507812145E0,5.169899261E0
1.151658825E1,-4.904194838E0,1.856010329E0,1.609603983E0,5.485136857E0
1.152659325E1,-5.201835657E0,1.629562284E0,1.777053037E0,5.733453142E0
1.153659725E1,-5.512274276E0,1.344976544E0,2.011064454E0,6.019843008E0
1.154660225E1,-5.897233905E0,1.036623627E0,2.024805411E0,6.320743091E0
1.155660625E1,-6.137503597E0,7.853804648E-1,2.024260451E0,6.510253701E0
1.156661025E1,-6.006772134E0,5.858138251E-1,1.932440454E0,6.337098344E0
1.157661525E1,-5.809032165E0,4.500309527E-1,1.757868322E0,6.085842882E0
1.158661925E1,-5.603678536E0,3.987918019E-1,1.570718245E0,5.833301281E0
1.159662325E1,-5.179719733E0,3.212629849E-1,1.354609247E0,5.363550376E0
1.160662825E1,-4.446774759E0,3.484823585E-1,1.084238089E0,4.590296063E0
1.161663225E1,-3.607264280E0,6.039583200E-1,6.160421759E-1,3.708993017E0
1.162663733E1,-2.830231885E0,6.260151869E-1,9.125223219E-2,2.900074914E0
1.163664133E1,-2.084787903E0,4.465372413E-1,-3.813565743E-1,2.165910651E0
1.164664533E1,-1.321107625E0,1.050072223E-1,-7.658589506E-1,1.530650779E0
1.165665033E1,-5.886421233E-1,-3.781376821E-1,-1.113901598E0,1.315395160E0
1.166665433E1,2.764323825E-1,-8.721192312E-1,-1.400843182E0,1.673131326E0
1.167665833E1,1.144804133E0,-1.373738413E0,-1.669268972E0,2.446260949E0
1.168666333E1,2.069080528E0,-1.987850423E0,-1.892394043E0,3.437120707E0
1.169666733E1,2.968695121E0,-2.539814132E0,-2.129912621E0,4.449756659E0
1.170667233E1,3.652405955E0,-2.887991851E0,-2.354209474E0,5.217553875E0
1.171667633E1,4.151295072E0,-2.983339473E0,-2.608297892E0,5.739057682E0
1.172668033E1,4.509102570E0,-2.849392626E0,-2.850935706E0,6.048047514E0
1.173668533E1,4.708748147E0,-2.662294005E0,-3.131133696E0,6.250129335E0
1.174668933E1,4.931601908E0,-2.542891522E0,-3.303588551E0,6.457607295E0
1.175669333E1,5.040833743E0,-2.509798036E0,-3.220969148E0,6.487197643E0
1.176669833E1,5.104608740E0,-2.365457178E0,-3.058109574E0,6.403471887E0
1.177670233E1,5.115053621E0,-2.062528138E0,-2.782575908E0,6.177420542E0
1.178670733E1,5.042491429E0,-1.758616181E0,-2.438367864E0,5.870697448E0
1.179671133E1,4.808299332E0,-1.445984856E0,-2.090162664E0,5.438694203E0
1.180671533E1,4.446898720E0,-1.213795431E0,-1.729715148E0,4.923425847E0
1.181672033E1,4.027750422E0,-1.173639092E0,-1.345091150E0,4.405618275E0
1.182672433E1,3.590994403E0,-1.252108727E0,-9.848067713E-1,3.928468078E0
1.183672833E1,3.317851079E0,-1.436097799E0,-6.043249404E-1,3.665476955E0
1.184673333E1,3.033530803E0,-1.578863416E0,-2.042245317E-1,3.425905206E0
1.185673733E1,2.645447007E0,-1.697257839E0,8.293219250E-2,3.144193344E0
1.186674233E1,2.127501814E0,-1.743048554E0,2.638906896E-1,2.762991228E0
1.187674633E1,1.471275233E0,-1.659383669E0,3.409184003E-1,2.243753625E0
1.188675033E1,7.528296000E-1,-1.425096263E0,3.645306631E-1,1.652432864E0
1.189675533E1,4.962414980E-2,-1.060259827E0,3.746884096E-1,1.125613104E0
1.190675933E1,-6.154855210E-1,-5.995553666E-1,4.299422586E-1,9.608014415E-1
1.191676333E1,-1.186409411E0,-1.222834057E-1,5.275719758E-1,1.304167440E0
1.192676833E1,-1.797926427E0,3.515001065E-1,5.748490532E-1,1.920037290E0
1.193677233E1,-2.349777285E0,7.393026513E-1,6.701153259E-1,2.552856488E0
1.194677733E1,-2.815494563E0,1.085237378E0,7.363748773E-1,3.105961648E0
1.195678133E1,-3.340531844E0,1.439920124E0,8.250585008E-1,3.730046178E0
1.196678533E1,-3.755600540E0,1.735476995E0,8.924735351E-1,4.232366339E0
1.197679033E1,-4.185521749E0,1.960840965E0,9.285542178E-1,4.714414336E0
1.198679433E1,-4.516691671E0,2.165082453E0,8.621953368E-1,5.082466574E0
1.199679833E1,-4.803188281E0,2.340749184E0,8.315769037E-1,5.407517411E0
1.200680333E1,-4.987663257E0,2.464184491E0,8.302753135E-1,5.624797514E0
1.201680733E1,-5.164862543E0,2.454181075E0,7.824825847E-1,5.771575940E0
1.202681133E1,-5.240147198E0,2.357897898E0,8.207947111E-1,5.804526606E0
1.203681633E1,-5.210175540E0,2.158231271E0,8.682296634E-1,5.705936744E0
1.204682033E1,-5.089418258E0,2.022716201E0,9.020019384E-1,5.550420392E0
1.205682533E1,-4.807618132E0,1.773614874E0,8.415534961E-1,5.192987012E0
1.206682933E1,-4.464802310E0,1.513928917E0,7.539809167E-1,4.774403382E0
1.207683333E1,-4.143159256E0,1.385819346E0,7.140935504E-1,4.426758801E0
1.208683833E1,-3.672651354E0,1.160125008E0,7.352161054E-1,3.921071374E0
1.209684233E1,-3.056921420E0,8.892164898E-1,8.071695292E-1,3.284356433E0
1.210684733E1,-2.323693441E0,7.133532929E-1,8.917085000E-1,2.589124983E0
1.211685133E1,-1.476662858E0,5.133837801E-1,9.139746972E-1,1.810924031E0
1.212685533E1,-6.584216255E-1,2.884671217E-1,9.250341940E-1,1.171503554E0
1.213686033E1,1.124975055E-1,1.730565333E-1,8.904385579E-1,9.140487284E-1
1.214686433E1,7.898062223E-1,2.661740273E-1,7.652824152E-1,1.131503273E0
1.215686833E1,1.388580401E0,4.064323586E-1,5.435349476E-1,1.545565602E0
1.216687333E1,1.872059181E0,6.966501367E-1,1.850900301E-1,2.006037216E0
1.217687733E1,2.208010372E0,1.051733417E0,-3.142913131E-1,2.465812647E0
1.218688133E1,2.382900007E0,1.279236884E0,-7.969239648E-1,2.819529616E0
1.219688633E1,2.445336576E0,1.250044075E0,-1.181156200E0,2.989550322E0
1.220689033E1,2.438032234E0,1.002235567E0,-1.397966352E0,2.983753882E0
1.221689533E1,2.359689485E0,6.035104233E-1,-1.452965262E0,2.836100730E0
1.222689933E1,2.282462969E0,1.362225831E-1,-1.376217048E0,2.668738871E0
1.223690333E1,2.376931170E0,-3.429982549E-1,-1.242021110E0,2.703713377E0
1.224690833E1,2.599529407E0,-8.014731717E-1,-1.081807401E0,2.927493747E0
1.225691233E1,2.982067119E0,-1.214549137E0,-8.734839714E-1,3.336289579E0
1.226691633E1,3.430804667E0,-1.564856411E0,-6.492771649E-1,3.826324227E0
1.227692133E1,3.819694210E0,-1.775822783E0,-4.702728438E-1,4.238486399E0
1.228692533E1,4.039239031E0,-1.890891894E0,-4.135875964E-1,4.479060036E0
1.229693033E1,4.089660156E0,-1.962336098E0,-3.851643177E-1,4.552409769E0
1.230693433E1,3.966738819E0,-1.947542642E0,-4.467506647E-1,4.441567895E0
1.231693833E1,3.704547915E0,-1.969011279E0,-5.875176672E-1,4.236255149E0
1.232694333E1,3.403733813E0,-2.145048723E0,-7.505871928E-1,4.092678711E0
1.233694733E1,2.886686168E0,-2.280019417E0,-8.613907599E-1,3.778020595E0
1.234695133E1,2.472462394E0,-2.283551136E0,-8.438011658E-1,3.469823697E0
1.235695633E1,2.331084321E0,-2.294015898E0,-5.166459052E-1,3.311100428E0
1.236696033E1,2.366703220E0,-2.315118499E0,-1.172565544E-1,3.312824610E0
1.237696533E1,2.420678283E0,-2.180339593E0,2.444124814E-1,3.267001921E0
1.238696933E1,2.247834588E0,-1.872398905E0,5.011157370E-1,2.968123140E0
1.239697333E1,1.838745255E0,-1.491585537E0,6.092155516E-1,2.444781200E0
1.240697833E1,1.315508332E0,-1.225913200E0,6.903865993E-1,1.926151345E0
1.241698233E1,8.623918033E-1,-1.127906265E0,8.232715917E-1,1.641239860E0
1.242698633E1,4.790951228E-1,-9.530148751E-1,1.001215228E0,1.462942727E0
1.243699133E1,1.902707362E-1,-7.510695881E-1,1.194083297E0,1.423426640E0
1.244699533E1,2.826017797E-2,-5.339537001E-1,1.334051607E0,1.437219148E0
1.245699933E1,-1.172162086E-1,-2.550871217E-1,1.411495639E0,1.439141765E0
1.246700433E1,-2.908340746E-1,9.314380646E-2,1.475171818E0,1.506450171E0
1.247700833E1,-5.553393066E-1,4.662686706E-1,1.531101605E0,1.694131147E0
1.248701333E1,-9.261931121E-1,7.485289729E-1,1.542033559E0,1.948331800E0
1.249701733E1,-1.405203450E0,9.573207647E-1,1.542073320E0,2.295441114E0
1.250702133E1,-1.907000388E0,1.099118668E0,1.490334817E0,2.658159174E0
1.251702633E1,-2.343168762E0,1.210797563E0,1.421738791E0,2.996299681E0
1.252703033E1,-2.731108131E0,1.312535607E0,1.328499091E0,3.308566333E0
1.253703433E1,-3.129042147E0,1.385354492E0,1.217274524E0,3.632061273E0
1.254703933E1,-3.484144138E0,1.423911617E0,1.059140085E0,3.910059128E0
1.255704333E1,-3.746690553E0,1.481747012E0,9.209247708E-1,4.132961013E0
1.256704833E1,-3.930629924E0,1.542576181E0,7.154559517E-1,4.282670906E0
1.257705233E1,-4.103263119E0,1.581718612E0,5.367919751E-1,4.430208529E0
1.258705633E1,-4.193326027E0,1.594900575E0,4.426120420E-1,4.508169965E0
1.259706133E1,-4.224819131E0,1.525455533E0,3.944450184E-1,4.509068434E0
1.260706533E1,-4.279180110E0,1.338698389E0,4.217105484E-1,4.503480385E0
1.261706933E1,-4.296377356E0,1.058592786E0,5.245256861E-1,4.455850566E0
1.262707438E1,-4.298532640E0,8.357039416E-1,5.871013820E-1,4.418197819E0
1.263707838E1,-4.143475006E0,5.800186497E-1,6.293007374E-1,4.230936796E0
1.264708338E1,-3.917731551E0,3.442448813E-1,6.490491235E-1,3.986024311E0
1.265708738E1,-3.604214373E0,1.096393865E-1,6.417658317E-1,3.662546303E0
1.266709137E1,-3.256340709E0,-9.253452659E-2,5.798368013E-1,3.308856021E0
1.267709638E1,-2.901822855E0,-1.926271641E-1,4.547461474E-1,2.943548057E0
1.268710038E1,-2.444748346E0,-2.989219433E-1,2.386155152E-1,2.474487052E0
1.269710437E1,-1.954565733E0,-2.898207521E-1,4.302849968E-2,1.976404494E0
1.270710938E1,-1.473302463E0,-3.264599901E-1,-1.709468579E-1,1.518689929E0
1.271711338E1,-9.934612352E-1,-4.401754707E-1,-3.841000879E-1,1.152498394E0
1.272711838E1,-5.209547549E-1,-6.055154335E-1,-5.713758802E-1,9.820963260E-1
1.273712238E1,-7.649912238E-3,-1.002816195E0,-7.783146894E-1,1.269437907E0
1.274712638E1,5.483302492E-1,-1.544430918E0,-9.162201011E-1,1.877602779E0
1.275713138E1,1.087322495E0,-2.099673160E0,-1.061523410E0,2.591858318E0
1.276713538E1,1.576879456E0,-2.551648312E0,-1.212911332E0,3.235523424E0
1.277713937E1,2.003044413E0,-2.863444655E0,-1.305076314E0,3.730244818E0
1.278714438E1,2.341302915E0,-2.983273399E0,-1.432990004E0,4.054020211E0
1.279714838E1,2.575903147E0,-2.814808685E0,-1.646832036E0,4.155776788E0
1.280715237E1,2.642278985E0,-2.452711084E0,-1.878906856E0,4.065429974E0
1.281715738E1,2.674991818E0,-2.069524332E0,-2.136624055E0,4.000459291E0
1.282716138E1,2.810794571E0,-1.967843590E0,-2.313770131E0,4.138418386E0
1.283716638E1,2.954189349E0,-2.087597491E0,-2.339350530E0,4.307883343E0
1.284717038E1,3.053170431E0,-2.241634201E0,-2.255961049E0,4.408643082E0
1.285717438E1,3.143012899E0,-2.561000934E0,-2.027359475E0,4.532928668E0
1.286717938E1,3.291432774E0,-2.879156123E0,-1.682836851E0,4.685617308E0
1.287718338E1,3.372017346E0,-2.951792575E0,-1.383941220E0,4.690295693E0
1.288718737E1,3.472771888E0,-2.703924426E0,-1.133989123E0,4.545028407E0
1.289719238E1,3.621826771E0,-2.193913904E0,-9.646607745E-1,4.342977986E0
1.290719638E1,3.722732756E0,-1.691974295E0,-8.494636095E-1,4.176494297E0
1.291720138E1,3.666910558E0,-1.455519910E0,-6.843382394E-1,4.004134123E0
1.292720538E1,3.357583494E0,-1.352734045E0,-4.710727795E-1,3.650365171E0
1.293720938E1,2.846959600E0,-1.254948134E0,-2.938763809E-1,3.125129935E0
1.294721438E1,2.171538949E0,-1.151607369E0,-1.688044381E-1,2.463792986E0
1.295721838E1,1.353742105E0,-9.812885016E-1,-1.368622684E-1,1.677580428E0
1.296722238E1,5.341004652E-1,-7.280759972E-1,-1.664971268E-1,9.181934752E-1
1.297722738E1,-2.143027925E-1,-3.895040846E-1,-1.783775361E-1,4.790173945E-1
1.298723138E1,-9.491177058E-1,9.554291904E-2,-1.314979597E-1,9.629353988E-1
1.299723537E1,-1.591704487E0,5.974772662E-1,-6.521867394E-2,1.701398170E0
1.300724038E1,-2.149244100E0,1.086672869E0,5.181685567E-2,2.408898735E0
1.301724438E1,-2.660211226E0,1.568006306E0,1.895129371E-1,3.093748971E0
1.302724938E1,-3.099521894E0,1.999436097E0,3.142866719E-1,3.701831545E0
1.303725338E1,-3.468901032E0,2.287906727E0,4.134577151E-1,4.175971604E0
1.304725738E1,-3.805870222E0,2.469075102E0,5.033973205E-1,4.564470273E0
1.305726238E1,-4.076409196E0,2.633148558E0,6.254918611E-1,4.893038252E0
1.306726638E1,-4.382451879E0,2.685291688E0,7.798348924E-1,5.198540024E0
1.307727037E1,-4.581238500E0,2.655797748E0,9.587176645E-1,5.381463317E0
1.308727538E1,-4.762064229E0,2.627545171E0,1.178149708E0,5.565005488E0
1.309727938E1,-4.848794809E0,2.499894606E0,1.395733885E0,5.631017423E0
1.310728438E1,-4.722683816E0,2.117337599E0,1.678108792E0,5.440855636E0
1.311728838E1,-4.437239120E0,1.655635019E0,1.996125988E0,5.139526951E0
1.312729238E1,-4.185498360E0,1.205320476E0,2.274562211E0,4.913738620E0
1.313729738E1,-3.858324425E0,7.275485784E-1,2.487420741E0,4.647930318E0
1.314730138E1,-3.423562306E0,3.272815239E-1,2.649906678E0,4.341646861E0
1.315730538E1,-2.921388808E0,1.851988614E-2,2.730774840E0,3.998998222E0
1.316731038E1,-2.333777549E0,-1.136733806E-1,2.732165308E0,3.595019688E0
1.317731438E1,-1.805494478E0,-1.386035693E-1,2.645696683E0,3.206046194E0
1.318731937E1,-1.268084489E0,-1.049545974E-1,2.438373127E0,2.750403106E0
1.319732338E1,-7.009595346E-1,-1.095838380E-1,2.187193115E0,2.299383963E0
1.320732738E1,-2.223625946E-1,-8.729074359E-2,1.857275666E0,1.872575151E0
1.321733238E1,1.748165452E-1,-6.535432935E-3,1.490244770E0,1.500477594E0
1.322733638E1,5.582465422E-1,1.408664417E-1,9.783047406E-1,1.135148766E0
1.323734038E1,7.676534611E-1,3.890643740E-1,3.203081711E-1,9.182920276E-1
1.324734538E1,7.860154724E-1,6.664440054E-1,-4.180431382E-1,1.112082731E0
1.325734938E1,8.335930967E-1,7.738532639E-1,-1.125586674E0,1.600209888E0
1.326735338E1,9.135561097E-1,8.019637531E-1,-1.747723403E0,2.128912333E0
1.327735838E1,1.017528375E0,7.789748400E-1,-2.236853517E0,2.577921537E0
1.328736238E1,1.140195943E0,7.461830699E-1,-2.628219355E0,2.960468365E0
1.329736737E1,1.377487063E0,5.677207857E-1,-2.913411452E0,3.272268905E0
1.330737138E1,1.788571467E0,3.356541520E-1,-3.158913817E0,3.645598457E0
1.331737538E1,2.409667976E0,2.260989654E-1,-3.552313317E0,4.298435808E0
1.332738038E1,3.242713189E0,2.177538192E-1,-4.568955839E0,5.606956662E0
1.333738438E1,4.076325581E0,-1.219963074E-2,-5.335960844E0,6.714838583E0
1.334738838E1,4.678493484E0,-3.285714197E-1,-5.550007528E0,7.266281306E0
1.335739338E1,5.045847146E0,-7.045275056E-1,-5.359916886E0,7.394974067E0
1.336739738E1,4.960650875E0,-1.343352188E0,-4.461713226E0,6.805845804E0
1.337740138E1,4.509431768E0,-2.089713598E0,-3.156118848E0,5.887526134E0
1.338740638E1,3.894981204E0,-2.710647554E0,-1.590212277E0,5.004724151E0
1.339741038E1,3.147669037E0,-3.183624151E0,1.098070554E-3,4.476972672E0
1.340741537E1,2.597444875E0,-3.521667475E0,3.295724630E-1,4.388334501E0
1.341741938E1,1.927374426E0,-3.516343585E0,-6.300373038E-2,4.010413178E0
1.342742338E1,1.264777889E0,-3.385760642E0,-3.988397491E-1,3.636222130E0
1.343742838E1,9.269082266E-1,-2.955020238E0,-3.439776635E-1,3.116026974E0
1.344743238E1,1.130669659E0,-2.350327508E0,8.865544718E-2,2.609657652E0
1.345743638E1,1.480579323E0,-1.790974088E0,5.135995058E-1,2.379808346E0
1.346744138E1,1.669985840E0,-1.302870160E0,9.595584941E-1,2.325311993E0
1.347744538E1,1.382595191E0,-8.703633124E-1,1.175127794E0,2.012467910E0
1.348745037E1,8.209028846E-1,-5.427981985E-1,1.244055941E0,1.586249228E0
1.349745438E1,2.442919922E-1,-4.486346376E-1,1.333809532E0,1.428285505E0
1.350745838E1,-2.428541619E-1,-4.843429989E-1,1.503757685E0,1.598390897E0
1.351746337E1,-6.048991370E-1,-4.943282890E-1,1.663336387E0,1.837648323E0
1.352746738E1,-7.925164068E-1,-5.836486012E-1,1.895580776E0,2.135873222E0
1.353747138E1,-8.732588536E-1,-6.796902877E-1,2.123396484E0,2.394446186E0
1.354747638E1,-8.939878178E-1,-6.437696725E-1,2.338280489E0,2.584803524E0
1.355748038E1,-9.533183455E-1,-4.520336241E-1,2.479897714E0,2.695003328E0
1.356748438E1,-9.908311576E-1,-1.876260406E-1,2.429366076E0,2.630355384E0
1.357748938E1,-1.002416831E0,5.193730831E-2,2.268232015E0,2.480405907E0
1.358749338E1,-1.016626734E0,3.555878949E-1,2.013114488E0,2.283112483E0
1.359749837E1,-1.064221900E0,5.823674762E-1,1.693158356E0,2.082907907E0
1.360750238E1,-1.272922475E0,8.082331377E-1,1.442313974E0,2.086586215E0
1.361750638E1,-1.436197202E0,9.845196730E-1,1.216667583E0,2.124199001E0
1.362751058E1,-1.645140436E0,1.145300562E0,1.046671555E0,2.261353970E0
1.363751458E1,-1.876109548E0,1.322255434E0,8.990083102E-1,2.465027872E0
1.364751858E1,-2.037179874E0,1.553581810E0,7.187608711E-1,2.660889977E0
1.365752358E1,-2.181216676E0,1.672236434E0,5.334929395E-1,2.799767060E0
1.366752758E1,-2.377745102E0,1.713780316E0,4.506016409E-1,2.965426880E0
1.367753158E1,-2.546470018E0,1.746386145E0,4.202849972E-1,3.116249926E0
1.368753658E1,-2.662921411E0,1.725164845E0,3.957989777E-1,3.197499181E0
1.369754058E1,-2.761223046E0,1.683532670E0,3.974410951E-1,3.258311585E0
1.370754558E1,-2.930571275E0,1.431035864E0,4.498918620E-1,3.292189899E0
1.371754958E1,-3.002854555E0,1.022220765E0,6.827607337E-1,3.244723870E0
1.372755358E1,-2.988758088E0,7.308306205E-1,9.056776444E-1,3.207341625E0
1.373755858E1,-2.940403368E0,5.367328817E-1,1.065807080E0,3.173326155E0
1.374756258E1,-2.855449757E0,5.305073512E-1,1.151153040E0,3.124129428E0
1.375756658E1,-2.639444840E0,5.921013361E-1,1.160631377E0,2.943521403E0
1.376757158E1,-2.362800788E0,7.365281475E-1,1.126957262E0,2.719436329E0
1.377757558E1,-2.040853094E0,8.888504541E-1,1.083320734E0,2.475625233E0
1.378757958E1,-1.688302243E0,9.305913877E-1,1.053709264E0,2.196967913E0
1.379758458E1,-1.323513755E0,8.296047109E-1,9.411467084E-1,1.823647379E0
1.380758858E1,-1.083676171E0,6.707218283E-1,7.780621628E-1,1.493185368E0
1.381759358E1,-8.506535178E-1,3.826733673E-1,5.967177129E-1,1.107304088E0
1.382759758E1,-5.570952255E-1,-3.087622225E-2,3.939747926E-1,6.830260379E-1
1.383760158E1,-1.288305330E-1,-4.625685525E-1,1.508055754E-1,5.032984140E-1
1.384760658E1,4.078602487E-1,-8.690447652E-1,-1.376995897E-1,9.698195520E-1
1.385761058E1,1.072282872E0,-1.304413240E0,-4.581608482E-1,1.749627338E0
1.386761458E1,1.716388174E0,-1.778048818E0,-8.038343505E-1,2.598768098E0
1.387761958E1,2.240310391E0,-2.187683111E0,-1.093471427E0,3.316719434E0
1.388762358E1,2.617658114E0,-2.432365113E0,-1.415069457E0,3.843300094E0
1.389762758E1,2.836668500E0,-2.483823534E0,-1.736072241E0,4.150905245E0
1.390763258E1,2.922167657E0,-2.386864420E0,-2.100636781E0,4.318432639E0
1.391763658E1,2.876578671E0,-2.124367706E0,-2.444799217E0,4.331822505E0
1.392764158E1,2.846066145E0,-1.966281214E0,-2.694605134E0,4.384888954E0
1.393764558E1,2.983191538E0,-2.024897212E0,-2.756739986E0,4.538640306E0
1.394764958E1,3.053749305E0,-2.035421616E0,-2.591577194E0,4.492727270E0
1.395765458E1,3.028586397E0,-1.949321365E0,-2.323498728E0,4.286121287E0
1.396765858E1,3.013285988E0,-1.905091272E0,-1.999222673E0,4.087316540E0
1.397766258E1,2.866745408E0,-1.726576948E0,-1.725511000E0,3.765193940E0
1.398766758E1,2.635764602E0,-1.353056227E0,-1.520041012E0,3.329946076E0
1.399767158E1,2.408866907E0,-1.041234156E0,-1.396359537E0,2.972646683E0
1.400767658E1,2.177974395E0,-8.414149171E-1,-1.193414376E0,2.622172648E0
1.401768058E1,1.943688743E0,-7.174633008E-1,-9.699665380E-1,2.287687610E0
1.402768458E1,1.700646300E0,-7.444990718E-1,-6.882419137E-1,1.979937787E0
1.403768958E1,1.389645764E0,-9.037345415E-1,-4.187436712E-1,1.709736159E0
1.404769358E1,1.055268059E0,-1.162339348E0,-1.797306184E-1,1.580166615E0
1.405769758E1,7.370859718E-1,-1.365999039E0,6.070462346E-2,1.553362210E0
1.406770258E1,3.531408352E-1,-1.401375863E0,3.169391151E-1,1.479531399E0
1.407770658E1,-5.337689281E-2,-1.304617893E0,5.149327075E-1,1.403578509E0
1.408771058E1,-4.290704387E-1,-1.102967890E0,7.163634396E-1,1.383407454E0
1.409771558E1,-7.857529324E-1,-7.715173012E-1,9.070177531E-1,1.426649158E0
1.410771958E1,-1.166634128E0,-3.504604715E-1,1.111982688E0,1.649352367E0
1.411772458E1,-1.566403584E0,9.126509607E-2,1.279031646E0,2.024319999E0
1.412772858E1,-1.976172949E0,5.176329517E-1,1.419077139E0,2.487364735E0
1.413773258E1,-2.404839930E0,8.657650620E-1,1.535950116E0,2.981936785E0
1.414773758E1,-2.811818419E0,1.162500147E0,1.662406679E0,3.467178302E0
1.415774158E1,-3.231767201E0,1.420758213E0,1.730405120E0,3.931561397E0
1.416774558E1,-3.733097531E0,1.539516333E0,1.856596220E0,4.444443411E0
1.417775058E1,-4.201356593E0,1.622499433E0,1.968742307E0,4.915266819E0
1.418775458E1,-4.632123894E0,1.712734249E0,2.072153825E0,5.355730749E0
1.419775858E1,-4.961522695E0,1.729549672E0,2.166160534E0,5.683335374E0
1.420776358E1,-5.209607776E0,1.773671592E0,2.242677344E0,5.942686746E0
1.421776758E1,-5.355706306E0,1.819616089E0,2.293995871E0,6.103852046E0
1.422777258E1,-5.307108927E0,1.871531178E0,2.332440290E0,6.091659201E0
1.423777658E1,-5.044993452E0,1.763990942E0,2.403571377E0,5.860100540E0
1.424778058E1,-4.578038319E0,1.623306933E0,2.471802828E0,5.450079767E0
1.425778558E1,-4.011927856E0,1.458484449E0,2.490041463E0,4.941968080E0
1.426778958E1,-3.420328796E0,1.100843012E0,2.500065930E0,4.377308998E0
1.427779358E1,-2.785907067E0,7.429349416E-1,2.464741731E0,3.793175756E0
1.428779858E1,-2.107276880E0,4.894710070E-1,2.240200464E0,3.114272922E0
1.429780258E1,-1.279913991E0,2.002221125E-1,1.830894198E0,2.242864750E0
1.430780658E1,-3.198953211E-1,-4.304135442E-2,1.299170626E0,1.338667207E0
1.431781158E1,6.349216658E-1,-2.297277474E-1,7.619670439E-1,1.018083560E0
1.432781558E1,1.543317608E0,-2.767884779E-1,6.878079772E-2,1.569449552E0
1.433781958E1,2.068273028E0,-2.402971745E-1,-5.288678650E-1,2.148301019E0
1.434782458E1,2.217036719E0,-2.950738907E-1,-9.225503699E-1,2.419384136E0
1.435782858E1,2.286185891E0,-1.427200091E-1,-1.611836450E0,2.800898369E0
1.436783358E1,2.211923913E0,1.486958635E-1,-2.468331921E0,3.317737231E0
1.437783758E1,1.977459921E0,4.557945532E-1,-3.153975259E0,3.750420823E0
1.438784158E1,1.654055686E0,7.257517290E-1,-3.646794966E0,4.069610462E0
1.439784658E1,1.481742334E0,9.140975618E-1,-4.120966734E0,4.473645216E0
1.440785058E1,1.586039704E0,1.133691500E0,-4.519466175E0,4.922027313E0
1.441785458E1,1.913630546E0,1.170900841E0,-4.543387134E0,5.067085681E0
1.442785958E1,2.409574420E0,1.135259138E0,-4.332405560E0,5.085725134E0
1.443786358E1,3.028141424E0,1.033056825E0,-3.941095855E0,5.076325780E0
1.444786858E1,3.446654130E0,6.875436831E-1,-3.209872302E0,4.759771129E0
1.445787258E1,3.025677992E0,1.809128523E-1,-2.340171479E0,3.829341892E0
1.446787658E1,2.383870060E0,-9.704448402E-2,-1.850276549E0,3.019234573E0
1.447788158E1,2.358134125E0,-4.101003170E-1,-1.549308665E0,2.851199075E0
1.448788558E1,2.516844515E0,-6.276529920E-1,-1.181597153E0,2.850373032E0
1.449788958E1,2.821348211E0,-8.142908531E-1,-8.075121760E-1,3.045513296E0
1.450789458E1,3.168279887E0,-1.036647601E0,-4.829156570E-1,3.368359129E0
1.451789858E1,3.304698937E0,-1.134805394E0,-1.720016591E-1,3.498342882E0
1.452790258E1,3.301268960E0,-1.125110126E0,-1.740825735E-2,3.487771866E0
1.453790758E1,3.235048074E0,-1.163492419E0,2.327659607E-2,3.437992503E0
1.454791158E1,3.075407977E0,-1.204831064E0,6.440357208E-2,3.303619218E0
1.455791558E1,2.885774002E0,-1.277994350E0,8.965186754E-2,3.157372105E0
1.456792058E1,2.650636995E0,-1.355481652E0,1.127506900E-1,2.979248178E0
1.457792458E1,2.414919360E0,-1.384072198E0,2.366555651E-1,2.793474042E0
1.458792958E1,2.260373942E0,-1.342304952E0,4.224472976E-1,2.662618009E0
1.459793358E1,2.163308408E0,-1.214036336E0,6.559464991E-1,2.565941017E0
1.460793758E1,1.967426099E0,-1.015770117E0,8.388941824E-1,2.367762200E0
1.461794258E1,1.712054218E0,-7.693152398E-1,9.740502334E-1,2.114651139E0
1.462794658E1,1.372300583E0,-5.886655122E-1,1.135101264E0,1.875684103E0
1.463795133E1,9.545035762E-1,-4.569435310E-1,1.240770975E0,1.630762730E0
1.464795633E1,5.355055511E-1,-3.192848718E-1,1.407823588E0,1.539700061E0
1.465796033E1,2.004478151E-1,-1.803667223E-1,1.625955137E0,1.648163095E0
1.466796433E1,-7.518934608E-3,-3.679945171E-2,1.870389801E0,1.870766886E0
1.467796933E1,-1.496863818E-1,9.740759611E-2,2.118079026E0,2.125594743E0
1.468797333E1,-2.494468975E-1,2.331916380E-1,2.303516454E0,2.328688503E0
1.469797833E1,-3.046083605E-1,3.229785579E-1,2.481741925E0,2.521139502E0
1.470798233E1,-3.878879142E-1,4.143793094E-1,2.650795455E0,2.710882474E0
1.471798633E1,-5.320024842E-1,4.652132481E-1,2.771642200E0,2.860323494E0
1.472799133E1,-7.968480241E-1,4.923186010E-1,2.808422356E0,2.960503421E0
1.473799533E1,-1.114780435E0,4.654032826E-1,2.772723935E0,3.024455927E0
1.474799933E1,-1.459882518E0,4.881729251E-1,2.712164322E0,3.118558174E0
1.475800433E1,-1.781463591E0,5.234725660E-1,2.598807861E0,3.193969059E0
1.476800833E1,-2.070380949E0,5.403131318E-1,2.399289168E0,3.214810113E0
1.477801233E1,-2.386704791E0,5.968504447E-1,2.163230056E0,3.275996716E0
1.478801733E1,-2.653291047E0,8.199158746E-1,1.932539856E0,3.383330566E0
1.479802133E1,-2.813885994E0,1.048161353E0,1.657320771E0,3.429768031E0
1.480802633E1,-2.969869827E0,1.101203200E0,1.360414363E0,3.447245642E0
1.481803033E1,-3.151965571E0,9.767732817E-1,1.150371925E0,3.494614223E0
1.482803433E1,-3.351587175E0,8.466727334E-1,1.009839798E0,3.601356373E0
1.483803933E1,-3.531582014E0,5.677921218E-1,1.012416227E0,3.717451551E0
1.484804333E1,-3.629539833E0,3.845199180E-1,9.835437727E-1,3.780049381E0
1.485804733E1,-3.625936194E0,2.125883889E-1,8.965559149E-1,3.741178907E0
1.486805233E1,-3.505595233E0,2.914603114E-2,8.350268340E-1,3.603792065E0
1.487805633E1,-3.357217458E0,-9.355369627E-2,8.002838480E-1,3.452552041E0
1.488806033E1,-3.223814403E0,-1.409599972E-1,7.564168668E-1,3.314365022E0
1.489806533E1,-3.064739147E0,-1.344421059E-1,6.825443137E-1,3.142700663E0
1.490806933E1,-2.846839147E0,-1.689745921E-1,5.884930193E-1,2.911935710E0
1.491807333E1,-2.670206457E0,-2.710418344E-1,4.355169940E-1,2.719033146E0
1.492807833E1,-2.573245588E0,-3.518059158E-1,2.069540119E-1,2.605415556E0
1.493808233E1,-2.541022752E0,-3.315991080E-1,-3.710527936E-2,2.562836592E0
1.494808733E1,-2.431068785E0,-2.740122199E-1,-3.361798167E-1,2.469452369E0
1.495809133E1,-2.263974073E0,-2.579563504E-1,-6.596080256E-1,2.372172597E0
1.496809533E1,-1.952601653E0,-3.237708557E-1,-9.203891659E-1,2.182795684E0
1.497810033E1,-1.579499593E0,-4.342194968E-1,-1.247014632E0,2.058740156E0
1.498810433E1,-1.171718867E0,-6.861005902E-1,-1.491593138E0,2.017054588E0
1.499810833E1,-6.730630535E-1,-1.034081842E0,-1.715559039E0,2.113168698E0
1.500811333E1,-1.654990071E-1,-1.504010870E0,-1.904061577E0,2.432054504E0
1.501811733E1,3.832300222E-1,-2.127508830E0,-1.998863654E0,2.944251175E0
1.502812133E1,8.725788224E-1,-2.557927637E0,-2.080302504E0,3.410578559E0
1.503812633E1,1.313020926E0,-2.813277884E0,-2.158151164E0,3.781028015E0
1.504813033E1,1.833963987E0,-2.928970892E0,-2.162576337E0,4.076644552E0
1.505813533E1,2.250688614E0,-2.770075146E0,-2.164366754E0,4.174134521E0
1.506813933E1,2.477985089E0,-2.430893953E0,-2.180840700E0,4.099478220E0
1.507814333E1,2.764655946E0,-2.135706042E0,-2.096844277E0,4.074471588E0
1.508814833E1,3.116988112E0,-1.982657511E0,-1.929454865E0,4.167654229E0
1.509815233E1,3.451592104E0,-2.080627609E0,-1.634076920E0,4.348874185E0
1.510815633E1,3.617522051E0,-2.238818766E0,-1.261761310E0,4.437433589E0
1.511816133E1,3.681215771E0,-2.315597970E0,-9.126825356E-1,4.443684611E0
1.512816533E1,3.646737079E0,-2.393458909E0,-6.688957429E-1,4.413021458E0
1.513816933E1,3.515946559E0,-2.313195350E0,-4.692297006E-1,4.234728969E0
1.514817433E1,3.351780133E0,-1.969890116E0,-3.337625778E-1,3.902088490E0
1.515817833E1,3.092760758E0,-1.379348232E0,-3.082628703E-1,3.400411247E0
1.516818333E1,2.789700156E0,-7.363462991E-1,-3.930322580E-1,2.911890655E0
1.517818733E1,2.588682237E0,-2.950008005E-1,-4.323945808E-1,2.641072939E0
1.518819133E1,2.358163362E0,7.065366089E-2,-3.877534648E-1,2.390874135E0
1.519819633E1,2.000255876E0,2.274660444E-1,-2.891635616E-1,2.033809218E0
1.520820033E1,1.568958233E0,2.312217110E-1,-1.968161094E-1,1.598070711E0
1.521820433E1,1.100583980E0,2.274660444E-1,-1.040979072E-1,1.128655073E0
1.522820933E1,6.633900046E-1,1.813408685E-1,-1.006294119E-1,6.950518595E-1
1.523821333E1,2.324554735E-1,1.989515126E-1,-1.063362579E-1,3.239207484E-1
1.524821733E1,-1.639337075E-1,3.252332443E-1,-1.109134583E-1,3.807265671E-1
1.525822233E1,-5.698819166E-1,5.485898656E-1,-8.791164480E-2,7.958923902E-1
1.526822633E1,-9.693765539E-1,8.117005366E-1,-4.038079821E-2,1.264981926E0
1.527823033E1,-1.337973919E0,1.141704524E0,6.343761206E-2,1.760024931E0
1.528823533E1,-1.689527820E0,1.450061535E0,1.455243337E-1,2.231223888E0
1.529823933E1,-1.990205682E0,1.732003164E0,2.641585652E-1,2.651515296E0
1.530824433E1,-2.290445588E0,1.928135149E0,3.921025872E-1,3.019534829E0
1.531824833E1,-2.586040465E0,2.084241773E0,5.010864278E-1,3.358981492E0
1.532825233E1,-2.904678050E0,2.178762599E0,5.891139936E-1,3.678480167E0
1.533825733E1,-3.213457814E0,2.138279402E0,7.915456959E-1,3.940189655E0
1.534826133E1,-3.469823722E0,1.999669985E0,1.066612900E0,4.144396191E0
1.535826533E1,-3.690785324E0,1.850108734E0,1.375093213E0,4.351514676E0
1.536827033E1,-3.851990721E0,1.541466379E0,1.814429609E0,4.528366804E0
1.537827433E1,-3.876703393E0,1.130847414E0,2.387155026E0,4.691071753E0
1.538827833E1,-3.727528642E0,8.650353295E-1,2.812695501E0,4.749106430E0
1.539828333E1,-3.503226526E0,7.348125744E-1,2.994303002E0,4.666732913E0
1.540828733E1,-3.218326206E0,6.395392120E-1,3.082001882E0,4.501707406E0
1.541829133E1,-2.757874346E0,5.357505494E-1,3.117130784E0,4.196356024E0
1.542829633E1,-2.275017124E0,4.987598938E-1,3.091063896E0,3.870289441E0
1.543830033E1,-1.862083247E0,5.184293425E-1,2.911125190E0,3.494391631E0
1.544830533E1,-1.395566654E0,5.111033660E-1,2.600490689E0,2.995226997E0
1.545830933E1,-9.070119059E-1,5.299857795E-1,2.232361686E0,2.467183459E0
1.546831333E1,-5.152683377E-1,5.699427277E-1,1.828715672E0,1.983566783E0
1.547831833E1,-2.916439140E-1,6.973839623E-1,1.384845346E0,1.577718985E0
1.548832233E1,-1.396753639E-1,8.276330298E-1,9.300991984E-1,1.252824871E0
1.549832633E1,-1.673063815E-2,9.850517696E-1,4.501058701E-1,1.083144587E0
1.550833133E1,9.933191478E-2,1.215815059E0,-5.625478271E-2,1.221162433E0
1.551833533E1,1.829219556E-1,1.422408882E0,-5.655274951E-1,1.541599435E0
1.552833933E1,2.176052999E-1,1.599029878E0,-1.141432629E0,1.976642877E0
1.553834433E1,2.303832203E-1,1.764790841E0,-1.916941824E0,2.615765490E0
1.554834833E1,4.203756291E-1,1.879036079E0,-2.870702219E0,3.456649170E0
1.555835233E1,9.192039353E-1,2.032939473E0,-4.153973097E0,4.715216990E0
1.556835733E1,2.037326054E0,2.112583228E0,-5.407944746E0,6.153013223E0
1.557836133E1,3.874497238E0,1.798710539E0,-6.076766814E0,7.427932644E0
1.558836633E1,5.292714837E0,8.516949069E-1,-5.136433965E0,7.424363167E0
1.559837033E1,4.745998419E0,1.387018025E-1,-3.896835941E0,6.142399330E0
1.560837433E1,3.761578149E0,-5.263616753E-1,-3.082522284E0,4.891673580E0
1.561837933E1,3.106998144E0,-1.392945347E0,-1.944614357E0,3.921129838E0
1.562838333E1,2.725698872E0,-1.846041995E0,-8.932861519E-1,3.411050504E0
1.563838683E1,2.699185842E0,-1.989991674E0,-1.939345650E-1,3.359059643E0
1.564839183E1,3.088436158E0,-1.875307894E0,3.596746601E-2,3.613379479E0
1.565839583E1,3.423546519E0,-1.589929272E0,1.051820906E-1,3.776189763E0
1.566839983E1,3.675446908E0,-1.241195483E0,-2.208840530E-2,3.879428321E0
1.567840483E1,3.752838900E0,-9.952925831E-1,-1.443163355E-1,3.885258594E0
1.568840883E1,3.724644796E0,-9.422951746E-1,-2.992768693E-1,3.853630197E0
1.569841283E1,3.619805973E0,-9.871743089E-1,-4.728736854E-1,3.781681891E0
1.570841783E1,3.133260328E0,-1.087073404E0,-5.098643045E-1,3.355444900E0
1.571842183E1,2.527032119E0,-1.097789011E0,-4.955363238E-1,2.799390700E0
1.572842683E1,2.008373566E0,-1.122176578E0,-3.459142613E-1,2.326478310E0
1.573843083E1,1.830785440E0,-1.099898102E0,1.443560235E-1,2.140651729E0
1.574843483E1,1.839275013E0,-1.045635940E0,7.442710304E-1,2.242816635E0
1.575843983E1,1.753139679E0,-9.899248391E-1,1.148314801E0,2.317774105E0
1.576844383E1,1.688507481E0,-1.037036440E0,1.556738137E0,2.519907879E0
1.577844783E1,1.542567410E0,-1.034619786E0,1.907452962E0,2.662391617E0
1.578845283E1,1.337553504E0,-9.510402703E-1,2.100889381E0,2.665945079E0
1.579845683E1,1.120156950E0,-9.687701976E-1,2.216256115E0,2.665531552E0
1.580846083E1,9.287881064E-1,-9.267170227E-1,2.319741307E0,2.665080021E0
1.581846583E1,8.341696322E-1,-8.035524416E-1,2.318837328E0,2.592015057E0
1.582846983E1,6.501560014E-1,-6.792108160E-1,2.259714961E0,2.447517490E0
1.583847383E1,4.944996125E-1,-5.104730362E-1,2.162628962E0,2.276417495E0
1.584847883E1,3.761350107E-1,-2.629615670E-1,2.047383850E0,2.098191354E0
1.585848283E1,1.779605931E-1,-2.104062080E-2,1.861730075E0,1.870334610E0
1.586848783E1,-9.469682693E-2,2.184788740E-1,1.672723507E0,1.689587061E0
1.587849183E1,-3.891555905E-1,4.148751533E-1,1.463844591E0,1.570479052E0
1.588849583E1,-7.575588280E-1,5.490313303E-1,1.269292524E0,1.576843141E0
1.589850083E1,-1.109780481E0,6.945036238E-1,1.121384865E0,1.723790015E0
1.590850483E1,-1.510535778E0,7.751835054E-1,1.040954002E0,1.991535347E0
1.591850883E1,-1.870512008E0,8.414067310E-1,1.050187852E0,2.304273201E0
1.592851383E1,-2.230919178E0,8.259215498E-1,1.030470090E0,2.592492120E0
1.593851783E1,-2.497703655E0,7.900810415E-1,9.743752655E-1,2.795023928E0
1.594852183E1,-2.738084444E0,6.924541748E-1,9.775457720E-1,2.988677792E0
1.595852683E1,-3.011213735E0,6.005090475E-1,9.961211336E-1,3.228045320E0
1.596853083E1,-3.271245262E0,5.116331238E-1,1.056195427E0,3.475393905E0
1.597853483E1,-3.462459739E0,4.501607609E-1,1.150685336E0,3.676322741E0
1.598853983E1,-3.653452606E0,4.055693096E-1,1.243270075E0,3.880453954E0
1.599854383E1,-3.820625671E0,3.696796846E-1,1.319405501E0,4.058900647E0
1.600854883E1,-3.955000534E0,3.537857831E-1,1.463545214E0,4.231921336E0
1.601855283E1,-4.102791249E0,3.626975244E-1,1.542318903E0,4.398089713E0
1.602855683E1,-4.205277151E0,3.399039084E-1,1.563261291E0,4.499297329E0
1.603856183E1,-4.316802265E0,1.891053861E-1,1.546830615E0,4.589469206E0
1.604856583E1,-4.430990201E0,-3.610948026E-2,1.529120568E0,4.687556695E0
1.605856983E1,-4.562222185E0,-1.156661117E-1,1.425143040E0,4.781033633E0
1.606857483E1,-4.585851368E0,-5.380373955E-2,1.268054084E0,4.758244295E0
1.607857883E1,-4.444834068E0,5.593797326E-2,1.020051448E0,4.560721863E0
1.608858283E1,-4.132388100E0,2.316082120E-1,6.874525396E-1,4.195576810E0
1.609858783E1,-3.624265645E0,3.022460854E-1,3.220471696E-1,3.651077723E0
1.610859183E1,-3.058751013E0,2.765171671E-1,-1.251885217E-2,3.071249945E0
1.611859583E1,-2.473704928E0,6.550635695E-2,-3.450722257E-1,2.498515958E0
1.612860083E1,-1.823778137E0,-3.474690360E-1,-6.128501443E-1,1.955118084E0
1.613860483E1,-1.076764178E0,-9.372349942E-1,-8.403162253E-1,1.656490835E0
1.614860983E1,-3.106608135E-1,-1.726058300E0,-1.096990281E0,2.068616705E0
1.615861383E1,4.364893860E-1,-2.455451090E0,-1.209349208E0,2.771694165E0
1.616861783E1,1.173239728E0,-2.948886509E0,-1.237845029E0,3.406564753E0
1.617862283E1,1.861566353E0,-3.169140013E0,-1.260931005E0,3.885720616E0
1.618862683E1,2.465049294E0,-3.092156156E0,-1.319006721E0,4.168654033E0
1.619863083E1,3.028810930E0,-2.777713948E0,-1.482655084E0,4.368942267E0
1.620863583E1,3.498969753E0,-2.449521428E0,-1.654829857E0,4.580546520E0
1.621863983E1,3.857399395E0,-2.333707382E0,-1.770030531E0,4.843421138E0
1.622864383E1,4.097147516E0,-2.330635840E0,-1.774297829E0,5.036527968E0
1.623864883E1,4.202168187E0,-2.385935297E0,-1.651333222E0,5.106643332E0
1.624865283E1,4.249210791E0,-2.446883165E0,-1.443002776E0,5.111290109E0
1.625865683E1,4.290468745E0,-2.530059223E0,-1.143744618E0,5.110525753E0
1.626866183E1,4.232619317E0,-2.498649150E0,-8.088734078E-1,4.981223749E0
1.627866583E1,3.900814387E0,-2.081594154E0,-5.556258202E-1,4.456243615E0
1.628866983E1,3.373100250E0,-1.287831121E0,-5.309681118E-1,3.649416588E0
1.629867483E1,2.891741086E0,-4.758861709E-1,-6.354929388E-1,2.998747310E0
1.630867883E1,2.466708734E0,1.694160569E-1,-6.824203527E-1,2.564966143E0
1.631868383E1,2.028351163E0,5.612110806E-1,-6.856292316E-1,2.213425797E0
1.632868783E1,1.551192638E0,6.199849534E-1,-5.872744231E-1,1.770726176E0
1.633869183E1,9.914012611E-1,5.124464715E-1,-4.428014553E-1,1.200646066E0
1.634869683E1,5.027552962E-1,3.267488426E-1,-3.106461589E-1,6.752989931E-1
1.635870083E1,8.536934853E-2,1.624666411E-1,-2.224304223E-1,2.883723771E-1
1.636870483E1,-2.338143665E-1,5.130054653E-2,-2.118153870E-1,3.196352018E-1
1.637870983E1,-4.920724332E-1,1.238346720E-1,-2.600104773E-1,5.701541492E-1
1.638871383E1,-6.832851559E-1,3.316108024E-1,-2.911947747E-1,8.134117809E-1
1.639871783E1,-8.516779500E-1,6.384726799E-1,-2.580879128E-1,1.095268033E0
1.640872283E1,-1.046697795E0,9.911176711E-1,-2.161071702E-1,1.457598306E0
1.641872683E1,-1.305665714E0,1.363667169E0,-1.176517531E-1,1.891611228E0
1.642873083E1,-1.572078307E0,1.734519805E0,-7.077469826E-3,2.340948365E0
1.643873583E1,-1.798498285E0,2.026991100E0,7.003794909E-2,2.710755304E0
1.644873983E1,-1.976093427E0,2.211968937E0,1.223564959E-1,2.968623068E0
1.645874383E1,-2.198013387E0,2.327074885E0,1.336942470E-1,3.203812498E0
1.646874883E1,-2.337781722E0,2.397387069E0,-6.087287709E-2,3.349088480E0
1.647875283E1,-2.458842475E0,2.411044995E0,-1.305987310E-1,3.446171835E0
1.648875783E1,-2.652954247E0,2.176676897E0,7.423391104E-2,3.432433426E0
1.649876183E1,-2.959455351E0,1.941484927E0,4.484299850E-1,3.567748471E0
1.650876583E1,-3.207822268E0,1.651416253E0,9.607559308E-1,3.733677986E0
1.651877083E1,-3.467725157E0,1.208453414E0,1.541552918E0,3.982695421E0
1.652877483E1,-3.756608600E0,7.976841760E-1,2.072102369E0,4.363715899E0
1.653877883E1,-3.844851855E0,4.001202893E-1,2.463814362E0,4.584033513E0
1.654878383E1,-3.672850159E0,1.135114127E-1,2.652254920E0,4.531795372E0
