"Time (s)","Linear Acceleration x (m/s^2)","Linear Acceleration y (m/s^2)","Linear Acceleration z (m/s^2)","Absolute acceleration (m/s^2)"
3.231208335E-3,-4.819710758E-1,-5.630253254E-1,-1.349087137E0,1.539262726E0
1.328620836E-2,-3.607483551E-1,-3.075347458E-1,-1.644970867E0,1.711913009E0
2.334020834E-2,-1.806460000E-1,7.166449830E-2,-1.678207026E0,1.689422268E0
3.339520836E-2,2.515698022E-1,4.722531496E-1,-1.240733553E0,1.351195823E0
4.344920834E-2,7.006300440E-1,6.665013081E-1,-7.831018049E-1,1.244329092E0
5.350420834E-2,9.956254359E-1,6.705491893E-1,-2.637871939E-1,1.229019897E0
6.355820835E-2,9.260463470E-1,4.512071201E-1,2.390259898E-1,1.057489067E0
7.361220833E-2,7.173039642E-1,1.523858951E-1,6.353362334E-1,9.702569595E-1
8.366720835E-2,6.729440627E-1,-6.496578187E-2,6.975810134E-1,9.714388990E-1
9.372120834E-2,6.741632071E-1,-1.789959888E-1,6.864525926E-1,9.786484332E-1
1.037762084E-1,6.243389364E-1,-2.608628552E-1,5.652374732E-1,8.816699710E-1
1.138302083E-1,4.465646502E-1,-2.408032510E-1,3.295315325E-2,5.084211864E-1
1.238852083E-1,3.272433709E-1,-2.362010537E-1,-4.327530152E-1,5.917383997E-1
1.339392083E-1,3.397387245E-1,-2.271004473E-1,-6.701581568E-1,7.849260915E-1
1.439942083E-1,3.622803987E-1,-2.247200458E-1,-9.518863624E-1,1.042992729E0
1.540482084E-1,2.843688083E-1,-2.131446053E-1,-1.087272794E0,1.143878652E0
1.641022083E-1,2.196137454E-1,-1.780304673E-1,-1.040710246E0,1.078426103E0
1.741572084E-1,4.323793781E-1,-1.489275594E-1,-9.704600430E-1,1.072811279E0
1.842112083E-1,4.364113987E-1,-3.363316981E-1,-1.070605305E0,1.204063802E0
1.942662084E-1,1.752566944E-1,-5.511344276E-1,-1.353408229E0,1.471794110E0
2.043202083E-1,1.120075820E-1,-6.461220074E-1,-1.617615838E0,1.745479976E0
2.143752083E-1,5.049505603E-2,-7.383967714E-1,-2.058460230E0,2.187472985E0
2.244292083E-1,-1.638327699E-1,-9.437075695E-1,-2.620762986E0,2.790308904E0
2.344832083E-1,-4.536923695E-1,-1.124982657E0,-3.510150799E0,3.713836477E0
2.445382084E-1,-6.674979660E-1,-1.074572057E0,-4.960516974E0,5.119276051E0
2.545922083E-1,-4.553708493E-1,-7.772466955E-1,-6.280337627E0,6.344613128E0
2.646472084E-1,1.079230826E-1,-3.758170684E-1,-7.118904365E0,7.129634298E0
2.747012083E-1,8.823588022E-1,-1.615331331E-1,-7.452872765E0,7.506661206E0
2.847562083E-1,1.336973022E0,-5.469032362E-1,-7.462734679E0,7.601250483E0
2.948102083E-1,1.226692342E0,-1.553848882E0,-6.641326010E0,6.930110506E0
3.048652083E-1,8.063047260E-1,-2.428783839E0,-5.738971996E0,6.283702557E0
3.149192084E-1,1.080924179E0,-2.484591566E0,-4.549261832E0,5.295033101E0
3.249732083E-1,2.204435384E0,-2.351426931E0,-2.894537809E0,4.332100311E0
3.350282084E-1,3.160680846E0,-2.298800382E0,-1.768716661E0,4.289842099E0
3.450822083E-1,3.132964459E0,-2.246168863E0,-1.035717309E0,3.991672733E0
3.551372084E-1,2.210015967E0,-2.226221525E0,-4.017961013E-1,3.162542167E0
3.651912083E-1,9.398662412E-1,-2.286407939E0,-1.314676273E-1,2.475539043E0
3.752462083E-1,-2.491907895E-1,-2.744040418E0,-1.673695314E-1,2.760410554E0
3.853002083E-1,-1.264886647E0,-3.814029427E0,-7.720879894E-1,4.091806272E0
3.953542083E-1,-3.620865489E0,-5.036149539E0,-2.598033105E0,6.724823052E0
4.054092084E-1,-3.054327595E0,-4.715296151E0,-3.141813051E0,6.436918835E0
4.154632083E-1,-1.418364948E0,-4.210087948E0,-2.191571510E0,4.953744578E0
4.255182084E-1,-5.589944011E-1,-3.363210855E0,-8.715704700E-1,3.518990917E0
4.355722083E-1,1.730331445E-1,-2.719030707E0,-2.131894827E-1,2.732858982E0
4.456272083E-1,4.975951284E-1,-2.613279135E0,1.672957980E0,3.142549467E0
4.556812083E-1,-4.371249783E-1,-3.490057720E0,1.802407587E0,3.952246734E0
4.657362083E-1,-2.488265079E-1,-3.321123181E0,2.983155870E0,4.471128802E0
4.757902084E-1,6.251141310E-2,-2.278563168E0,5.403860466E0,5.864935270E0
4.858442083E-1,-9.025241679E-1,-3.227094983E0,4.151919554E0,5.335459483E0
4.958992084E-1,-9.686602700E-1,-4.533818750E0,2.592289969E0,5.311664755E0
5.059532083E-1,-1.623993981E-1,-4.503413814E0,1.862270942E0,4.875978118E0
5.160082084E-1,1.417559786E0,-3.162313973E0,2.295900455E0,4.157025898E0
5.260622083E-1,2.793822443E0,-2.349809737E0,4.123498578E0,5.507294269E0
5.361172083E-1,3.789136661E0,-2.783506200E0,5.268773997E0,7.061546773E0
5.461712083E-1,4.829810069E0,-3.467893556E0,5.619688797E0,8.181335661E0
5.562252083E-1,5.248937318E0,-3.953827290E0,6.087186552E0,8.957562912E0
5.662802084E-1,5.823619798E0,-4.082247933E0,6.271971431E0,9.482453342E0
5.763342083E-1,6.180727969E0,-3.579675363E0,5.835673249E0,9.223370111E0
5.863892084E-1,6.091563193E0,-2.907278599E0,4.940807179E0,8.364866202E0
5.964432083E-1,6.277543243E0,-2.470155083E0,4.138482653E0,7.914306916E0
6.064982083E-1,6.310754258E0,-2.382795342E0,3.274679332E0,7.498457020E0
6.165522083E-1,6.771681497E0,-2.947942768E0,2.265488502E0,7.725184465E0
6.266066250E-1,7.212088518E0,-3.675513566E0,6.865017092E-1,8.123724845E0
6.366616250E-1,7.939798479E0,-3.572931769E0,-1.438046676E-1,8.707865473E0
6.467156250E-1,9.494049795E0,-2.118893543E0,-8.147024971E-1,9.761681798E0
6.567706250E-1,1.213966403E1,1.228633325E0,-2.930376563E0,1.254862899E1
6.668246250E-1,1.029777473E1,4.735441271E0,-1.135239112E0,1.139110777E1
6.768796250E-1,8.359350820E0,6.048677375E0,-2.170761854E0,1.054407185E1
6.869336250E-1,1.048079726E1,5.006343942E0,-2.353203899E0,1.185108263E1
6.969886250E-1,1.082077309E1,1.813600473E0,2.071937478E-1,1.097365965E1
7.070426250E-1,9.631758741E0,2.614635104E-1,1.528327686E-1,9.636518949E0
7.170966250E-1,7.450909270E0,-1.483886508E0,1.334827825E0,7.713607032E0
7.271516250E-1,4.759325978E0,-2.194836010E0,-1.566527545E-1,5.243379536E0
7.372056250E-1,4.012803184E0,-1.561970226E0,-6.552321448E0,7.840615839E0
7.472606250E-1,3.173453504E0,-1.921122583E0,-1.454733460E0,3.984691777E0
7.573146250E-1,3.270168205E0,-2.015054594E0,-2.153507890E0,4.403639556E0
7.673696250E-1,3.908181294E0,-7.556707621E-1,-6.057625369E0,7.248430481E0
7.774236250E-1,4.574389656E0,3.672396415E-1,-6.985958562E0,8.358440208E0
7.874776250E-1,5.133669401E0,2.290778879E0,-8.250613074E0,9.983729038E0
7.975326250E-1,5.351082328E0,3.372796780E0,-6.253845062E0,8.894965894E0
8.075866250E-1,6.376722545E0,3.543748900E0,-3.230570861E0,7.978554679E0
8.176416250E-1,6.409764576E0,3.199827955E0,-1.056634553E0,7.241578380E0
8.276956250E-1,5.660556157E0,3.542743179E0,-1.039160734E0,6.758163972E0
8.377506250E-1,3.745608818E0,3.471627588E0,-1.531272928E0,5.331658308E0
8.478046250E-1,3.297623221E0,3.968398844E0,-1.711472128E0,5.436142487E0
8.578596250E-1,3.458061463E0,4.724261979E0,-1.241705360E0,5.984870302E0
8.679136250E-1,3.003200710E0,5.383089986E0,-5.824391046E-1,6.191615913E0
8.779676250E-1,3.476535156E0,5.368968376E0,1.118450148E0,6.493308005E0
8.880226250E-1,2.553746878E0,4.032409483E0,2.230642312E0,5.268559052E0
8.980766250E-1,7.230585015E-1,2.312076777E0,2.840368326E0,3.733122667E0
9.081316250E-1,-1.269995944E0,1.293985900E0,2.978471081E0,3.486915426E0
9.181856250E-1,-4.293637351E0,-6.180275980E-1,2.695651200E0,5.107231658E0
9.282406250E-1,-7.306737982E0,-2.992848215E0,1.250314508E0,7.994300892E0
9.382946250E-1,-4.689426023E0,9.866737872E-2,1.094439434E0,4.816456098E0
9.483486250E-1,-3.412581235E0,2.080080602E0,1.464049244E0,4.256276094E0
9.584036250E-1,-2.793278652E0,2.732224365E0,-6.634894073E-2,3.907922439E0
9.684576250E-1,-3.197485560E0,2.253063169E0,-3.353921968E-1,3.925900594E0
9.785126250E-1,-5.758307569E0,-4.364238971E-1,-3.235581632E-1,5.783879473E0
9.885666250E-1,-4.818277606E0,-2.511124769E-1,1.781931661E-1,4.828106188E0
9.986216250E-1,-3.593154949E0,1.908411906E0,7.153407615E-1,4.130921313E0
1.008675625E0,-3.389452574E0,3.098189606E0,5.898255998E-1,4.629801488E0
1.018729625E0,-2.906257383E0,3.887738551E0,8.573069184E-1,4.929078836E0
1.028784625E0,-2.139404406E0,4.461829585E0,1.912998900E0,5.305142718E0
1.038838625E0,-3.482596965E0,1.253598889E0,1.434411462E0,3.969575297E0
1.048893625E0,-5.019746345E0,-3.475500199E-1,2.826462770E0,5.771268160E0
1.058947625E0,-6.184661391E0,-3.375126895E0,1.260758659E0,7.157585520E0
1.069002625E0,-5.871834185E0,-3.515340203E0,1.192658038E-1,6.844726274E0
1.079056625E0,-3.694833351E0,-1.156776892E0,-1.035378170E0,4.007734301E0
1.089111625E0,-2.832695317E0,-4.628860563E-2,-2.455025997E0,3.748794212E0
1.099165625E0,-3.212712879E0,3.173301476E-1,-2.845594860E0,4.303444269E0
1.109219625E0,-4.229604492E0,-3.422407481E-1,-2.574760602E0,4.963474090E0
1.119274625E0,-3.625346795E0,-9.309974769E-1,-2.933528212E0,4.755573936E0
1.129328625E0,-1.620059389E0,-1.767455417E0,-2.129187566E0,3.206544989E0
1.139383625E0,2.173924028E0,-2.689918298E0,2.989871398E0,4.571754270E0
1.149437625E0,2.872226588E0,-2.811549447E0,5.129682185E0,6.516758027E0
1.159492625E0,4.792027116E-1,-3.042358344E0,3.704507570E0,4.817567422E0
1.169546625E0,1.539374245E0,-5.616137783E0,2.163241165E0,6.212108258E0
1.179601625E0,3.096135187E0,-7.790790374E0,1.014876662E0,8.444669466E0
1.189655625E0,3.802144377E0,-6.484196123E0,-7.574658573E-1,7.554790252E0
1.199709625E0,1.796298562E0,-1.333242060E0,-4.275215479E-1,2.277498098E0
1.209764625E0,1.199154587E0,2.211803753E0,-6.939300851E-1,2.609901632E0
1.219818625E0,2.237297906E0,9.562051159E-1,2.166393399E-2,2.433166552E0
1.229873625E0,6.695908599E0,5.967267761E-1,-4.068594977E-2,6.722568717E0
1.239927625E0,3.894042726E0,-4.621680182E-1,7.075330476E-1,3.984692089E0
1.249982625E0,4.776669989E0,2.733102617E-1,2.010852785E0,5.189875105E0
1.260036625E0,9.157672343E0,-1.769249927E0,-2.130422352E0,9.567230918E0
1.270090625E0,7.758537133E0,-4.075973286E0,-4.164865290E0,9.703327241E0
1.280145625E0,6.371117404E0,-1.427705875E0,-4.278360915E0,7.806013910E0
1.290199625E0,5.892449713E0,1.034781754E-2,-4.077013214E0,7.165410486E0
1.300254625E0,3.183255191E0,1.334409749E0,-3.236840830E0,4.731902530E0
1.310308625E0,1.873077766E0,2.415548521E0,-2.662468836E0,4.053644691E0
1.320363625E0,-7.029698074E-1,3.394688463E0,-6.501272039E-1,3.527143560E0
1.330417625E0,-8.721461284E-1,4.646464190E0,2.043493112E0,5.150352652E0
1.340471625E0,3.741329241E-1,6.677284632E0,3.653659598E0,7.620717418E0
1.350526625E0,-7.420292079E-2,6.215804831E0,5.689720899E0,8.427019620E0
1.360580625E0,-2.175232050E0,3.829953734E0,6.106485872E0,7.529233015E0
1.370635625E0,-5.140694831E0,5.492622954E-1,4.360088618E0,6.763047033E0
1.380689625E0,-8.675350142E0,-4.070656121E0,4.044030240E0,1.040125579E1
1.390744625E0,-1.102062858E1,-6.734869766E0,4.254871480E0,1.359840639E1
1.400798625E0,-1.027743227E1,-5.890334775E0,1.859005272E0,1.199072802E1
1.410853625E0,-8.025190632E0,-3.415815915E0,-1.056173208E0,8.785612380E0
1.420907625E0,-6.360529851E0,-1.672867348E0,-2.826689057E0,7.158561041E0
1.430961625E0,-4.676789020E0,-1.210081279E-1,-4.060501846E0,6.194729514E0
1.441016625E0,-2.240433767E0,1.355198647E0,-3.103924847E0,4.060844284E0
1.451070625E0,-7.877544343E-2,3.061543059E0,-3.439081401E0,4.605055087E0
1.461125625E0,1.199446948E0,4.224714466E0,-4.496232263E0,6.285140401E0
1.471179625E0,1.355852950E0,4.450236311E0,-3.261587416E0,5.681627664E0
1.481234625E0,1.005843299E0,3.785892041E0,-1.746225931E0,4.288823182E0
1.491288625E0,4.222069770E0,1.433379428E0,2.002963137E0,4.887976172E0
1.501343625E0,8.523643547E0,-1.497854337E0,5.677706625E0,1.035047919E1
1.511397625E0,1.108065142E1,-1.780885887E0,6.388414637E0,1.291372262E1
1.521451625E0,6.848742537E0,1.163537443E-2,-6.660148928E-1,6.881059915E0
1.531506625E0,9.343587488E-1,4.714463800E-1,-4.981098588E0,5.089855706E0
1.541560625E0,-1.286846158E0,5.606339604E-1,-5.670582962E-1,1.513881958E0
1.551615625E0,-1.549986942E0,5.380701399E-1,-1.650547357E0,2.327291467E0
1.561669625E0,-1.117236266E0,1.504190379E-1,-1.638939464E0,1.989212238E0
1.571724625E0,-8.844808298E-1,-1.275906894E0,-9.221398222E-1,1.805709443E0
1.581778625E0,-9.775030142E-1,-2.084654002E0,-2.103893681E0,3.118920177E0
1.591832625E0,-7.786778015E-1,-2.249804515E0,-2.610794068E0,3.533299469E0
1.601887625E0,-4.629638243E-1,-2.646768478E0,-1.612052797E0,3.133437904E0
1.611941625E0,5.903027326E-2,-2.255555837E0,-1.270455535E0,2.589415759E0
1.621996625E0,1.063713777E0,-1.127056664E-1,3.417891238E-1,1.122946736E0
1.632050375E0,8.826468506E-1,8.188148439E-1,7.906376233E-1,1.440357963E0
1.642105375E0,4.477517080E-1,1.048558964E0,3.776552137E-1,1.201074915E0
1.652159375E0,2.824784034E-1,1.361099657E0,6.258625015E-1,1.524496702E0
1.662214375E0,1.049130821E-1,5.294905204E0,-1.172501809E0,5.424185502E0
1.672268375E0,-4.731794947E-1,3.476177307E0,6.508296007E-1,3.568092862E0
1.682322375E0,-2.882431734E-1,2.342571176E0,1.452219157E0,2.771220728E0
1.692377375E0,-1.876339343E-1,3.531835783E0,-9.970888478E-1,3.674677763E0
1.702431375E0,-5.940689242E-1,4.737494813E0,-2.562656280E0,5.418854326E0
1.712486375E0,-7.372815612E-1,4.560642852E0,-3.658168970E0,5.892813211E0
1.722540375E0,-5.638341415E-1,4.012636539E0,-2.382860246E0,4.700764181E0
1.732595375E0,-5.356958780E-1,3.544582713E0,-1.466580504E0,3.873227989E0
1.742649375E0,-3.150161120E-1,2.386377931E0,-8.201047397E-1,2.542952333E0
1.752703375E0,1.413026440E-1,1.071146173E0,-3.923493397E-1,1.149460119E0
1.762758375E0,4.267999649E-2,1.369511461E-1,-5.727160621E-1,5.904073901E-1
1.772812375E0,-3.780835953E-1,-6.095277929E-1,-1.054582180E0,1.275388141E0
1.782867375E0,-7.329224619E-1,-1.630110168E0,-1.524419407E0,2.349103877E0
1.792921375E0,-1.614357769E-1,-4.291960369E0,-2.261162732E0,4.853848187E0
1.802976375E0,8.317950779E-1,-3.581923032E0,-1.504976245E0,3.973286947E0
1.813030375E0,-1.145785881E0,4.905989349E-1,-1.245375073E0,1.761951098E0
1.823085375E0,-3.581673941E-1,-4.319507772E-1,-1.042915231E0,1.184287775E0
1.833139375E0,-1.858400086E-1,-5.057870775E-1,-5.852150702E-1,7.955084884E-1
1.843193375E0,-3.234252852E-1,5.577331567E-1,-1.073288008E0,1.252045262E0
1.853248375E0,-2.554236290E-1,-6.290060377E-1,-5.819593406E-1,8.941848242E-1
1.863302375E0,-5.688627470E-1,5.767097104E-1,1.389076245E-1,8.218845680E-1
1.873357375E0,-1.252854539E0,2.660489554E0,-7.333589566E-1,3.030786123E0
1.883411375E0,-4.963289139E-1,1.273394346E0,3.208484538E-1,1.403858711E0
1.893466375E0,-1.045511979E0,1.129980272E-1,1.320427594E0,1.688014480E0
1.903520375E0,-1.464525500E0,1.159703423E0,-1.314454079E-1,1.872705226E0
1.913574375E0,-1.404270819E0,9.687269282E-1,-3.565284926E-2,1.706364416E0
1.923629375E0,-1.429065060E0,1.247260800E0,-6.229670334E-1,1.996490515E0
1.933683375E0,-1.025526489E0,8.304057795E-1,2.545409918E-1,1.343900835E0
1.943738375E0,-6.561493975E-1,4.007015026E-1,-5.836219233E-2,7.710381777E-1
1.953792375E0,-4.849186572E-1,3.465820134E-1,7.147975552E-1,9.306990604E-1
1.963847375E0,2.834952343E-1,-1.566827508E0,1.744971703E0,2.362254057E0
1.973901375E0,2.188885007E0,-1.102402932E1,1.201508092E0,1.130327659E1
1.983956375E0,1.962296045E0,-1.810701775E1,-9.915462720E-1,1.824000717E1
1.994010375E0,3.365613475E0,-1.725540704E1,-1.261941404E0,1.762580274E1
2.004064375E0,3.395041927E0,-6.238337662E0,1.564010904E0,7.272502772E0
2.014119375E0,1.156332796E0,4.116480750E-1,1.914634513E0,2.274287798E0
2.024173375E0,-1.241828737E-1,5.818383032E-1,1.613473378E-2,5.951617653E-1
2.034228375E0,-9.788160065E-1,9.423711884E-1,6.538948573E-2,1.360301443E0
2.044282375E0,-1.241447498E0,1.693961763E0,4.759645966E-1,2.153425328E0
2.054337375E0,-1.522481347E0,1.868432738E0,5.239865363E-1,2.466485808E0
2.064391375E0,-1.757467496E0,1.173098810E0,1.034758438E0,2.352780874E0
2.074445375E0,-1.387956795E0,8.905818146E-1,1.220631995E0,2.051707216E0
2.084500375E0,-1.081839269E0,9.676182961E-1,8.987673318E-1,1.707174299E0
2.094554375E0,-9.826222515E-1,9.154915380E-1,3.766168213E-1,1.394815929E0
2.104609375E0,-9.553142926E-1,7.551182002E-1,1.238436621E-2,1.217777593E0
2.114663375E0,-9.072662598E-1,7.039427841E-1,-3.441624355E-1,1.198797436E0
2.124718375E0,-9.784458777E-1,7.125522244E-1,-6.254626250E-1,1.362457524E0
2.134772375E0,-8.310390329E-1,8.199749315E-1,-7.176697075E-1,1.370414015E0
2.144827375E0,-6.353514361E-1,8.897216892E-1,-6.373301339E-1,1.265490352E0
2.154881375E0,-6.227106330E-1,8.134605485E-1,-6.976698911E-1,1.239447406E0
2.164935375E0,-6.806998095E-1,7.242133266E-1,-8.546980369E-1,1.310856936E0
2.174990375E0,-7.937335047E-1,6.421213424E-1,-9.851926875E-1,1.418780225E0
2.185044375E0,-1.004672102E0,5.302553362E-1,-1.072691592E0,1.562435280E0
2.195099375E0,-1.095922580E0,2.831566805E-1,-1.056784827E0,1.548553575E0
2.205153375E0,-8.789136958E-1,2.353463370E-1,-1.286675127E0,1.575883899E0
2.215208375E0,-7.328818238E-1,1.691915238E-1,-1.765084956E0,1.918662670E0
2.225262375E0,-5.655415285E-1,-1.157976741E-1,-2.047636449E0,2.127454195E0
2.235316375E0,-1.515379027E-1,-4.076485795E-1,-2.442577275E0,2.480992714E0
2.245371375E0,2.346259600E-1,-8.487210131E-1,-2.748024126E0,2.885656476E0
2.255425375E0,8.397709724E-1,-9.611109298E-1,-2.873525255E0,3.144216420E0
2.265480375E0,1.523678857E0,-6.866321021E-1,-2.872316051E0,3.323140141E0
2.275534375E0,1.995672244E0,-4.450508791E-1,-2.438802313E0,3.182535893E0
2.285589375E0,2.426458256E0,1.587635994E-2,-1.802590166E0,3.022793912E0
2.295643375E0,2.407339615E0,5.835725874E-1,-6.285253966E-1,2.555559657E0
2.305698375E0,1.306774053E0,9.445299804E-1,7.992564923E-1,1.799612806E0
2.315752375E0,1.373581123E-1,1.366752160E0,1.354813900E0,1.929352073E0
2.325806375E0,-8.266150296E-1,1.872425802E0,8.719847453E-1,2.224775986E0
2.335861375E0,-1.723846590E0,1.731064101E0,9.384371817E-2,2.444797871E0
2.345915375E0,-2.392502597E0,1.257974069E0,-9.241109186E-1,2.856667363E0
2.355970375E0,-2.738325057E0,5.868546295E-1,-1.684486935E0,3.268075689E0
2.366024375E0,-2.833646659E0,-1.305116075E-1,-1.667056970E0,3.290237926E0
2.376079375E0,-2.530712649E0,-6.628824663E-1,-1.032911814E0,2.812619152E0
2.386133375E0,-2.149834085E0,-1.192140267E0,-4.833630055E-1,2.505319302E0
2.396187375E0,-2.022489329E0,-1.530244988E0,-1.023794836E-1,2.538226618E0
2.406242375E0,-2.205823221E0,-1.589343966E0,1.884271091E-1,2.725284407E0
2.416296375E0,-2.234269633E0,-1.367626904E0,5.983982027E-2,2.620294820E0
2.426351375E0,-2.003027456E0,-1.040179904E0,-6.005909816E-1,2.335551915E0
2.436405375E0,-1.923394519E0,-5.805928463E-1,-8.367599487E-1,2.176396503E0
2.446460375E0,-2.105948392E0,-7.772177517E-2,-5.039107791E-1,2.166791494E0
2.456514375E0,-2.276016706E0,1.292866158E-1,-7.080627322E-2,2.280785085E0
2.466569375E0,-2.308341284E0,1.396215695E-1,1.690447587E-1,2.318730212E0
2.476623375E0,-2.242665357E0,2.595520556E-2,2.578954663E-1,2.257594217E0
2.486677375E0,-2.161620756E0,-7.835619807E-2,4.125082004E-1,2.202023388E0
2.496732375E0,-1.896157165E0,6.226641476E-2,3.751778215E-1,1.933920241E0
2.506786375E0,-1.484756281E0,1.812297714E-1,4.016352298E-1,1.548759601E0
2.516841375E0,-1.117028689E0,1.695949817E-1,4.856550410E-1,1.229787124E0
2.526895375E0,-7.188195625E-1,4.687829733E-2,6.612538706E-1,9.778322042E-1
2.536950375E0,-1.634001490E-1,-1.664772463E-1,9.469208338E-1,9.752298948E-1
2.547004375E0,4.153538941E-1,-4.884799039E-1,1.354803375E0,1.498874130E0
2.557058375E0,1.314820261E0,-8.395964330E-1,1.889572177E0,2.450338242E0
2.567113375E0,2.249854217E0,-1.259637017E0,2.085598328E0,3.316360926E0
2.577167375E0,3.001521390E0,-1.506039854E0,2.262853893E0,4.049419024E0
2.587222375E0,3.496094970E0,-1.213822913E0,2.702671952E0,4.582628261E0
2.597276375E0,3.785928878E0,-7.947073585E-1,3.284278121E0,5.074573877E0
2.607331375E0,4.324902121E0,-7.520677078E-1,2.824372391E0,5.219910305E0
2.617385375E0,4.005834473E0,-5.485068351E-1,1.814084184E0,4.431531451E0
2.627440958E0,2.612863982E0,-6.597033352E-1,8.685601772E-1,2.831371304E0
2.637494958E0,2.009246994E0,-6.309169078E-1,-9.158020252E-1,2.296480563E0
2.647548958E0,1.022431704E0,-4.071012801E-1,-2.530330533E0,2.759288069E0
2.657603958E0,-2.641479671E-2,-4.939096284E-1,-3.624625248E0,3.658217141E0
2.667657958E0,-1.001888827E0,-7.157629305E-1,-4.132671398E0,4.312200213E0
2.677712958E0,-1.389195674E0,-8.145995861E-1,-4.308470567E0,4.599603867E0
2.687766958E0,-1.229910796E0,-5.299647295E-1,-3.807584334E0,4.036241028E0
2.697821958E0,-1.170992058E0,-4.558419156E-1,-2.587986126E0,2.876923086E0
2.707875958E0,-1.241256733E0,-3.572052348E-1,-1.006075433E0,1.637223758E0
2.717929958E0,-9.066819768E-1,-3.675735176E-1,-5.661054924E-2,9.799934959E-1
2.727984958E0,-4.066913903E-1,6.881880462E-2,9.072023790E-1,9.965691502E-1
2.738038958E0,-2.617190337E-1,3.069560176E-1,1.614042605E0,1.663686382E0
2.748093958E0,-6.817569861E-1,4.879635948E-1,2.031580580E0,2.197776310E0
2.758147958E0,-1.228048165E0,8.871699643E-1,2.535726344E0,2.953824797E0
2.768202958E0,-1.277226318E0,1.234834882E0,1.946451552E0,2.635298446E0
2.778256958E0,-1.408073556E0,1.506041023E0,9.388276295E-1,2.265442125E0
2.788311958E0,-1.536701191E0,1.139249278E0,-1.343783712E-1,1.917654039E0
2.798365958E0,-1.437414446E0,1.084310009E0,-6.117656685E-1,1.901616607E0
2.808419958E0,-8.430272868E-1,1.444327170E0,-4.312496960E-1,1.727064643E0
2.818474958E0,7.712302029E-2,1.878756582E0,-5.110103953E-1,1.948539422E0
2.828528958E0,7.148941804E-1,1.722192121E0,-6.494189599E-1,1.974528899E0
2.838583958E0,1.419493168E0,1.355540124E0,-1.048759523E0,2.225386802E0
2.848637958E0,2.277061603E0,1.334410041E0,-1.333341755E0,2.956934213E0
2.858692958E0,2.235239247E0,9.010880917E-1,-1.113868416E0,2.654987211E0
2.868746958E0,2.192370093E0,5.776405871E-1,-2.337278277E-1,2.279206873E0
2.878800958E0,2.196419583E0,2.259136087E-1,2.027568805E-1,2.217297069E0
2.888855958E0,1.603908357E0,-5.844765669E-1,-3.674448788E-1,1.746181724E0
2.898909958E0,1.510519113E0,-5.853899020E-1,-1.597729458E0,2.275321680E0
2.908964958E0,1.570145218E0,-5.228135848E-1,-2.916642623E0,3.353430220E0
2.919018958E0,1.527484663E0,-4.830928642E-1,-3.517637574E0,3.865276473E0
2.929073958E0,1.685724206E0,-4.234997964E-1,-3.713854929E0,4.100455658E0
2.939127958E0,2.032613198E0,-4.693191630E-1,-3.621618610E0,4.179461478E0
2.949182958E0,2.569049041E0,-5.098391980E-1,-3.453312062E0,4.334202716E0
2.959236958E0,2.881010275E0,-3.962266284E-1,-3.015910511E0,4.189621935E0
2.969290958E0,3.143692053E0,-6.276044601E-1,-3.095911531E0,4.456608048E0
2.979345958E0,3.668343126E0,-7.112640828E-1,-3.463396463E0,5.094875164E0
2.989399958E0,3.965773737E0,-6.550395960E-1,-3.278452832E0,5.186973219E0
2.999454958E0,4.524206220E0,-9.556075305E-1,-3.838244501E0,6.009471568E0
3.009508958E0,5.102957486E0,-7.512093365E-1,-4.258397644E0,6.688680069E0
3.019563958E0,5.043424060E0,-5.379496872E-1,-4.016119725E0,6.469523457E0
3.029617958E0,4.591060360E0,-7.984630251E-1,-4.199602429E0,6.273120355E0
3.039672958E0,4.172939125E0,-1.151755888E0,-4.814071411E0,6.474198493E0
3.049726958E0,3.802386159E0,-9.694554913E-1,-4.735430161E0,6.149982379E0
3.059780958E0,4.128205879E0,-2.289386072E0,-5.728796672E0,7.423104719E0
3.069835958E0,4.547977198E0,-2.009270529E0,-5.107468028E0,7.127937592E0
3.079889958E0,5.041565230E0,-1.631438071E0,-3.784653308E0,6.511725640E0
3.089944958E0,5.508603979E0,-1.518930041E0,-2.902549371E0,6.409107513E0
3.099998958E0,5.072448469E0,-1.469283087E0,-1.851757795E0,5.596207036E0
3.110053958E0,4.351181847E0,-1.557029913E0,-1.243385850E0,4.785721887E0
3.120107958E0,3.331532687E0,-1.250748664E0,-1.744723197E0,3.963274063E0
3.130161958E0,1.650057360E0,-9.207546169E-1,-2.150546129E0,2.862748157E0
3.140216958E0,2.527488202E-2,-8.433690566E-1,-2.159795401E0,2.318755347E0
3.150270958E0,-8.806894952E-1,-1.129410169E0,-1.559223642E0,2.117158398E0
3.160325958E0,-1.488432718E0,-2.224101909E0,4.815825284E-2,2.676636037E0
3.170379958E0,-1.728142393E0,-3.469334895E0,1.968296750E0,4.347062553E0
3.180434958E0,-2.225202648E0,-5.072441452E0,3.838912253E0,6.739320173E0
3.190488958E0,-3.268978004E0,-6.508573165E0,4.551343440E0,8.588507958E0
3.200543958E0,-4.327458523E0,-7.178155371E0,3.691099904E0,9.158440386E0
3.210597958E0,-4.662476791E0,-6.441189852E0,3.057274007E0,8.519069250E0
3.220651958E0,-4.105907230E0,-4.269287206E0,2.505225513E0,6.431286209E0
3.230706958E0,-4.505690719E0,-2.819655442E0,1.753243175E0,5.596924807E0
3.240760958E0,-4.360717193E0,-1.747326377E0,8.865349567E-1,4.780684903E0
3.250815958E0,-3.883631759E0,-1.244822511E0,1.784593971E-1,4.082159536E0
3.260869958E0,-3.404760584E0,-1.430554054E0,-3.755034383E-1,3.712126395E0
3.270924958E0,-2.418035049E0,-1.031138939E0,-5.935531998E-1,2.694892653E0
3.280978958E0,-1.545172783E0,-1.024688875E0,1.734916393E-1,1.862161531E0
3.291033958E0,-3.294675055E-1,-1.409158507E0,1.252210468E0,1.913715651E0
3.301087958E0,9.026326337E-1,-1.163898801E0,1.846462995E0,2.361955055E0
3.311141958E0,1.372365195E0,-7.281619513E-1,2.720389016E0,3.132749982E0
3.321196958E0,1.119070099E0,-2.896044052E-1,3.473595761E0,3.660881876E0
3.331250958E0,1.198848486E0,-5.772078931E-2,3.716670363E0,3.905663576E0
3.341305958E0,6.898653200E-1,8.802398443E-2,3.805415894E0,3.868443163E0
3.351359958E0,-2.861829069E-1,6.477720916E-1,3.292376515E0,3.367677605E0
3.361414958E0,-6.952929980E-1,1.300629507E0,2.455201706E0,2.864102806E0
3.371468958E0,-1.062494048E0,1.809634307E0,2.005225425E0,2.902515966E0
3.381523958E0,-1.745508478E0,2.462927924E0,2.272097902E0,3.778259213E0
3.391577958E0,-2.481874073E0,2.647511659E0,2.387834911E0,4.344050237E0
3.401631958E0,-2.789400486E0,3.166795279E0,2.515331548E0,4.912864766E0
3.411686958E0,-3.209571463E0,3.565352608E0,2.912280308E0,5.611992942E0
3.421740958E0,-4.047462263E0,3.603841905E0,3.480552486E0,6.440797532E0
3.431795958E0,-4.531283982E0,3.778671899E0,3.383352174E0,6.801321032E0
3.441849958E0,-4.713363354E0,4.015643762E0,2.876844134E0,6.827695153E0
3.451904958E0,-4.772542147E0,4.058117352E0,2.449198370E0,6.726369573E0
3.461958958E0,-4.620759246E0,4.033840297E0,2.223346741E0,6.524304889E0
3.472013958E0,-4.183891545E0,4.001171903E0,2.148656748E0,6.175034484E0
3.482067958E0,-3.664236626E0,3.958394843E0,1.937809660E0,5.731546568E0
3.492121958E0,-3.147111797E0,3.807401608E0,1.479152894E0,5.156405042E0
3.502176958E0,-2.442686618E0,3.662564907E0,8.160824400E-1,4.477397700E0
3.512230958E0,-1.702615643E0,3.306481753E0,1.519903310E-1,3.722206694E0
3.522285958E0,-8.012139939E-1,2.887688965E0,-4.661695603E-1,3.032821373E0
3.532339958E0,2.066148734E-1,2.272979954E0,-1.178678515E0,2.568737165E0
3.542394958E0,9.541268693E-1,1.272879206E0,-1.970621456E0,2.532573490E0
3.552448958E0,1.500720349E0,5.494798118E-1,-2.890504107E0,3.302893220E0
3.562503958E0,2.047359584E0,-2.129614413E-1,-4.367188015E0,4.827977319E0
3.572557958E0,2.791197628E0,-7.310504758E-1,-5.850640951E0,6.523436099E0
3.582611958E0,3.203645017E0,-1.371835145E0,-7.076613793E0,7.888202320E0
3.592666958E0,3.285788749E0,-2.273619640E0,-7.839569017E0,8.799124748E0
3.602720958E0,3.519247605E0,-2.757160401E0,-7.667971948E0,8.876081961E0
3.612775958E0,3.689240490E0,-2.679609364E0,-6.621861799E0,8.039891505E0
3.622829958E0,3.402515838E0,-2.338528411E0,-4.824989332E0,6.350303238E0
3.632884500E0,2.554282483E0,-1.656778150E0,-3.071003269E0,4.324388271E0
3.642938500E0,1.279837977E0,-6.956450003E-1,-2.251241176E0,2.681416426E0
3.652992500E0,3.877434880E-3,2.843845958E-1,-1.886733938E0,1.908049944E0
3.663047500E0,-1.229088385E0,1.057549058E0,-1.554646003E0,2.246328663E0
3.673101500E0,-2.231138741E0,1.853401886E0,-1.358955629E0,3.203098349E0
3.683156500E0,-3.058631145E0,1.973906568E0,-1.354694763E0,3.884163942E0
3.693210500E0,-3.843191831E0,6.897287875E-1,-1.733679414E0,4.272176677E0
3.703265500E0,-4.759925902E0,-2.240132051E0,-3.292459545E0,6.206075737E0
3.713319500E0,-5.275718735E0,-6.825425010E0,-4.759268675E0,9.852424730E0
3.723374500E0,-4.899615007E0,-1.045079636E1,-1.285048577E0,1.161364377E1
3.733428500E0,-5.131567912E0,-1.190370783E1,3.662246819E0,1.347008913E1
3.743482500E0,-4.920835429E0,-1.148089567E1,5.831293684E0,1.378512142E1
3.753537500E0,-3.306091159E0,-5.126202507E0,7.780910919E0,9.886898686E0
3.763591500E0,-3.471431707E0,1.663707100E0,7.609803847E0,8.528063907E0
3.773646500E0,-4.914700531E0,3.942921941E0,6.017748528E0,8.712876223E0
3.783700500E0,-5.383823812E0,5.260002589E0,4.213785435E0,8.626075224E0
3.793755500E0,-5.154629915E0,5.648513816E0,3.049201341E0,8.232469053E0
3.803809500E0,-4.407530587E0,5.163480846E0,3.789671681E0,7.774925837E0
3.813863500E0,-3.768441610E0,4.692157842E0,5.359178967E0,8.058430157E0
3.823918500E0,-3.206171599E0,3.951892154E0,6.093229065E0,7.938792626E0
3.833972500E0,-2.689934378E0,2.774623695E0,6.368123045E0,7.448978099E0
3.844027500E0,-1.740001278E0,6.959391153E-1,5.736093997E0,6.034460211E0
3.854081500E0,-3.594289309E-1,-1.131085396E0,4.434755223E0,4.590816617E0
3.864136500E0,-2.023136616E-4,-3.173969228E0,4.650277745E0,5.630201045E0
3.874190500E0,7.998844832E-2,-4.053188733E0,4.752751368E0,6.246869827E0
3.884245500E0,9.855805041E-1,-3.802447262E0,4.391284683E0,5.891804077E0
3.894299500E0,1.955694392E0,-3.600952211E0,4.037373769E0,5.752563284E0
3.904353500E0,2.589627440E0,-4.375323538E0,4.848443391E0,7.025455833E0
3.914408500E0,3.530357022E0,-3.988605067E0,4.568373456E0,7.017294858E0
3.924462500E0,4.140298798E0,-1.382840774E0,2.126089711E0,4.855366125E0
3.934517500E0,4.165445918E0,-4.322840685E-1,-1.025413784E-1,4.189071968E0
3.944571500E0,3.570382383E0,-3.046954840E-1,-1.484667111E0,3.878750589E0
3.954626500E0,2.903806230E0,-7.076709688E-2,-2.770570990E0,4.014120354E0
3.964680500E0,2.407338445E0,3.025729448E-1,-5.139760446E0,5.683657820E0
3.974735500E0,1.859551256E0,1.147961045E0,-6.737210991E0,7.082778930E0
3.984789500E0,1.516604311E0,1.512784617E0,-6.611712787E0,6.950061288E0
3.994843500E0,5.466425966E-1,1.043277174E0,-4.070173725E0,4.237164092E0
4.004898500E0,-5.351087444E-1,1.751860893E-1,-2.128052621E0,2.201281330E0
4.014952500E0,-1.612208479E0,-8.658726507E-1,-1.313689701E0,2.252716640E0
4.025007500E0,-2.282717323E0,-1.186165583E0,-4.840149701E-1,2.617643531E0
4.035061500E0,-1.793426118E0,-4.818006295E-1,3.798971093E-1,1.895476431E0
4.045116500E0,-1.255564431E0,6.234412426E-1,1.388646328E0,1.973185153E0
4.055170500E0,-1.111803398E0,1.395516368E0,2.573181853E0,3.131267727E0
4.065224500E0,-9.502771356E-1,2.165394695E0,2.591947907E0,3.508583015E0
4.075279500E0,-9.024123399E-1,2.336790619E0,1.904203665E0,3.146574332E0
4.085333500E0,-9.897262531E-1,2.120661741E0,1.178642555E0,2.620298179E0
4.095388500E0,-1.109861903E0,1.645224051E0,4.827619117E-1,2.042453105E0
4.105442500E0,-1.053073233E0,6.096172553E-1,-2.753898239E-1,1.247572037E0
4.115497500E0,-6.052563288E-1,-2.000654072E-1,-6.831595869E-1,9.343812990E-1
4.125551500E0,-5.788268775E-1,-8.053779423E-1,-6.589548916E-1,1.190754271E0
4.135606500E0,-1.021905308E0,-1.239562941E0,-7.164774603E-1,1.759018673E0
4.145660500E0,-9.201634634E-1,-1.359311578E0,-1.552402427E0,2.259287954E0
4.155714500E0,-4.703392828E-1,-1.245857468E0,-2.438840027E0,2.778726426E0
4.165769500E0,4.884069599E-2,-8.903414941E-1,-3.853249626E0,3.955075988E0
4.175823500E0,6.677868915E-1,-9.394528431E-1,-5.620620843E0,5.737585698E0
4.185878500E0,1.415695986E0,-6.741073662E-1,-6.278798640E0,6.471624852E0
4.195932500E0,2.152808271E0,-5.525273806E-1,-5.861439589E0,6.268679607E0
4.205987500E0,2.719217526E0,-8.885832363E-1,-4.753304223E0,5.547758570E0
4.216041500E0,3.138828924E0,-1.247340907E0,-3.680122342E0,4.995138316E0
4.226095500E0,3.553795002E0,-1.220595742E0,-2.943559695E0,4.773243819E0
4.236150500E0,3.790685880E0,-9.852920902E-1,-2.194149840E0,4.489364484E0
4.246204500E0,3.884252148E0,-7.873819667E-1,-1.450343955E0,4.220294149E0
4.256259500E0,3.923484334E0,-6.621188200E-1,-9.895909631E-1,4.100173280E0
4.266313500E0,3.745637469E0,-5.242087305E-1,-8.055551130E-1,3.866977358E0
4.276368500E0,3.492220897E0,-9.744191927E-1,-1.157348457E0,3.805857986E0
4.286422500E0,3.309856181E0,-1.323321966E0,-1.914275201E0,4.046081872E0
4.296477500E0,3.250524776E0,-2.386386702E0,-2.925207040E0,4.981725508E0
4.306531500E0,3.754453901E0,-3.215045334E0,-4.709962029E0,6.827604478E0
4.316585500E0,4.717523648E0,-3.201492072E0,-6.347649604E0,8.532129650E0
4.326640500E0,5.841850247E0,-2.636005508E0,-7.157034643E0,9.607230831E0
4.336694500E0,6.632079223E0,-1.916100410E0,-7.070077776E0,9.881392380E0
4.346749500E0,6.835664070E0,-1.422209492E0,-6.082539185E0,9.259927972E0
4.356803500E0,6.454043201E0,-1.439108530E0,-4.420802012E0,7.954193701E0
4.366858500E0,5.981489943E0,-1.857749290E0,-3.365447999E0,7.110252781E0
4.376912500E0,4.977075704E0,-1.770149229E0,-2.663578053E0,5.916025600E0
4.386966500E0,2.562510685E0,-1.494206843E0,-2.608165160E0,3.949891214E0
4.397021500E0,-6.732140578E-1,-1.588302577E0,-3.486195926E0,3.889663774E0
4.407075500E0,-3.356745296E0,-2.301829532E0,-4.412291390E0,6.002872103E0
4.417130500E0,-4.466486308E0,-2.655975503E0,-3.344926611E0,6.179987043E0
4.427184500E0,-4.242685883E0,-3.333667797E0,-5.198005146E-1,5.420693411E0
4.437239500E0,-4.033007653E0,-4.184613091E0,2.192355037E0,6.211485979E0
4.447293500E0,-4.231961505E0,-5.161688674E0,3.320350179E0,7.455015322E0
4.457348500E0,-4.053989217E0,-5.093918275E0,3.456578025E0,7.370940483E0
4.467402500E0,-3.778653480E0,-4.265995808E0,3.466608338E0,6.670405964E0
4.477456500E0,-4.470124446E0,-4.005639176E0,3.589891618E0,6.993888732E0
4.487511500E0,-4.829395209E0,-3.705241395E0,3.166332765E0,6.861307096E0
4.497565500E0,-4.493681708E0,-3.469781622E0,2.623985971E0,6.254427406E0
4.507620500E0,-3.912237215E0,-2.790139866E0,2.089207814E0,5.239777647E0
4.517674500E0,-2.517629504E0,-1.776537897E0,4.073638201E-1,3.108132961E0
4.527729500E0,-1.641331414E0,-1.207147146E0,-9.764195982E-1,2.259329165E0
4.537783500E0,-1.968835132E0,-1.230351822E0,-1.158942993E-1,2.324544874E0
4.547837500E0,-1.636054302E0,-1.268285049E0,1.116491769E0,2.351972473E0
4.557892500E0,-1.400588535E0,-1.471168229E0,1.548695877E0,2.554298949E0
4.567946500E0,-2.023978030E0,-1.546803718E0,2.562490804E0,3.613232338E0
4.578001500E0,-2.055799893E0,-1.152851071E0,3.575561846E0,4.282525109E0
4.588055500E0,-1.349795527E0,-6.246966398E-1,4.000754704E0,4.268282097E0
4.598110500E0,-4.121322975E-1,2.819761276E-1,4.518139734E0,4.545651793E0
4.608164500E0,-4.070868082E-2,7.702636582E-1,4.619366147E0,4.683322207E0
4.618219500E0,6.567251290E-1,1.345460109E0,4.377729667E0,4.626669195E0
4.628273458E0,1.258724851E0,1.790739614E0,4.242814229E0,4.774160576E0
4.638327458E0,6.857908340E-1,1.916108596E0,4.609786653E0,5.039039016E0
4.648382458E0,2.028097978E-1,2.312038186E0,4.812153232E0,5.342609018E0
4.658436458E0,-3.367010960E-1,2.432660982E0,4.524053900E0,5.147647110E0
4.668491458E0,-8.830511856E-1,3.167448413E0,4.365547578E0,5.465392438E0
4.678545458E0,-1.137961941E0,4.066739071E0,4.545128435E0,6.204153169E0
4.688600458E0,-2.035930616E0,4.247299921E0,5.084626465E0,6.930944840E0
4.698654458E0,-2.161850551E0,5.062517558E0,5.082515620E0,7.492305844E0
4.708708458E0,-2.361713791E0,5.544631013E0,4.608563708E0,7.586796726E0
4.718763458E0,-2.451901976E0,5.725439785E0,4.198061395E0,7.511072061E0
4.728817458E0,-2.437130301E0,5.748777777E0,4.048330574E0,7.441574462E0
4.738872458E0,-2.399719377E0,5.708605067E0,3.892325399E0,7.314165838E0
4.748926458E0,-2.462465410E0,5.405769582E0,3.542124251E0,6.916120652E0
4.758981458E0,-2.149450069E0,5.177618828E0,2.656285113E0,6.203525041E0
4.769035458E0,-1.671729188E0,4.647205033E0,1.474121950E0,5.154049730E0
4.779090458E0,-1.013170737E0,4.051358555E0,4.430815369E-2,4.176360173E0
4.789144458E0,-4.586782172E-1,2.808159816E0,-1.484082097E0,3.209150499E0
4.799198458E0,3.998700650E-1,1.139297810E0,-3.400877448E0,3.608858959E0
4.809253458E0,1.578575587E0,-6.267191917E-1,-6.715530685E0,6.926978433E0
4.819307458E0,2.604748339E0,-2.538714856E0,-1.025861593E1,1.088434600E1
4.829362458E0,2.240540625E0,-5.103876668E0,-1.200641067E1,1.323720047E1
4.839416458E0,1.741531640E0,-5.805242000E0,-1.206604759E1,1.350271349E1
4.849471458E0,2.215422010E0,-4.296773797E0,-1.066032081E1,1.170524667E1
4.859525458E0,1.925502294E0,-2.793552302E0,-8.316464417E0,8.981930413E0
4.869579458E0,1.010422327E0,-1.305841130E0,-5.843678087E0,6.072458145E0
4.879634458E0,-4.159306077E-3,-1.724577785E-2,-3.854578114E0,3.854618937E0
4.889688458E0,-6.040592576E-1,9.503982460E-1,-2.689624768E0,2.915857645E0
4.899743458E0,-1.158466810E0,1.501669645E0,-2.387588743E0,3.049202696E0
4.909797458E0,-1.810664440E0,1.628108667E0,-1.530835264E0,2.876230198E0
4.919852458E0,-2.652337658E0,1.080290049E0,-1.704535868E0,3.332771244E0
4.929906458E0,-3.282917474E0,-6.152510476E-1,-4.312590808E0,5.454770432E0
4.939961458E0,-4.344333880E0,-4.048272979E0,-6.925266802E0,9.122558372E0
4.950015458E0,-5.050859379E0,-6.527038087E0,-5.820110884E-1,8.273581061E0
4.960069458E0,-5.115109754E0,-7.962007958E0,8.936368679E0,1.301601336E1
4.970124458E0,-5.548903574E0,-1.010956689E1,1.101294183E1,1.594611430E1
4.980178458E0,-4.382627295E0,-7.493398063E0,1.012734710E1,1.333872542E1
4.990233458E0,-2.965831155E0,-5.047801870E-1,9.127929311E0,9.610933929E0
5.000287458E0,-3.546344187E0,3.462658544E0,7.042794667E0,8.612056550E0
5.010342458E0,-3.766201542E0,4.944822462E0,4.922558019E0,7.928878905E0
5.020396458E0,-3.652342220E0,5.406473002E0,4.874949405E0,8.144610838E0
5.030450458E0,-2.900961560E0,4.901838410E0,6.296824436E0,8.490794766E0
5.040505458E0,-1.814297754E0,4.274830366E0,7.722674990E0,9.011412764E0
5.050559458E0,-1.299677434E0,3.491646116E0,8.487176217E0,9.268921953E0
5.060614458E0,-1.362197179E0,1.715094185E0,8.461408707E0,8.740284122E0
5.070668458E0,-1.526511248E0,-1.835756743E-1,8.420263020E0,8.559483976E0
5.080723458E0,-9.874791681E-1,-1.258293911E0,7.853581284E0,8.014808648E0
5.090777458E0,-1.848457626E-1,-2.605347971E0,5.432128830E0,6.027439725E0
5.100832458E0,1.984409776E-1,-3.469552996E0,2.819261924E0,4.474976493E0
5.110886458E0,-2.441371141E-1,-3.762943473E0,2.611057777E0,4.586607595E0
5.120940458E0,-1.181241350E-1,-4.349906276E0,3.272377868E0,5.444639091E0
5.130995458E0,1.317805703E0,-4.166283240E0,3.035589023E0,5.320651146E0
5.141049458E0,1.960482823E0,-3.659455943E0,3.911141739E0,5.703695328E0
5.151104458E0,1.823801087E0,-3.307300363E0,1.866163434E0,4.212725016E0
5.161158458E0,3.862694341E0,-7.648994225E-1,6.553103220E-1,3.991855498E0
5.171213458E0,4.612155945E0,-9.805780649E-4,1.016255436E0,4.722791392E0
5.181267458E0,4.217863868E0,-1.139341664E-1,1.138521300E0,4.370307467E0
5.191321458E0,3.636565555E0,-9.968684077E-2,1.216569496E0,3.835959833E0
5.201376458E0,3.316373780E0,4.513951081E-1,-1.594184875E-1,3.350747207E0
5.211430458E0,3.248634079E0,1.349718052E0,-1.795667502E0,3.949656184E0
5.221485458E0,2.979379739E0,1.806459269E0,-3.870608840E0,5.207841348E0
5.231539458E0,1.848387460E0,1.307735043E0,-5.509185192E0,5.956326773E0
5.241594458E0,2.668638526E-1,8.408471525E-2,-6.450890383E0,6.456955419E0
5.251648458E0,-5.203878674E-1,-6.962642205E-1,-6.953063881E0,7.007188076E0
5.261702458E0,-4.303524408E-1,-7.443084526E-1,-5.886835216E0,5.949287954E0
5.271757458E0,1.779614702E-1,-3.217319316E-1,-3.748962196E0,3.766948270E0
5.281811458E0,6.310930552E-1,-7.283759594E-2,-1.725865341E0,1.839074478E0
5.291866458E0,1.106112815E0,2.759710371E-1,-5.137395832E-1,1.250429499E0
5.301920458E0,1.507572263E0,5.379151887E-1,8.265185505E-1,1.801460461E0
5.311975458E0,1.489586227E0,6.486333865E-1,1.389715053E0,2.137966400E0
5.322029458E0,9.997573708E-1,4.176432252E-1,8.380787882E-1,1.369787107E0
5.332084458E0,4.569601956E-1,3.180914551E-1,2.406029838E-1,6.065349042E-1
5.342138458E0,-5.933725208E-2,3.581109685E-1,-8.809312776E-2,3.735301519E-1
5.352192458E0,-6.467128685E-1,1.371353334E-1,-6.617703259E-1,9.354055795E-1
5.362247458E0,-1.231822104E0,-1.622181344E-1,-1.272607603E0,1.778547309E0
5.372301458E0,-1.535076396E0,-4.157510662E-1,-1.861791471E0,2.448586525E0
5.382356458E0,-1.544354319E0,-5.314417362E-1,-2.646880159E0,3.110214648E0
5.392410458E0,-1.350620715E0,-7.771393991E-1,-3.217001520E0,3.574523848E0
5.402465458E0,-9.727351946E-1,-1.210829723E0,-3.807900668E0,4.112472477E0
5.412519458E0,-9.554905862E-2,-1.726363524E0,-4.870443540E0,5.168237700E0
5.422574458E0,9.663840951E-1,-2.274978533E0,-5.941020194E0,6.434683092E0
5.432628458E0,2.186903970E0,-2.684375430E0,-6.370219272E0,7.250387162E0
5.442682458E0,3.581424265E0,-2.591813421E0,-5.671473493E0,7.190946263E0
5.452737458E0,4.589996752E0,-2.225813974E0,-3.928683971E0,6.438701404E0
5.462791458E0,4.835747332E0,-1.907878055E0,-1.881316493E0,5.528453914E0
5.472846458E0,4.835588288E0,-1.390425782E0,-8.058787563E-1,5.095648979E0
5.482900458E0,4.609668832E0,-1.002962961E0,-8.403057003E-1,4.791773691E0
5.492955458E0,3.557099848E0,-1.209322895E0,-1.444797286E0,4.025277679E0
5.503009458E0,2.548607760E0,-2.280407088E0,-1.751424690E0,3.842284014E0
5.513063458E0,2.158049276E0,-2.845159827E0,-2.468490088E0,4.341146673E0
5.523118458E0,2.252548614E0,-2.647598197E0,-3.895175039E0,5.220741332E0
5.533172458E0,2.409704375E0,-2.333616750E0,-5.456338057E0,6.405003302E0
5.543227458E0,2.944779132E0,-2.064616179E0,-6.465597884E0,7.398534997E0
5.553281458E0,4.055974055E0,-1.982021334E0,-6.912922745E0,8.256381470E0
5.563336458E0,4.665807365E0,-2.079593822E0,-6.507891380E0,8.273277406E0
5.573390458E0,4.925557641E0,-2.284642811E0,-6.166557827E0,8.216273260E0
5.583445458E0,4.438679582E0,-2.606499288E0,-6.215225372E0,8.069990173E0
5.593499458E0,3.034603182E0,-3.049122403E0,-5.975647405E0,7.363037812E0
5.603553458E0,1.671165370E0,-3.042328523E0,-4.127079413E0,5.392711843E0
5.613608458E0,-9.055670589E-2,-2.332985251E0,-1.401861913E0,2.723276982E0
5.623662458E0,-2.016723828E0,-1.553917440E0,7.294933623E-1,2.648394792E0
5.633717250E0,-3.316517329E0,-1.699417800E0,1.790843110E0,4.134540736E0
5.643771250E0,-3.540887565E0,-2.762468503E0,2.698558436E0,5.239402124E0
5.653826250E0,-3.714388779E0,-4.514927566E0,3.858503349E0,7.004948467E0
5.663880250E0,-4.003664571E0,-5.898754181E0,4.126538545E0,8.237290286E0
5.673934250E0,-3.954419321E0,-5.929017615E0,4.414568880E0,8.383263114E0
5.683989250E0,-3.891594205E0,-5.193447241E0,5.214380273E0,8.325032212E0
5.694043250E0,-3.954687123E0,-5.030058494E0,5.032007371E0,8.140155827E0
5.704098250E0,-2.802429252E0,-3.739711901E0,3.966530074E0,6.129634218E0
5.714152250E0,-1.796623229E0,-2.767808180E0,2.562766793E0,4.178084583E0
5.724207250E0,-1.588735563E0,-2.187524652E0,1.315003717E0,3.006423052E0
5.734261250E0,-1.020877879E0,-1.387049600E0,-3.579782367E-2,1.722608406E0
5.744316250E0,-2.506896501E-1,-7.355820680E-1,-1.149386084E0,1.387448972E0
5.754370250E0,-3.760676946E-1,-8.771916908E-1,-1.080996977E0,1.442028654E0
5.764424250E0,-1.368458962E-1,-9.486312175E-1,4.889546978E-1,1.075966859E0
5.774479250E0,1.257515208E0,-5.861225581E-1,1.512969243E0,2.052793239E0
5.784533250E0,1.841979496E0,-3.519345546E-1,3.351760837E0,3.840709193E0
5.794588250E0,1.247560031E0,-1.432597071E-1,5.642346758E0,5.780398456E0
5.804642250E0,7.572461481E-1,3.749649829E-1,6.384050860E0,6.439730263E0
5.814697250E0,5.262606646E-1,1.244975123E0,5.122894152E0,5.298203265E0
5.824751250E0,5.022148673E-1,1.725529127E0,4.180962675E0,4.550837223E0
5.834805250E0,7.613057238E-1,1.923426386E0,4.394455335E0,4.856994252E0
5.844860250E0,8.813915996E-1,1.968630041E0,4.836677916E0,5.295829364E0
5.854914250E0,4.613466306E-1,2.267379491E0,4.669967951E0,5.211760848E0
5.864969250E0,4.671822980E-2,2.624438546E0,4.105978273E0,4.873286145E0
5.875023250E0,-4.220318529E-1,2.930929710E0,4.608103532E0,5.477506551E0
5.885078250E0,-7.957119101E-1,3.377825970E0,5.142748373E0,6.204089503E0
5.895132250E0,-1.088319884E0,3.672761866E0,5.380380971E0,6.604704331E0
5.905187250E0,-1.236741805E0,3.860478539E0,5.386873720E0,6.741752985E0
5.915241250E0,-1.510712364E0,4.344912170E0,4.810113431E0,6.655652096E0
5.925295250E0,-1.600515364E0,4.892658282E0,5.277360048E0,7.372264481E0
5.935350250E0,-1.323181048E0,5.070634078E0,5.372063892E0,7.504745732E0
5.945404250E0,-1.160161407E0,4.946450327E0,5.036253619E0,7.153823862E0
5.955459250E0,-1.208550624E0,4.700494802E0,4.588448702E0,6.679004977E0
5.965513250E0,-1.365711210E0,4.403407715E0,3.653058212E0,5.882176545E0
5.975568250E0,-1.100438092E0,4.398024768E0,2.667245719E0,5.260017641E0
5.985622250E0,-8.982798202E-1,4.242202318E0,1.685502889E0,4.652322768E0
5.995677250E0,-9.675785351E-1,3.767807772E0,7.938022095E-1,3.970227396E0
6.005731250E0,-1.026869887E0,3.007722947E0,-4.114934161E-1,3.204713079E0
6.015785250E0,-8.371290542E-1,1.792580903E0,-2.117073597E0,2.897607972E0
6.025840250E0,1.748083591E-2,8.252315784E-1,-4.536972739E0,4.611446017E0
6.035894250E0,4.796307278E-1,-1.094601109E0,-7.720912639E0,7.812854101E0
6.045949250E0,1.251016467E0,-2.777127473E0,-1.087221455E1,1.129081611E1
6.056003250E0,1.694884308E0,-4.939234278E0,-1.397690948E1,1.492054512E1
6.066058250E0,2.533326647E0,-6.563929340E0,-1.569853442E1,1.720310714E1
6.076112250E0,2.980711150E0,-7.719024573E0,-1.300219149E1,1.541184489E1
6.086166250E0,9.957388718E-1,-7.255910475E0,-7.174337139E0,1.025235808E1
6.096221250E0,-1.150981863E0,-4.061778878E0,-3.568282355E0,5.527698062E0
6.106275250E0,-7.751827745E-1,-3.562030220E-1,-3.075521120E0,3.191648334E0
6.116330250E0,-5.648629591E-2,2.038188518E0,-1.561485784E0,2.568198005E0
6.126384250E0,2.931852400E-1,3.851998907E0,8.444961074E-1,3.954368071E0
6.136439250E0,-2.674652387E-1,4.834022403E0,1.523535308E0,5.075477326E0
6.146493250E0,-1.897082925E0,4.720073034E0,1.881530209E-1,5.090522039E0
6.156548250E0,-3.810913446E0,3.154574599E0,-1.295521671E0,5.113978744E0
6.166602250E0,-5.592011586E0,-5.917002171E-1,-3.163744787E0,6.452130176E0
6.176656250E0,-6.166311074E0,-6.567817154E0,-6.264449573E0,1.097282748E1
6.186711250E0,-4.847195303E0,-1.047575696E1,9.977931449E-1,1.158586973E1
6.196765250E0,-3.212690075E0,-1.016528384E1,1.252443772E1,1.644736797E1
6.206820250E0,1.043411660E0,-5.081250283E0,1.044409896E1,1.166134707E1
6.216874250E0,3.476069133E0,1.252014002E0,9.012663149E0,9.740569424E0
6.226929250E0,1.718968404E0,4.142132485E0,9.688935739E0,1.067649707E1
6.236983250E0,9.344596133E-2,5.334426534E0,7.929537785E0,9.557322223E0
6.247038250E0,-6.659581017E-1,5.929733899E0,6.416229258E0,8.762034135E0
6.257092250E0,-6.507221581E-1,5.356423175E0,6.557255913E0,8.491896941E0
6.267146250E0,-2.566207002E-1,4.286520705E0,7.338045144E0,8.502177396E0
6.277201250E0,-5.616838279E-1,2.869341572E0,7.355832374E0,7.915609875E0
6.287255250E0,-1.073634456E0,1.404789467E0,6.214078149E0,6.460719126E0
6.297310250E0,-1.318991079E0,-2.635673386E-1,4.536729494E0,4.731925582E0
6.307364250E0,-1.098150807E0,-2.022042602E0,1.855340238E0,2.955821185E0
6.317419250E0,-7.188390045E-1,-3.656729971E0,-1.747685250E-1,3.730810586E0
6.327473250E0,-7.611553042E-1,-4.870278064E0,-1.628179125E-1,4.932086322E0
6.337527250E0,4.306474328E-1,-5.891810027E0,8.541098070E-1,5.968951849E0
6.347582250E0,2.008249897E0,-6.147370189E0,2.696151137E0,7.006601091E0
6.357636250E0,3.035959151E0,-4.592501407E0,4.241363243E0,6.949624400E0
6.367691250E0,4.676708913E0,-1.729844956E0,5.770571519E0,7.626497590E0
6.377745250E0,5.077675295E0,-2.568114656E-1,5.236838844E0,7.298850567E0
6.387800250E0,4.537580849E0,-2.724054050E-1,4.379210182E0,6.311998613E0
6.397854250E0,3.677011623E0,-7.766271830E-2,3.673255956E0,5.198004934E0
6.407909250E0,3.042888687E0,6.574287683E-1,3.172106890E0,4.444507427E0
6.417963250E0,2.022445329E0,1.554059528E0,2.065979750E0,3.282325159E0
6.428017250E0,9.037509137E-1,1.567043270E0,4.093868836E-1,1.854720449E0
6.438072250E0,-3.957340005E-1,6.415757972E-1,-1.730121676E0,1.887205849E0
6.448126250E0,-1.416367247E0,-1.785400522E-1,-3.505084187E0,3.784651620E0
6.458181250E0,-2.231752406E0,-5.821897209E-2,-3.952187439E0,4.539151220E0
6.468235250E0,-3.056216538E0,-5.003287017E-2,-3.967329973E0,5.008260170E0
6.478290250E0,-3.337973395E0,1.402033675E-1,-3.899401115E0,5.134885823E0
6.488344250E0,-2.825733622E0,8.828371775E-1,-2.706037902E0,4.010836959E0
6.498399250E0,-2.041512807E0,9.972654337E-1,-1.562480103E0,2.757472929E0
6.508453250E0,-8.408142619E-1,9.751313835E-1,-1.389990165E0,1.894709079E0
6.518507250E0,-2.155780703E-2,4.512039042E-1,-1.650137174E0,1.710848443E0
6.528562250E0,4.957259198E-1,2.018236649E-1,-1.603887745E0,1.690837922E0
6.538616250E0,1.022539585E0,2.577891201E-1,-1.206358357E0,1.602293019E0
6.548671250E0,1.454279716E0,2.054582942E-1,-7.660368522E-1,1.656488775E0
6.558725250E0,1.719182120E0,4.357555604E-1,-5.532919040E-1,1.857848756E0
6.568780250E0,1.627162733E0,4.694437087E-1,-6.136392626E-1,1.801274299E0
6.578834250E0,1.456489233E0,4.667393714E-1,-4.205881754E-1,1.586222222E0
6.588888250E0,1.182151761E0,2.348557556E-1,-3.273025739E-1,1.248906317E0
6.598943250E0,6.385757370E-1,-9.883987159E-1,-7.601579154E-1,1.400910793E0
6.608997250E0,5.414087538E-1,-1.980585843E0,-1.567443219E0,2.583161235E0
6.619052250E0,6.037093748E-1,-2.338093963E0,-2.433533387E0,3.428298869E0
6.629106958E0,6.578554688E-1,-2.531918637E0,-3.993720796E0,4.774221570E0
6.639161958E0,8.118284445E-1,-2.711549195E0,-6.300671904E0,6.907244813E0
6.649215958E0,8.700170110E-1,-2.937376850E0,-8.349975979E0,8.894223474E0
6.659270958E0,1.076307510E0,-3.036966627E0,-9.305540825E0,9.847573010E0
6.669324958E0,1.518078978E0,-2.863225384E0,-8.680978671E0,9.266175807E0
6.679378958E0,2.442072514E0,-2.499326257E0,-7.168928465E0,7.975204401E0
6.689433958E0,3.488832436E0,-2.099742742E0,-5.551575751E0,6.884828587E0
6.699487958E0,3.917585663E0,-1.887304627E0,-4.025057779E0,5.925410222E0
6.709542958E0,4.105932958E0,-1.904613554E0,-3.079752165E0,5.474587806E0
6.719596958E0,4.324944220E0,-2.329571062E0,-2.751446502E0,5.630497464E0
6.729651958E0,4.343739218E0,-3.329753087E0,-2.719115784E0,6.111376004E0
6.739705958E0,4.308537810E0,-4.425370442E0,-3.259161406E0,6.983518789E0
6.749760958E0,4.947235608E0,-4.895350340E0,-3.698984582E0,7.881756280E0
6.759814958E0,6.404290997E0,-4.639867362E0,-3.582647502E0,8.682089348E0
6.769868958E0,7.358324457E0,-4.570323502E0,-2.857805308E0,9.121395009E0
6.779923958E0,7.862577226E0,-4.320410582E0,-2.089860363E0,9.211600543E0
6.789977958E0,7.319774934E0,-3.673788053E0,-2.402466107E0,8.535084483E0
6.800032958E0,5.125862784E0,-2.607198615E0,-3.460628391E0,6.711773443E0
6.810086958E0,2.014898474E0,-1.933321044E0,-4.545324901E0,5.334559455E0
6.820141958E0,-1.273023340E0,-2.265279756E0,-4.115166880E0,4.866896265E0
6.830195958E0,-3.419621575E0,-2.716789470E0,-1.471174076E0,4.608590880E0
6.840250958E0,-3.916671451E0,-2.988619509E0,1.558536010E0,5.167320032E0
6.850304958E0,-3.724573460E0,-3.459207518E0,4.103686457E0,6.532901855E0
6.860358958E0,-4.605132562E0,-4.802741554E0,5.469277360E0,8.613162438E0
6.870413958E0,-5.550472382E0,-5.268016198E0,5.275209442E0,9.294491540E0
6.880467958E0,-5.901107100E0,-4.659887059E0,4.679445410E0,8.856343588E0
6.890522958E0,-6.457783665E0,-4.600302177E0,4.286083918E0,9.013116294E0
6.900576958E0,-6.473253644E0,-4.744255364E0,4.208874943E0,9.062317583E0
6.910631958E0,-4.398020383E0,-3.672815076E0,4.109606763E0,7.051313468E0
6.920685958E0,-1.840970998E0,-2.748166798E0,3.455116221E0,4.783243990E0
6.930740958E0,8.890118372E-1,-1.746810068E0,2.344538180E0,3.055903587E0
6.940794958E0,1.726001728E0,-1.250847482E0,1.770781459E0,2.771167329E0
6.950848958E0,5.426749684E-1,-1.269762640E0,2.476677067E0,2.835616790E0
6.960903958E0,-4.006409839E-1,-5.990934366E-1,2.467184697E0,2.570296962E0
6.970957958E0,1.027143829E-1,4.288301182E-1,2.534743427E0,2.572813587E0
6.981012958E0,1.020672423E-1,3.187428349E-1,2.790636295E0,2.810634385E0
6.991066958E0,-6.469588901E-1,8.361342967E-2,3.369988947E0,3.432546069E0
7.001121958E0,-2.352662301E-1,5.147485203E-1,3.867361296E0,3.908554673E0
7.011175958E0,3.272103341E-1,1.153273240E0,4.665129672E0,4.816693952E0
7.021230958E0,-1.407144141E-1,1.136934950E0,5.445746995E0,5.564942225E0
7.031284958E0,1.544699889E-1,1.808993452E0,6.072807080E0,6.338399176E0
7.041338958E0,2.694151390E-1,2.344720613E0,7.264236910E0,7.638025737E0
7.051393958E0,7.483941945E-1,2.500498624E0,6.841797799E0,7.322757975E0
7.061447958E0,1.366470032E0,2.717244968E0,5.371934084E0,6.173194988E0
7.071502958E0,1.375451355E0,2.876602060E0,4.364904385E0,5.405469094E0
7.081556958E0,6.452737226E-1,3.449882378E0,4.232922495E0,5.498699796E0
7.091611958E0,-6.354848988E-1,3.910690919E0,4.615682401E0,6.082916122E0
7.101665958E0,-1.767414925E0,4.310210699E0,5.351458304E0,7.095053049E0
7.111720958E0,-1.952118673E0,4.633752344E0,5.588939459E0,7.517890155E0
7.121774958E0,-2.008823655E0,5.104114650E0,5.227468096E0,7.577188234E0
7.131828958E0,-1.686068168E0,5.354224622E0,4.977442324E0,7.502364911E0
7.141883958E0,-1.677651394E0,5.058790542E0,4.383731250E0,6.900940198E0
7.151937958E0,-1.695168044E0,4.791810769E0,3.785184235E0,6.337402057E0
7.161992958E0,-1.771495258E0,4.441536824E0,2.947223853E0,5.617078711E0
7.172046958E0,-1.939833966E0,4.047390050E0,1.813458094E0,4.840759474E0
7.182101958E0,-1.764313123E0,3.847821656E0,4.949165189E-1,4.261862815E0
7.192155958E0,-1.309088674E0,3.483498605E0,-1.059837950E0,3.869332264E0
7.202210958E0,-9.578534460E-1,2.319144892E0,-2.883283088E0,3.822203241E0
7.212264958E0,-7.865221336E-2,1.187655453E0,-5.444399797E0,5.572988497E0
7.222318958E0,5.308146223E-1,-8.399273854E-1,-8.100522650E0,8.161232099E0
7.232373958E0,1.152558418E0,-3.203184257E0,-1.154271243E1,1.203424242E1
7.242427958E0,2.534673260E0,-5.997360456E0,-1.538985406E1,1.671049098E1
7.252482958E0,4.341145393E0,-8.227970901E0,-1.523754110E1,1.785294674E1
7.262536958E0,3.909894820E0,-9.264057754E0,-9.701416036E0,1.397238407E1
7.272591958E0,8.251638968E-1,-7.314756269E0,-4.141141382E0,8.446040888E0
7.282645958E0,-1.033559247E0,-3.428751710E0,-1.764792303E0,3.992377096E0
7.292700958E0,-1.607666654E0,-4.390089512E-2,-1.139633733E0,1.971112479E0
7.302754958E0,-1.365298835E0,2.838322678E0,-6.760524425E-1,3.221360494E0
7.312808958E0,-1.172874130E0,4.912421871E0,1.680890313E-1,5.053293608E0
7.322863958E0,-1.841025230E0,5.792795032E0,-6.618463397E-1,6.114236564E0
7.332917958E0,-3.315512193E0,5.153182145E0,-2.665570492E0,6.682302999E0
7.342972958E0,-4.139809386E0,3.729570490E0,-9.396215352E-1,5.650717337E0
7.353026958E0,-4.267604670E0,1.784862578E0,2.563693284E0,5.288733997E0
7.363081958E0,-3.439859666E0,-9.135204417E-1,5.201411734E0,6.302526330E0
7.373135958E0,-2.895513709E0,-5.050259455E0,8.835456262E0,1.058085098E1
7.383190958E0,-3.556804271E0,-8.378350763E0,1.148060214E1,1.465100145E1
7.393244958E0,-3.075360322E0,-7.557468928E0,1.015393322E1,1.302595630E1
7.403298958E0,-1.200359114E0,-3.623838798E0,6.412158426E0,7.462495917E0
7.413353958E0,2.426832770E-1,5.043217653E-1,5.888984653E0,5.915519914E0
7.423407958E0,1.457781029E-1,2.319806796E0,6.244950863E0,6.663495037E0
7.433462958E0,-3.659925766E-1,2.734419410E0,6.026982450E0,6.628387250E0
7.443516958E0,-2.900202884E-1,3.196275187E0,6.333373042E0,7.100133867E0
7.453571958E0,-2.734793924E-1,3.285738755E0,6.762507216E0,7.523454924E0
7.463625958E0,-7.569640200E-1,2.728649377E0,6.678221941E0,7.253769382E0
7.473680958E0,-1.761604401E0,1.270436239E0,6.226738540E0,6.594659290E0
7.483734958E0,-2.157303903E0,-1.084190726E-1,5.302388470E0,5.725472759E0
7.493788958E0,-1.693558744E0,-1.068931248E0,3.644139161E0,4.158185356E0
7.503843958E0,-9.199675816E-1,-2.359669604E0,1.863334405E0,3.144263999E0
7.513897958E0,-2.195040371E-1,-2.853233078E0,1.533873185E0,3.246827369E0
7.523952958E0,-5.331885919E-2,-4.019587124E0,2.581760888E0,4.777594879E0
7.534006958E0,1.000514001E0,-4.641388223E0,4.298160757E0,6.404506132E0
7.544061958E0,2.795608767E0,-3.917913399E0,5.083281605E0,7.000373252E0
7.554115958E0,3.439700329E0,-3.262063964E0,4.091185695E0,6.261820825E0
7.564170958E0,4.012714891E0,-2.075570353E0,2.193577105E0,5.022116447E0
7.574224958E0,4.648367459E0,-5.874966538E-1,2.097638329E0,5.133474351E0
7.584278958E0,4.681986903E0,-3.351764345E-1,1.593446372E0,4.957057185E0
7.594333958E0,4.244400579E0,-3.647493124E-3,1.309917809E0,4.441940369E0
7.604387958E0,3.561500462E0,3.004849041E-1,5.174904259E-1,3.611422581E0
7.614442958E0,2.672062363E0,8.091511506E-1,-7.368871665E-1,2.887498148E0
7.624496958E0,1.627019915E0,9.013471234E-1,-2.815926672E0,3.374768653E0
7.634551000E0,8.445974104E-1,1.082528948E0,-4.309566336E0,4.523005164E0
7.644605000E0,-1.433848375E-1,8.776834416E-1,-4.748157211E0,4.830722962E0
7.654660000E0,-1.206240389E0,3.698486692E-1,-4.666825365E0,4.834362719E0
7.664714000E0,-1.520040427E0,1.362097192E-1,-4.025326166E0,4.304918899E0
7.674768000E0,-1.119322991E0,2.612079871E-1,-2.799821686E0,3.026568196E0
7.684823000E0,-7.178318216E-1,3.821395165E-1,-8.311062759E-1,1.162777182E0
7.694877000E0,-6.500400804E-1,1.164823830E-1,1.698966980E-2,6.606125192E-1
7.704932000E0,-4.181630427E-1,-1.217513090E-1,-5.169565751E-1,6.759643571E-1
7.714986000E0,-6.297144279E-2,1.560393816E-1,8.228494227E-2,1.873085768E-1
7.725041000E0,2.220371971E-1,4.807440376E-1,6.986270803E-1,8.766385481E-1
7.735095000E0,1.252482364E-1,9.370034444E-1,7.919550741E-1,1.233229668E0
7.745150000E0,4.437817410E-2,1.138338867E0,4.630006617E-1,1.229696878E0
7.755204000E0,-2.014061737E-1,7.477542168E-1,2.626408473E-1,8.177291912E-1
7.765258000E0,-5.732959597E-1,1.483982402E-1,2.014196223E-1,6.255079211E-1
7.775313000E0,-8.618787101E-1,-4.703921270E-1,-4.102938598E-1,1.064163857E0
7.785367000E0,-9.333172135E-1,-1.028878990E0,-1.608286021E0,2.125148682E0
7.795422000E0,-6.680652921E-1,-1.171745764E0,-2.901791572E0,3.199952140E0
7.805476000E0,-3.795284423E-1,-1.246478443E0,-4.170546737E0,4.369348971E0
7.815531000E0,-1.547753598E-1,-1.634221931E0,-5.256493090E0,5.506846315E0
7.825585000E0,2.447469056E-1,-2.043346932E0,-6.027367197E0,6.369012723E0
7.835640000E0,9.098223701E-1,-2.211937362E0,-6.413431365E0,6.844891928E0
7.845694000E0,1.912474844E0,-2.386983118E0,-6.400633564E0,7.093895859E0
7.855748000E0,3.188674391E0,-2.445024335E0,-5.985551419E0,7.209203435E0
7.865803000E0,4.277634691E0,-2.537592775E0,-4.315444834E0,6.584876594E0
7.875857000E0,5.059313868E0,-2.384910865E0,-2.525710648E0,6.137073483E0
7.885912000E0,5.536903918E0,-2.037695013E0,-1.995891514E0,6.228409821E0
7.895966000E0,5.565554690E0,-2.351816794E0,-2.006302774E0,6.366450507E0
7.906021000E0,5.443960086E0,-2.916608124E0,-2.631938769E0,6.713449639E0
7.916075000E0,4.768115804E0,-3.583395946E0,-3.376706813E0,6.854035580E0
7.926130000E0,3.757872768E0,-4.233853079E0,-4.044110346E0,6.957150863E0
7.936184000E0,3.104494074E0,-4.376645009E0,-5.187238083E0,7.463266303E0
7.946238000E0,3.616952824E0,-3.559664437E0,-6.652742699E0,8.367349882E0
7.956293000E0,4.723385189E0,-1.981019121E0,-7.063142978E0,8.724837714E0
7.966347000E0,5.527410378E0,-1.668312367E0,-6.694159112E0,8.840096032E0
7.976402000E0,5.556097988E0,-2.263591665E0,-5.740741364E0,8.303624720E0
7.986456000E0,5.095257872E0,-2.830992023E0,-4.915907981E0,7.625111140E0
7.996511000E0,3.996233637E0,-3.138362024E0,-3.726560344E0,6.301305537E0
8.006565000E0,2.095749971E0,-3.443334081E0,-2.659438224E0,4.829216210E0
8.016620000E0,-3.670523845E-1,-3.506325551E0,-1.676871521E0,3.903965218E0
8.026674000E0,-2.056279657E0,-3.018515738E0,-5.768301630E-1,3.697628473E0
8.036728000E0,-3.009787014E0,-2.664877889E0,1.746682014E0,4.383068570E0
8.046783000E0,-3.432067081E0,-2.983942321E0,4.386571827E0,6.318623950E0
8.056837000E0,-3.800427634E0,-3.516921875E0,6.030038205E0,7.948166483E0
8.066892000E0,-3.814139940E0,-3.825031548E0,6.110836201E0,8.156031443E0
8.076946000E0,-3.621491725E0,-3.591787870E0,4.903361025E0,7.075244997E0
8.087001000E0,-3.672240295E0,-3.559553924E0,3.757255887E0,6.346081052E0
8.097055000E0,-4.324969656E0,-3.846147598E0,3.528911591E0,6.778748475E0
8.107110000E0,-3.933804670E0,-3.349881542E0,2.965221291E0,5.957269746E0
8.117164000E0,-2.849901626E0,-3.390303344E0,1.817715744E0,4.787503166E0
8.127218000E0,-1.802119173E0,-3.502054160E0,7.738205194E-1,4.013827979E0
8.137273000E0,-9.640320526E-1,-2.841807033E0,8.351600774E-1,3.114918517E0
8.147327000E0,-1.674798976E-1,-1.695410703E0,9.789912768E-1,1.964914983E0
8.157382000E0,6.921552359E-1,-1.091858180E0,1.733935668E0,2.162814384E0
8.167436000E0,1.497321363E-1,-1.277116683E0,2.542191610E0,2.848891876E0
8.177491000E0,4.081371143E-1,-7.459930354E-1,2.539134686E0,2.677739059E0
8.187545000E0,1.318330344E0,-1.938463086E-1,3.327584939E0,3.584465485E0
8.197600000E0,8.650402996E-1,-6.245071900E-1,4.428892804E0,4.555589470E0
8.207654000E0,2.105199364E-1,-6.835628986E-2,5.291357113E0,5.295984453E0
8.217709000E0,-4.991496107E-1,7.963960344E-1,5.460781356E0,5.541076610E0
8.227763000E0,-4.136792515E-1,1.824824204E0,5.241683262E0,5.565640782E0
8.237817000E0,-7.467955658E-1,2.446344051E0,5.079767429E0,5.687384281E0
8.247872000E0,-8.576559971E-1,2.519788004E0,5.030345592E0,5.691158245E0
8.257926000E0,-8.714149341E-1,2.796035614E0,4.419930777E0,5.302166276E0
8.267981000E0,-6.521675898E-1,3.165543391E0,4.264660889E0,5.351011121E0
8.278035000E0,-4.342425933E-1,3.426332717E0,4.858170527E0,5.960716684E0
8.288090000E0,-5.856900103E-1,3.579203492E0,5.215640348E0,6.352687201E0
8.298144000E0,-1.056957758E0,4.050710099E0,4.862915250E0,6.416646845E0
8.308199000E0,-1.462864744E0,4.215899788E0,5.088785005E0,6.768272830E0
8.318253000E0,-1.304629148E0,4.890908795E0,5.186904792E0,7.247553199E0
8.328307000E0,-1.325088556E0,5.365816142E0,4.538890333E0,7.151878635E0
8.338362000E0,-1.626216361E0,4.922151638E0,4.930835338E0,7.154389808E0
8.348416000E0,-1.381623384E0,4.462783851E0,5.172759207E0,6.970133478E0
8.358471000E0,-9.267714018E-1,4.238746029E0,4.301458294E0,6.109698568E0
8.368525000E0,-8.232286146E-1,3.918522679E0,3.624813236E0,5.401092143E0
8.378580000E0,-1.027613068E0,3.510871176E0,2.603239173E0,4.489884099E0
8.388634000E0,-9.309204398E-1,3.219060616E0,1.258904653E0,3.579637557E0
8.398689000E0,-6.830343103E-1,2.629643737E0,-1.068480135E0,2.919454033E0
8.408743000E0,-8.717800927E-1,1.246651520E0,-2.750603625E0,3.143240501E0
8.418797000E0,-3.081368628E-1,4.405678189E-1,-4.597298170E0,4.628628176E0
8.428852000E0,4.845334719E-1,-1.558853075E0,-6.955150752E0,7.144152684E0
8.438906000E0,2.329293319E0,-2.960266360E0,-7.826065457E0,8.685394915E0
8.448961000E0,3.430210590E0,-3.202401899E0,-6.889014650E0,8.335481118E0
8.459015000E0,3.323545390E0,-2.748190772E0,-6.628286719E0,7.907761460E0
8.469070000E0,2.220217019E0,-2.094602455E0,-6.873254650E0,7.520528740E0
8.479124000E0,7.695267628E-1,-1.449299642E0,-6.492733058E0,6.696881621E0
8.489179000E0,-4.269448297E-1,-7.600433099E-1,-5.349657362E0,5.420219701E0
8.499233000E0,-1.181775639E0,-3.723623872E-2,-3.545802735E0,3.737739589E0
8.509287000E0,-1.396399444E0,6.068871903E-1,-1.458105842E0,2.108154670E0
8.519342000E0,-1.271490346E0,1.212689722E0,-2.043075621E-1,1.768910863E0
8.529396000E0,-1.434235899E0,1.771747858E0,-1.179392168E-1,2.282549615E0
8.539451000E0,-1.991073993E0,2.129481096E0,-5.215789452E-1,2.961605980E0
8.549505000E0,-2.780676733E0,1.787018446E0,-1.213596625E0,3.521138280E0
8.559560000E0,-3.642538193E0,6.950591093E-1,-1.416865430E0,3.969722824E0
8.569614000E0,-4.757683787E0,-1.572594616E0,-2.302566573E0,5.514564504E0
8.579669000E0,-6.159956905E0,-6.119624566E0,-4.798388594E0,9.920655573E0
8.589723000E0,-6.244342167E0,-1.077006369E1,-3.033534019E0,1.281360253E1
8.599778000E0,-5.898513860E0,-1.177369967E1,6.509095906E0,1.468947920E1
8.609832000E0,-4.554319088E0,-8.864423953E0,9.881630731E0,1.403447399E1
8.619886000E0,-1.233914092E0,-2.448613356E0,7.598880079E0,8.078442288E0
8.629941458E0,4.434481573E-1,3.068788344E0,8.367185504E0,8.923222592E0
8.639995458E0,5.040622951E-1,6.065885146E0,8.095858326E0,1.012876910E1
8.650050458E0,-6.952541140E-1,6.561911466E0,7.424607325E0,9.933119062E0
8.660104458E0,-1.703524007E0,6.171761264E0,7.305927558E0,9.714381536E0
8.670159458E0,-1.206659927E0,5.874264872E0,7.385987635E0,9.513980729E0
8.680213458E0,-2.830714573E-1,4.653287891E0,7.270877008E0,8.637063744E0
8.690268458E0,-3.082624318E-1,2.777914508E0,7.317894469E0,7.833480338E0
8.700322458E0,-7.218580681E-1,1.094815117E0,6.805290123E0,6.930488646E0
8.710376458E0,-1.134511426E0,-3.425047499E-1,5.701568527E0,5.823427629E0
8.720431458E0,-1.183341962E0,-1.544646680E0,4.203472116E0,4.631998423E0
8.730485458E0,-5.909655145E-1,-3.085968633E0,1.025067044E0,3.305027244E0
8.740540458E0,3.335374600E-1,-3.974080583E0,-4.846885693E-1,4.017398005E0
8.750594458E0,5.786237964E-1,-4.495317759E0,7.060173762E-1,4.587063089E0
8.760649458E0,1.420860540E0,-4.962634251E0,2.477534269E0,5.725797711E0
8.770703458E0,3.701502101E0,-3.727463154E0,4.531331345E0,6.937439234E0
8.780758458E0,5.338961050E0,-3.077575539E0,4.770946734E0,7.793452959E0
8.790812458E0,6.377932334E0,-2.050518542E0,2.567289029E0,7.174511838E0
8.800866458E0,7.195134516E0,-4.927577269E-1,1.489242557E0,7.364143825E0
8.810921458E0,7.043699232E0,2.280811715E-1,9.547627905E-2,7.048037713E0
8.820975458E0,6.156656737E0,-1.526193452E-1,-2.126708347E-1,6.162219058E0
8.831030458E0,4.950581970E0,-3.444770157E-2,-1.016433191E-1,4.951745131E0
8.841084458E0,3.669642085E0,3.824359703E-1,-6.761299181E-1,3.750957473E0
8.851139458E0,2.315637878E0,4.576446122E-1,-2.414425271E0,3.376546573E0
8.861193458E0,1.599746455E0,4.780250823E-1,-3.972872549E0,4.309456229E0
8.871248458E0,9.360896708E-1,8.551295614E-1,-4.176628134E0,4.364829092E0
8.881302458E0,8.436275035E-2,6.177682739E-1,-3.611967196E0,3.665386983E0
8.891356458E0,-7.040680607E-1,3.464855343E-1,-3.057835339E0,3.156916379E0
8.901411458E0,-1.485838162E0,-1.323809624E-2,-2.602000440E0,2.996380580E0
8.911465458E0,-1.671225596E0,1.823407423E-1,-1.446361417E0,2.217702524E0
8.921520458E0,-1.439196092E0,4.848552150E-1,-3.628122760E-1,1.561410490E0
8.931574458E0,-1.294278261E0,5.607871574E-1,5.161465895E-1,1.502013900E0
8.941629458E0,-1.525623348E0,4.512050736E-1,8.463739407E-1,1.802071438E0
8.951683458E0,-1.729878724E0,5.458627242E-1,1.035589693E0,2.088753821E0
8.961738458E0,-1.889917016E0,5.845543349E-1,8.374620531E-1,2.148216188E0
8.971792458E0,-2.162398143E0,3.902998906E-1,4.251530966E-1,2.238091796E0
8.981846458E0,-2.005350117E0,5.402844805E-1,-2.172012573E-1,2.088184091E0
8.991901458E0,-1.634701402E0,6.243879068E-1,-8.172561224E-1,1.931325064E0
9.001955458E0,-1.218583569E0,1.244655865E-1,-1.027776497E0,1.598987844E0
9.012010458E0,-5.044637065E-1,-2.379232049E-1,-1.389035607E0,1.496833658E0
9.022064458E0,-1.358173710E-1,-7.195302916E-1,-1.862278544E0,2.001062611E0
9.032119458E0,1.024987668E-1,-1.350932518E0,-2.607542431E0,2.938503394E0
9.042173458E0,2.843230538E-1,-2.049214028E0,-3.735369174E0,4.270023489E0
9.052228458E0,4.253850849E-1,-2.553429959E0,-4.993913346E0,5.624955780E0
9.062282458E0,6.258755846E-1,-2.807170467E0,-6.238197328E0,6.869281781E0
9.072337458E0,1.005811432E0,-2.954291675E0,-7.125426934E0,7.778894840E0
9.082391458E0,1.718596229E0,-2.853357038E0,-7.092565582E0,7.835796445E0
9.092445458E0,2.809264355E0,-2.589379810E0,-5.453969350E0,6.659026632E0
9.102500458E0,3.743549136E0,-2.216749036E0,-3.549909527E0,5.615157529E0
9.112554458E0,4.297135740E0,-1.722762224E0,-2.015600139E0,5.049349381E0
9.122609458E0,4.516328559E0,-1.352970273E0,-1.670662363E0,5.001886139E0
9.132663458E0,4.282528518E0,-1.329163334E0,-2.121956899E0,4.960788925E0
9.142718458E0,3.732316635E0,-1.800711456E0,-2.270620603E0,4.725300745E0
9.152772458E0,3.193969045E0,-2.607502086E0,-2.211257623E0,4.678692730E0
9.162827458E0,3.167756269E0,-3.359729422E0,-2.810473851E0,5.405665994E0
9.172881458E0,3.771110864E0,-3.558229530E0,-4.096304932E0,6.607721895E0
9.182935458E0,4.590602231E0,-2.838045520E0,-5.080240468E0,7.411948086E0
9.192990458E0,5.411156037E0,-1.810079865E0,-5.889174103E0,8.199961609E0
9.203044458E0,5.990247318E0,-1.711888742E0,-6.538171186E0,9.031129965E0
9.213099458E0,6.478310900E0,-1.697886415E0,-5.602723101E0,8.731657148E0
9.223153458E0,6.251745912E0,-2.833682327E0,-4.578853713E0,8.251059556E0
9.233208458E0,4.969005961E0,-4.235752839E0,-3.644551390E0,7.477658537E0
9.243262458E0,3.100279108E0,-4.583951608E0,-2.298279249E0,5.992197460E0
9.253317458E0,1.181541604E0,-4.208329398E0,-4.813749522E-1,4.397476405E0
9.263371458E0,-4.207793793E-1,-3.324935566E0,1.287952743E0,3.590414192E0
9.273425458E0,-1.539705929E0,-2.609330510E0,2.461694162E0,3.903746688E0
9.283480458E0,-2.021395315E0,-2.937556944E0,3.571165325E0,5.046632699E0
9.293534458E0,-2.590865588E0,-3.236872405E0,4.421069815E0,6.061005343E0
9.303589458E0,-3.880391816E0,-4.311797633E0,4.880029466E0,7.580483300E0
9.313643458E0,-4.280461820E0,-4.392964003E0,5.237812405E0,8.065678206E0
9.323698458E0,-4.787442022E0,-3.689350417E0,4.037404760E0,7.268531131E0
9.333752458E0,-5.116559864E0,-4.061109372E0,2.980257990E0,7.180092747E0
9.343807458E0,-3.216603032E0,-3.459118640E0,2.905646349E0,5.545702619E0
9.353861458E0,-1.070464826E0,-2.850185509E0,1.680048898E0,3.477357715E0
9.363915458E0,1.204818785E-1,-2.205058697E0,3.290403664E-1,2.232726429E0
9.373970458E0,8.507565750E-1,-1.823766443E0,-2.240956362E-1,2.024877685E0
9.384024458E0,6.316424011E-1,-1.086455353E0,-9.690005779E-3,1.256762210E0
9.394079458E0,7.891679987E-1,-3.747117984E-1,1.027616503E0,1.348773791E0
9.404133458E0,-1.723905355E-3,-4.117223346E-1,2.235466558E0,2.273065987E0
9.414188458E0,-7.476480898E-1,-7.358136177E-2,2.734959108E0,2.836263952E0
9.424242458E0,-1.216958043E0,7.416859764E-1,3.236189742E0,3.536100821E0
9.434297458E0,3.543522321E-1,1.525773037E0,4.432762492E0,4.701375562E0
9.444351458E0,1.327499655E0,1.377600499E0,5.936984446E0,6.237613549E0
9.454406458E0,1.355255365E0,8.288358021E-1,6.938873273E0,7.118402081E0
9.464460458E0,6.467710483E-1,1.169726136E0,6.696904964E0,6.828990271E0
9.474514458E0,1.375105785E-1,1.871304891E0,5.701757977E0,6.002560719E0
9.484569458E0,6.060677031E-1,2.493577275E0,5.069419026E0,5.681923526E0
9.494623458E0,5.904047665E-1,2.641499552E0,4.357108000E0,5.129374990E0
9.504678458E0,7.529655477E-1,2.412389270E0,3.370733005E0,4.212887383E0
9.514732458E0,1.279119208E0,2.418352845E0,3.448388414E0,4.401813159E0
9.524787458E0,1.003314524E0,2.187657968E0,4.159801894E0,4.805875489E0
9.534841458E0,4.823607928E-1,2.294093081E0,4.537346960E0,5.107156982E0
9.544895458E0,-3.799593821E-2,2.950452393E0,4.712002999E0,5.559638953E0
9.554950458E0,-5.821924983E-1,3.589720879E0,5.250075771E0,6.386574958E0
9.565004458E0,-1.184200626E0,3.752625477E0,5.055830097E0,6.406711096E0
9.575059458E0,-1.672927575E0,4.187096404E0,4.800630417E0,6.586084980E0
9.585113458E0,-1.764562799E0,4.123542432E0,4.816814632E0,6.581716134E0
9.595168458E0,-2.034852682E0,3.920906004E0,4.314058167E0,6.174562915E0
9.605222458E0,-2.402196696E0,3.443839865E0,3.629735422E0,5.550275779E0
9.615277458E0,-2.326267239E0,3.594162424E0,2.412253907E0,4.914111487E0
9.625331458E0,-2.227457042E0,3.267883113E0,7.758246526E-1,4.030202080E0
9.635386583E0,-2.287032714E0,2.317169702E0,-3.051208690E-1,3.269998900E0
9.645440583E0,-1.706848442E0,1.785071908E0,-1.355080533E0,2.817100739E0
9.655494583E0,-1.277192258E0,6.194803387E-1,-3.135022094E0,3.441415332E0
9.665549583E0,-3.937003389E-1,-4.769000781E-1,-5.043467914E0,5.081240227E0
9.675603583E0,4.499789125E-1,-1.530966534E0,-6.709665928E0,6.896807697E0
9.685658583E0,1.461899807E0,-1.641064342E0,-7.956569463E0,8.254528505E0
9.695712583E0,2.465755053E0,-1.714149860E0,-8.979355069E0,9.468213939E0
9.705767583E0,3.001327847E0,-1.968662201E0,-9.110136818E0,9.791741038E0
9.715821583E0,2.268400269E0,-2.560711496E0,-7.739297454E0,8.461655171E0
9.725876583E0,1.318932169E0,-2.504640791E0,-6.235385402E0,6.847834598E0
9.735930583E0,6.727933507E-1,-1.888492781E0,-4.357702661E0,4.796731008E0
9.745984583E0,4.053472616E-1,-9.413110882E-1,-1.741835549E0,2.020980962E0
9.756039583E0,3.842563547E-1,-3.592880130E-2,-2.071702127E-1,4.380220565E-1
9.766093583E0,4.418765719E-1,9.115189397E-1,-4.114577481E-1,1.093352258E0
9.776148583E0,-2.677470745E-1,1.560921235E0,-1.667465398E0,2.299696600E0
9.786202583E0,-1.978322824E0,8.353086698E-1,-4.076228225E0,4.607291863E0
9.796257583E0,-2.995351993E0,-1.067060139E0,-6.905270494E0,7.602204384E0
9.806311583E0,-2.838764727E0,-2.867247684E0,-3.125946046E0,5.104040864E0
9.816366583E0,-2.884822952E0,-4.308795088E0,6.221139246E0,8.098795719E0
9.826420583E0,-4.152635838E0,-6.844474654E0,1.110321699E1,1.368841281E1
9.836474583E0,-4.614527283E0,-8.018107315E0,1.170404647E1,1.491873355E1
9.846529583E0,-2.727429356E0,-3.533975279E0,1.021997519E1,1.115238741E1
9.856583583E0,-1.885627353E0,1.171851014E0,7.499446422E0,7.821158607E0
9.866638583E0,-3.030962706E0,3.162691703E0,3.974065965E0,5.914605146E0
9.876692583E0,-3.639823331E0,4.899266805E0,2.738031235E0,6.689390417E0
9.886747583E0,-2.808932525E0,6.006473926E0,4.748563592E0,8.155776306E0
9.896801583E0,-1.421260782E0,5.624135605E0,6.565206957E0,8.760869015E0
9.906856583E0,-4.069827278E-1,4.186483616E0,7.502990420E0,8.601578067E0
9.916910583E0,-6.742102772E-2,3.161453263E0,7.342066859E0,7.994077689E0
9.926964583E0,-6.503374113E-1,1.515181975E0,6.351022278E0,6.561569869E0
9.937019583E0,-9.985705322E-1,-8.594851524E-1,4.304065275E0,4.501203809E0
9.947073583E0,-3.186115649E-1,-2.455062835E0,1.773134379E0,3.045135855E0
9.957128583E0,-6.484851596E-1,-3.216895393E0,1.408290195E0,3.571026497E0
9.967182583E0,-8.389355515E-1,-4.734169502E0,1.930026723E0,5.180847120E0
9.977237583E0,1.036294867E0,-5.989401226E0,3.509495326E0,7.018788467E0
9.987291583E0,3.204258975E0,-5.832886466E0,5.091190549E0,8.379144426E0
9.997346583E0,3.989182187E0,-4.831646680E0,4.417297776E0,7.666218351E0
1.000740058E1,5.832169597E0,-2.414082039E0,2.622203740E0,6.835052798E0
1.001745458E1,6.306640157E0,-5.599469125E-2,2.933826420E0,6.955873988E0
1.002750958E1,5.519314324E0,2.540790617E-1,2.449884540E0,6.043949126E0
1.003756358E1,4.265584749E0,2.393557727E-2,1.405394070E0,4.491204588E0
1.004761858E1,3.206045884E0,1.949759907E-1,6.335656234E-1,3.273858770E0
1.005767258E1,2.419214433E0,5.673272681E-1,-1.136837448E0,2.732555230E0
1.006772758E1,1.555644123E0,9.288822466E-1,-2.831791922E0,3.361829317E0
1.007778158E1,1.118214943E0,1.256835031E0,-4.294860004E0,4.612576439E0
1.008783658E1,5.863647790E-1,1.352231770E0,-3.835310953E0,4.108766788E0
1.009789058E1,-7.263088225E-1,4.966092879E-1,-2.913820172E0,3.043763014E0
1.010794458E1,-1.644346384E0,-1.451658994E-1,-2.884027439E0,3.323035124E0
1.011799958E1,-2.016491840E0,-4.282442272E-2,-1.995283404E0,2.837116341E0
1.012805358E1,-2.155430747E0,6.750493526E-2,-1.098874254E0,2.420322964E0
1.013810858E1,-2.129443528E0,1.330142158E-1,-1.507897514E-1,2.138915629E0
1.014816258E1,-1.798154469E0,4.805083948E-1,3.549695519E-1,1.894795818E0
1.015821758E1,-1.481439448E0,8.233575457E-1,-1.733143955E-2,1.694957482E0
1.016827158E1,-1.084014579E0,1.257098156E0,-4.306909946E-1,1.714898864E0
1.017832658E1,-1.091974686E0,1.292668523E0,-9.455766320E-2,1.694798447E0
1.018838058E1,-1.207563614E0,1.294451339E0,-5.164436281E-2,1.771011375E0
1.019843458E1,-1.150607787E0,9.175912732E-1,-1.198528935E0,1.897984097E0
1.020848958E1,-9.293982634E-1,2.335337001E-1,-2.093668070E0,2.302556212E0
1.021854358E1,-4.039793055E-1,-1.583507860E-1,-2.552159651E0,2.588782172E0
1.022859858E1,1.320653589E-1,-7.576471210E-1,-2.942367156E0,3.041216023E0
1.023865258E1,6.111088800E-1,-1.496816456E0,-3.191453573E0,3.577609463E0
1.024870758E1,1.138043729E0,-2.226491666E0,-3.790094142E0,4.540619151E0
1.025876158E1,1.879291310E0,-2.675274239E0,-4.422629559E0,5.499861844E0
1.026881658E1,2.571734375E0,-2.948314067E0,-4.879231028E0,6.254060198E0
1.027887058E1,3.193395725E0,-3.218163654E0,-5.189913769E0,6.891266827E0
1.028892558E1,3.811272757E0,-3.373148782E0,-5.461226914E0,7.465181320E0
1.029897958E1,4.227376411E0,-3.147702951E0,-5.333530156E0,7.498352426E0
1.030903358E1,4.372761288E0,-2.467970563E0,-4.777247109E0,6.930657250E0
1.031908858E1,4.497748154E0,-1.696611722E0,-4.192228505E0,6.378323418E0
1.032914258E1,4.225061790E0,-1.402744111E0,-3.868520215E0,5.897820515E0
1.033919758E1,3.405010553E0,-1.932347483E0,-3.676182488E0,5.370510343E0
1.034925158E1,2.559669230E0,-3.100212450E0,-3.304797463E0,5.204316485E0
1.035930658E1,2.158820963E0,-4.239634221E0,-3.269016596E0,5.772475706E0
1.036936058E1,2.602609428E0,-4.384686685E0,-4.122217453E0,6.556807904E0
1.037941558E1,3.636549475E0,-3.690782985E0,-5.001450992E0,7.201450073E0
1.038946958E1,4.988436259E0,-2.914858637E0,-5.025776578E0,7.657631971E0
1.039952358E1,5.901519914E0,-2.896937506E0,-5.028604292E0,8.276898292E0
1.040957858E1,6.342357874E0,-3.225821167E0,-4.468939507E0,8.402549966E0
1.041963258E1,6.209076440E0,-3.092677728E0,-3.366844314E0,7.710572379E0
1.042968758E1,5.022674630E0,-3.039726512E0,-2.687082691E0,6.456594389E0
1.043974158E1,2.724461894E0,-2.810790478E0,-2.418268645E0,4.601223638E0
1.044979658E1,2.648940718E-1,-2.819992826E0,-2.003888897E0,3.469596392E0
1.045985058E1,-1.492614939E0,-2.911532156E0,-9.880902752E-2,3.273328899E0
1.046990458E1,-2.464142391E0,-3.178911295E0,2.352886249E0,4.659779871E0
1.047995958E1,-3.263226390E0,-3.671516994E0,4.497513388E0,6.660053318E0
1.049001358E1,-3.981890125E0,-4.210322714E0,5.664150440E0,8.103386115E0
1.050006858E1,-4.213855017E0,-4.067329055E0,5.003889281E0,7.703158292E0
1.051012258E1,-4.965451439E0,-4.067912607E0,4.986290916E0,8.128143581E0
1.052017758E1,-6.155882565E0,-4.002005131E0,5.683845032E0,9.285312573E0
1.053023158E1,-6.708264935E0,-4.162225272E0,3.852760799E0,8.784571898E0
1.054028658E1,-4.937897020E0,-3.042951837E0,3.013436261E0,6.536297190E0
1.055034058E1,-2.838901844E0,-2.561827145E0,2.186083313E0,4.404688667E0
1.056039558E1,-1.264541223E0,-2.202577724E0,1.282180957E0,2.845066104E0
1.057044958E1,-2.271709062E-1,-1.216837152E0,1.051988867E0,1.624493722E0
1.058050358E1,9.894463907E-1,-3.676132786E-1,9.817206109E-1,1.441498887E0
1.059055858E1,2.755171470E-1,-4.265502888E-1,1.825994086E0,1.895286060E0
1.060061258E1,7.093646148E-1,1.685571009E-1,1.964689018E0,2.095617472E0
1.061066758E1,1.739598404E0,6.217174834E-1,2.344045844E0,2.984507691E0
1.062072158E1,2.449817005E0,6.350193143E-2,4.166419480E0,4.833703253E0
1.063077658E1,2.289715563E0,-5.456563175E-2,5.752911758E0,6.192073035E0
1.064083446E1,1.593560685E0,2.985658479E-1,5.618785987E0,5.848019596E0
1.065088946E1,1.798863297E0,8.420277053E-1,5.558662577E0,5.902850960E0
1.066094346E1,1.016147116E0,9.756389219E-1,5.169359052E0,5.357863312E0
1.067099746E1,4.548506664E-1,1.649567363E0,4.615478333E0,4.922458924E0
1.068105246E1,7.178540410E-1,2.477152446E0,4.967412010E0,5.597033209E0
1.069110646E1,7.248348856E-1,3.071382753E0,4.919961855E0,5.845066491E0
1.070116146E1,3.119681047E-1,3.413741323E0,4.407728515E0,5.583818100E0
1.071121546E1,-5.280047429E-1,3.558688536E0,4.839024696E0,6.029860124E0
1.072127046E1,-1.127861680E0,3.736156209E0,5.407361779E0,6.668620291E0
1.073132446E1,-1.270244304E0,4.297674268E0,5.381576727E0,7.003205893E0
1.074137846E1,-1.003881851E0,4.872588884E0,5.722768192E0,7.582873926E0
1.075143346E1,-1.368850872E0,4.697917349E0,5.184238461E0,7.128850437E0
1.076148746E1,-2.021800088E0,4.784117002E0,4.590504290E0,6.931679503E0
1.077154246E1,-2.291996562E0,4.264448050E0,5.199728905E0,7.104642573E0
1.078159646E1,-2.166360655E0,4.176062123E0,4.252076804E0,6.341353995E0
1.079165146E1,-2.318010532E0,3.871232738E0,3.130431153E0,5.491740611E0
1.080170546E1,-2.345483528E0,3.551994059E0,1.738925390E0,4.598023085E0
1.081176046E1,-2.117607009E0,2.874371347E0,1.072791579E-1,3.571803312E0
1.082181446E1,-1.895758970E0,1.676735866E0,-1.129834676E0,2.771618955E0
1.083186846E1,-8.962873815E-1,7.982402462E-1,-2.553089359E0,2.821131658E0
1.084192346E1,2.271213511E-1,-3.783867735E-1,-3.601336665E0,3.628275959E0
1.085197746E1,1.234127369E0,-1.007550101E0,-5.005545212E0,5.252971582E0
1.086203246E1,1.638189997E0,-1.867160969E0,-6.357712662E0,6.825720976E0
1.087208646E1,2.348207600E0,-1.725005216E0,-6.541494159E0,7.161066104E0
1.088214146E1,2.647570423E0,-1.540607423E0,-6.711567442E0,7.377549587E0
1.089219546E1,2.183732148E0,-1.728201304E0,-6.803367559E0,7.351270365E0
1.090225046E1,1.188634716E0,-1.944688032E0,-6.331744008E0,6.729461064E0
1.091230446E1,1.622096559E-1,-1.869251348E0,-5.506865602E0,5.817729912E0
1.092235846E1,-6.250191137E-1,-1.454044658E0,-4.359535764E0,4.637935622E0
1.093241346E1,-1.256694259E0,-9.345248097E-1,-2.937526538E0,3.328915626E0
1.094246746E1,-1.677603008E0,-4.916830087E-1,-2.379615626E0,2.952740179E0
1.095252246E1,-1.895536337E0,-1.349069595E-2,-2.280035205E0,2.965097054E0
1.096257646E1,-2.455273627E0,9.189425647E-2,-2.009952606E0,3.174385392E0
1.097263146E1,-3.692144509E0,-1.006498187E0,-2.957126405E0,4.836276073E0
1.098268546E1,-5.773351285E0,-4.312098765E0,-6.596664977E0,9.769430364E0
1.099274046E1,-7.743354837E0,-7.401151219E0,-5.930363059E0,1.224360198E1
1.100279446E1,-7.634524705E0,-6.488583874E0,4.109877782E0,1.082953293E1
1.101284846E1,-5.728794917E0,-4.144212924E0,1.062937150E1,1.276624966E1
1.102290346E1,-2.874277499E0,-2.636509538E-1,1.094392714E1,1.131815021E1
1.103295746E1,-1.259542438E0,3.825177144E0,1.132212154E1,1.201702391E1
1.104301246E1,-1.740548723E0,5.475606387E0,9.972361976E0,1.150911719E1
1.105306646E1,-2.225819237E0,6.062263965E0,7.984213929E0,1.026903052E1
1.106312146E1,-1.934631113E0,6.191673957E0,7.038127420E0,9.571565259E0
1.107317546E1,-7.660292508E-1,5.702697625E0,7.022108388E0,9.078412153E0
1.108323046E1,3.370580685E-1,4.446192377E0,7.076369380E0,8.364044380E0
1.109328446E1,1.204983530E0,3.347702284E0,6.970138335E0,7.825721967E0
1.110333846E1,1.174037142E0,2.326824625E0,6.704535581E0,7.193279739E0
1.111339346E1,2.936227579E-1,4.416273344E-1,5.376889014E0,5.402979224E0
1.112344746E1,-6.174324976E-1,-2.477762311E0,3.649791080E0,4.454380303E0
1.113350246E1,-6.242009421E-1,-4.926366311E0,1.455374315E0,5.174632957E0
1.114355646E1,-4.743492302E-1,-5.753064955E0,1.675068240E0,6.010708543E0
1.115361146E1,-5.612721840E-1,-7.427756635E0,2.878655602E0,7.985815748E0
1.116366546E1,1.191832265E0,-7.400886340E0,3.772551033E0,8.392003579E0
1.117372046E1,3.284678655E0,-6.779192246E0,3.671013257E0,8.379910483E0
1.118377446E1,5.784084435E0,-4.736715964E0,2.911498243E0,8.023025171E0
1.119382846E1,7.050629352E0,-1.592350019E0,2.653388110E0,7.699832550E0
1.120388346E1,6.268561335E0,-6.895527864E-1,1.999435512E0,6.615745356E0
1.121393746E1,5.022597447E0,-3.701410300E-1,1.880881460E0,5.375984055E0
1.122399246E1,3.591638766E0,1.076063097E-1,1.362257990E0,3.842810817E0
1.123404646E1,2.517922157E0,7.252091074E-1,4.569060358E-1,2.659816415E0
1.124410146E1,2.112548144E0,1.194772684E0,-3.554539937E-1,2.452893999E0
1.125415546E1,1.975477715E0,1.414870652E0,-1.051085984E0,2.647480483E0
1.126421046E1,1.241724364E0,1.067750695E0,-1.297990658E0,2.089677174E0
1.127426446E1,-1.846746585E-1,2.223368669E-1,-1.059686069E0,1.098395637E0
1.128431846E1,-1.114599902E0,-2.039771944E-1,-1.197295173E0,1.648470615E0
1.129437346E1,-1.836302581E0,-1.136932611E-1,-1.392006431E0,2.307079372E0
1.130442746E1,-2.555896899E0,8.025829732E-2,-1.377049107E0,2.904361306E0
1.131448246E1,-3.091182010E0,4.535544848E-1,-1.090398130E0,3.309091412E0
1.132453646E1,-3.354651700E0,9.568284291E-1,-4.393480897E-1,3.515997073E0
1.133459146E1,-3.274281721E0,1.275263700E0,-4.525980265E-1,3.542889113E0
1.134464546E1,-2.577105920E0,1.656988649E0,-1.685807529E0,3.497003479E0
1.135470046E1,-1.754901006E0,2.350771312E0,-2.711973118E0,3.995072151E0
1.136475446E1,-1.565597107E0,2.739196585E0,-2.801640755E0,4.219417395E0
1.137480846E1,-2.199649877E0,1.462227252E0,-2.841837731E0,3.879769298E0
1.138486346E1,-1.789141424E0,1.287258679E-1,-3.058923506E0,3.546069712E0
1.139491746E1,-5.487905712E-1,-4.997445649E-1,-3.023605154E0,3.113374993E0
1.140497246E1,2.259859680E-1,-9.872567546E-1,-2.698660470E0,2.882449287E0
1.141502646E1,6.974982753E-1,-1.204255114E0,-2.222336927E0,2.622120448E0
1.142508146E1,1.109376877E0,-1.470192913E0,-2.102286573E0,2.794958514E0
1.143513546E1,1.854242715E0,-1.723677313E0,-2.424757885E0,3.505528538E0
1.144519046E1,2.722082662E0,-2.058970692E0,-3.133035210E0,4.633033991E0
1.145524446E1,3.461673581E0,-2.492775621E0,-4.048866179E0,5.881363075E0
1.146529846E1,3.892354927E0,-3.041909278E0,-4.658231712E0,6.789901444E0
1.147535346E1,4.178129406E0,-3.454706916E0,-4.962530755E0,7.349726301E0
1.148540746E1,4.579016850E0,-3.352672418E0,-4.893885028E0,7.493858707E0
1.149546246E1,4.908382614E0,-2.815011583E0,-4.209349737E0,7.052314181E0
1.150551646E1,4.923035152E0,-2.271109430E0,-3.527536618E0,6.468209006E0
1.151557146E1,4.718872308E0,-2.010690817E0,-3.401003748E0,6.154466664E0
1.152562546E1,4.204568761E0,-2.224852692E0,-3.674372190E0,6.010771910E0
1.153568046E1,3.397017117E0,-2.882742221E0,-3.807058377E0,5.860343120E0
1.154573446E1,2.660833370E0,-3.728885781E0,-3.881077695E0,6.003947657E0
1.155578846E1,2.524477178E0,-4.146095143E0,-4.052029231E0,6.323134574E0
1.156584346E1,2.945097806E0,-4.103459585E0,-4.400262205E0,6.698827444E0
1.157589746E1,3.828257165E0,-3.851700114E0,-4.361485518E0,6.965177859E0
1.158595246E1,5.138896812E0,-3.840079358E0,-3.781026865E0,7.446518252E0
1.159600646E1,5.956824049E0,-3.945312867E0,-3.388118824E0,7.907502484E0
1.160606146E1,5.733328264E0,-3.248739329E0,-3.757109706E0,7.585593817E0
1.161611546E1,4.034085295E0,-2.304891719E0,-5.885393293E0,7.498281417E0
1.162617046E1,1.172657783E0,-1.878848968E0,-7.810667984E0,8.118604195E0
1.163622033E1,-1.037088042E0,-2.180698028E0,-6.734207861E0,7.154058360E0
1.164627433E1,-1.708934290E0,-2.584627193E0,-2.540194786E0,4.006662412E0
1.165632933E1,-1.826453969E0,-3.089810838E0,2.139676301E0,4.178645689E0
1.166638333E1,-2.255386852E0,-3.905453568E0,5.564518563E0,7.162625514E0
1.167643833E1,-2.958311051E0,-4.614261235E0,7.350007378E0,9.168730527E0
1.168649233E1,-3.095341427E0,-4.336189878E0,7.083972514E0,8.863766005E0
1.169654733E1,-3.384193588E0,-4.019210563E0,6.522415279E0,8.375483321E0
1.170660133E1,-4.376360250E0,-3.742292277E0,6.036859567E0,8.342718619E0
1.171665633E1,-5.481916702E0,-3.927285317E0,4.947240286E0,8.363621652E0
1.172671033E1,-3.669077828E0,-2.401256756E0,3.717691287E0,5.748860289E0
1.173676433E1,-1.709207793E0,-1.567038592E0,2.029591942E0,3.081597748E0
1.174681933E1,-3.946250761E-1,-1.680014985E0,-4.644104254E-1,1.787136352E0
1.175687333E1,-3.952498510E-2,-2.024518313E0,-1.437306418E0,2.483160559E0
1.176692833E1,-1.208679409E-1,-1.723430561E0,-9.261450919E-1,1.960246589E0
1.177698233E1,1.286346513E-1,-1.229943686E0,5.427268624E-1,1.350503903E0
1.178703733E1,-7.024551062E-1,-9.956305522E-1,1.578553075E0,1.994129681E0
1.179709133E1,-6.409907833E-2,-2.086549670E-1,1.912115825E0,1.924534363E0
1.180714633E1,1.539713530E0,3.904829085E-1,3.508948027E0,3.851741283E0
1.181720033E1,1.991874477E0,3.763010716E-1,5.167637047E0,5.551003430E0
1.182725433E1,8.792537114E-1,4.368630230E-1,6.361332089E0,6.436651484E0
1.183730933E1,5.623182508E-1,1.385014184E0,6.131388579E0,6.310973935E0
1.184736333E1,1.135006100E0,2.584491538E0,5.548066252E0,6.224859396E0
1.185741833E1,7.342755076E-1,2.852025043E0,5.485455437E0,6.226028326E0
1.186747233E1,3.273743485E-1,2.765887955E0,5.161172950E0,5.864726452E0
1.187752733E1,-6.992144331E-2,3.134754292E0,5.199599097E0,6.071853444E0
1.188758133E1,-6.090797500E-1,3.203695303E0,5.379879280E0,6.291084391E0
1.189763633E1,-1.134580569E0,3.201003830E0,5.988567413E0,6.884521643E0
1.190769033E1,-1.310411898E0,3.500853726E0,5.822044559E0,6.918768604E0
1.191774433E1,-1.602525344E0,3.814331143E0,5.208072882E0,6.651408324E0
1.192779933E1,-1.532556246E0,4.289870574E0,4.833592633E0,6.641937664E0
1.193785333E1,-1.073489006E0,4.506885890E0,4.898675359E0,6.742508387E0
1.194790833E1,-9.196654268E-1,4.707952341E0,3.861057998E0,6.157789263E0
1.195796233E1,-1.163523263E0,4.526351856E0,4.381015510E0,6.405852356E0
1.196801733E1,-1.124986165E0,4.748643115E0,4.868334157E0,6.893176537E0
1.197807133E1,-1.396646635E0,4.867073790E0,4.632644881E0,6.862975134E0
1.198812633E1,-1.927353522E0,4.523101389E0,4.372200540E0,6.579458590E0
1.199818033E1,-2.355367369E0,4.036660994E0,3.150623343E0,5.636383137E0
1.200823433E1,-2.284673363E0,2.976692943E0,6.637320668E-1,3.810639514E0
1.201828933E1,-1.690281672E0,1.383765804E0,-2.194701817E0,3.096542587E0
1.202834333E1,-7.366440685E-1,-6.510611504E-1,-5.303505873E0,5.393857585E0
1.203839833E1,4.845103754E-1,-2.419783659E0,-8.194865720E0,8.558383459E0
1.204845233E1,1.965111917E0,-3.996102367E0,-1.093426286E1,1.180629507E1
1.205850733E1,3.014941919E0,-5.008827839E0,-1.168680420E1,1.306750257E1
1.206856133E1,2.816503500E0,-5.545251988E0,-1.102843461E1,1.266131437E1
1.207861633E1,1.686620146E0,-5.212017413E0,-9.887654532E0,1.130378367E1
1.208867033E1,1.794041245E-1,-4.184587948E0,-7.650889893E0,8.722332159E0
1.209872433E1,-6.824469575E-1,-2.569891625E0,-4.181942668E0,4.955675665E0
1.210877933E1,-6.236600746E-1,-9.350674313E-1,-7.944261074E-1,1.376377793E0
1.211883333E1,-4.169206555E-1,1.378557104E-1,6.942980942E-1,8.215089004E-1
1.212888833E1,-6.563968809E-1,8.812204224E-1,5.736902082E-1,1.239567164E0
1.213894233E1,-1.390145116E0,9.922391671E-1,5.814325064E-2,1.708924412E0
1.214899733E1,-2.604909430E0,1.271143752E-1,-5.253325653E-1,2.660391984E0
1.215905133E1,-3.490237522E0,-1.872351542E0,-2.195575683E0,4.528577131E0
1.216910633E1,-4.148104539E0,-4.373209770E0,-2.001908884E0,6.351328533E0
1.217916033E1,-4.683293463E0,-5.240745369E0,5.173905262E0,8.727424897E0
1.218921433E1,-4.121428079E0,-5.031443115E0,1.140721490E1,1.313111347E1
1.219926933E1,-2.604263898E0,-2.895812502E0,1.093607550E1,1.160886161E1
1.220932333E1,-1.534924222E0,9.800792974E-1,8.604787697E0,8.795391925E0
1.221937833E1,-2.119113837E0,3.416556757E0,7.631706347E0,8.625917070E0
1.222943233E1,-3.938663998E0,4.494068209E0,5.442897062E0,8.082997686E0
1.223948733E1,-4.748716789E0,5.730505228E0,4.551722340E0,8.723942777E0
1.224954133E1,-3.807455987E0,6.190693379E0,5.351433746E0,9.025477757E0
1.225959633E1,-1.988137229E0,5.674676598E0,7.111367304E0,9.312689680E0
1.226965033E1,-1.050945651E0,3.950213419E0,7.565884241E0,8.599492843E0
1.227970433E1,-1.413363971E0,1.081480542E0,6.384489402E0,6.627888261E0
1.228975933E1,-1.828326832E0,-1.005086085E0,4.975519760E0,5.395254760E0
1.229981333E1,-1.550707904E0,-2.291863537E0,2.982989810E0,4.068852624E0
1.230986833E1,-8.163230529E-1,-3.876485876E0,4.527886458E-1,3.987297786E0
1.231992233E1,-1.557913135E-1,-4.042310573E0,4.747294454E-1,4.073071783E0
1.232997733E1,3.488675438E-1,-4.426420602E0,2.326376874E0,5.012677654E0
1.234003133E1,1.984866151E0,-5.356162389E0,1.623866658E0,5.938443575E0
1.235008633E1,4.934414418E0,-4.454204816E0,3.785509340E-1,6.658204488E0
1.236014033E1,7.454652658E0,-2.072105877E0,1.871121873E0,7.960311933E0
1.237019433E1,8.200803568E0,-8.245310819E-1,2.238054535E0,8.540604122E0
1.238024933E1,8.052680731E0,-6.178396100E-1,2.263240832E0,8.387469929E0
1.239030333E1,7.405747715E0,6.226816893E-2,4.091095063E0,8.460853111E0
1.240035833E1,6.515020890E0,7.608917409E-1,3.746640851E0,7.553924219E0
1.241041233E1,4.900247968E0,9.913153070E-1,1.329287295E0,5.173213788E0
1.242046733E1,3.345658098E0,1.022580369E0,-1.034300601E0,3.648133283E0
1.243052133E1,1.793840539E0,4.719147420E-1,-2.100583133E0,2.802323483E0
1.244057633E1,4.186765744E-1,-7.096297860E-2,-2.312862643E0,2.351522788E0
1.245063033E1,-4.777201501E-1,-1.529678392E-1,-2.497327679E0,2.547206556E0
1.246068533E1,-1.191267863E0,1.393485045E-1,-2.828348497E0,3.072147840E0
1.247073933E1,-1.831357444E0,4.441521621E-1,-2.416201070E0,3.064175067E0
1.248079333E1,-2.387729807E0,5.717004007E-1,-1.785859382E0,3.036015269E0
1.249084833E1,-2.789990178E0,5.565297997E-1,-8.999620642E-1,2.983907225E0
1.250090233E1,-2.688663778E0,6.283692759E-1,-2.541686703E-1,2.772789673E0
1.251095733E1,-2.102195211E0,8.566825819E-1,-1.145631807E-1,2.272939610E0
1.252101133E1,-1.807558984E0,1.278179707E0,2.699517672E-1,2.230221245E0
1.253106633E1,-1.916749597E0,1.413133444E0,5.965895127E-1,2.454952992E0
1.254112033E1,-2.011450663E0,1.368296995E0,7.014761361E-1,2.531845020E0
1.255117533E1,-2.259688941E0,1.105785663E0,1.700025326E-1,2.521479110E0
1.256122933E1,-2.818981258E0,3.852186602E-1,-3.297145504E-1,2.864220737E0
1.257128333E1,-2.482312321E0,-8.934662461E-2,-1.060652175E0,2.700896206E0
1.258133833E1,-1.400086552E0,-4.564207900E-1,-1.505271822E0,2.105802827E0
1.259139233E1,-6.794881202E-1,-9.210458082E-1,-1.509870949E0,1.894660859E0
1.260144733E1,2.307344918E-1,-9.826397932E-1,-1.794563109E0,2.058950247E0
1.261150133E1,9.497734711E-1,-1.409108806E0,-2.607628970E0,3.112456605E0
1.262155633E1,1.608491989E0,-2.114040939E0,-3.971255501E0,4.777790894E0
1.263161033E1,2.263901567E0,-2.760446536E0,-5.608429399E0,6.648292691E0
1.264166513E1,2.797826324E0,-3.152480711E0,-6.910292083E0,8.094325385E0
1.265171913E1,3.230120040E0,-3.161647391E0,-7.205878190E0,8.506137207E0
1.266177313E1,3.783754591E0,-3.009617445E0,-6.026988882E0,7.726525154E0
1.267182813E1,4.343514393E0,-2.805843149E0,-4.779478991E0,7.041469483E0
1.268188213E1,4.635330215E0,-2.691615452E0,-3.784194594E0,6.561341987E0
1.269193713E1,4.726680095E0,-2.858758696E0,-3.437925699E0,6.506407543E0
1.270199113E1,4.638115244E0,-3.409537759E0,-3.511244228E0,6.742840409E0
1.271204613E1,4.322372615E0,-4.198822995E0,-3.224897600E0,6.834689758E0
1.272210013E1,4.302316665E0,-4.694740557E0,-3.042322384E0,7.057353829E0
1.273215513E1,4.712793543E0,-4.743940784E0,-3.030234727E0,7.341506633E0
1.274220913E1,5.492097289E0,-4.686757938E0,-3.256565535E0,7.920483046E0
1.275226313E1,6.569335091E0,-3.852795298E0,-2.868388183E0,8.138049270E0
1.276231813E1,7.184972640E0,-2.881402624E0,-2.691275144E0,8.195686354E0
1.277237213E1,6.812985644E0,-1.794999896E0,-3.974682262E0,8.089307578E0
1.278242712E1,4.966595154E0,-1.537886714E0,-6.323973058E0,8.186867424E0
1.279248113E1,1.922697385E0,-1.728979568E0,-8.040582258E0,8.446129209E0
1.280253613E1,-9.357388379E-1,-2.514230810E0,-7.840989890E0,8.287224276E0
1.281259013E1,-2.622880555E0,-2.771515315E0,-4.861574484E0,6.180267471E0
1.282264513E1,-3.407015855E0,-2.435747727E0,-7.720217697E-1,4.258713613E0
1.283269913E1,-3.113693206E0,-1.572522696E0,2.705958672E0,4.414762207E0
1.284275313E1,-3.372600313E0,-2.278283964E0,5.408003803E0,6.768420482E0
1.285280813E1,-3.865562108E0,-3.404033191E0,6.481243279E0,8.278679050E0
1.286286213E1,-4.259698942E0,-4.083459184E0,6.092246148E0,8.481458431E0
1.287291713E1,-4.587435379E0,-4.179165825E0,5.886420064E0,8.553357909E0
1.288297113E1,-4.864706252E0,-3.422489927E0,5.309519734E0,7.973067417E0
1.289302613E1,-4.917380894E0,-3.464996846E0,3.659592183E0,7.041267851E0
1.290308013E1,-3.257630897E0,-2.382693016E0,2.771437547E0,4.895942315E0
1.291313513E1,-1.615358813E0,-1.987496082E0,1.255791157E0,2.852461428E0
1.292318913E1,-5.511364742E-1,-2.028660480E0,-4.947672687E-2,2.102775001E0
1.293324313E1,4.155221477E-1,-1.894722404E0,4.345884562E-2,1.940237180E0
1.294329812E1,5.595786841E-1,-2.345923385E0,9.436283398E-1,2.589772051E0
1.295335213E1,6.075526035E-1,-2.571594334E0,1.913278105E0,3.262338225E0
1.296340713E1,1.027082287E0,-2.306407317E0,2.200195130E0,3.348920922E0
1.297346113E1,1.403835056E0,-1.256635056E0,2.519024942E0,3.145690892E0
1.298351613E1,1.758464300E0,-1.189569247E0,3.382594374E0,3.993647003E0
1.299357013E1,1.267113413E0,-8.846293491E-1,4.808215717E0,5.050453828E0
1.300362513E1,1.186302554E0,4.140694070E-1,5.357530053E0,5.502898826E0
1.301367913E1,7.214329024E-1,1.109929000E0,5.389247689E0,5.549450286E0
1.302373413E1,4.715191048E-1,1.613866603E0,5.596823845E0,5.843914170E0
1.303378813E1,3.874901573E-1,2.507966688E0,5.648729578E0,6.192591653E0
1.304384213E1,4.960949522E-1,3.153136184E0,5.073673460E0,5.994208903E0
1.305389713E1,-1.501602256E-1,3.136511380E0,5.474058044E0,6.310749813E0
1.306395113E1,-4.811683993E-1,3.316445408E0,5.770980824E0,6.673421375E0
1.307400613E1,-6.843475950E-1,3.949292482E0,6.194519212E0,7.378164474E0
1.308406013E1,-1.341901201E0,4.048720291E0,6.672661239E0,7.919421875E0
1.309411513E1,-1.419531614E0,4.720500466E0,6.262772006E0,7.969975398E0
1.310416912E1,-1.393182306E0,5.384953494E0,5.327323337E0,7.701886457E0
1.311422413E1,-1.457386342E0,5.613280249E0,5.104420459E0,7.725800821E0
1.312427813E1,-1.514899116E0,5.763128014E0,5.205986010E0,7.912702078E0
1.313433213E1,-1.475013650E0,5.931265284E0,4.938510393E0,7.857764189E0
1.314438713E1,-1.505413763E0,5.965517689E0,4.564967161E0,7.661109389E0
1.315444113E1,-1.643182642E0,5.839206136E0,4.175029213E0,7.363915156E0
1.316449613E1,-2.129336085E0,5.504196932E0,3.445231503E0,6.833730763E0
1.317455013E1,-2.373511864E0,5.032074029E0,2.670700839E0,6.171545234E0
1.318460513E1,-2.051242135E0,4.179769843E0,1.602318060E0,4.923971304E0
1.319465913E1,-1.190139058E0,2.602416762E0,-1.052395906E0,3.049022979E0
1.320471413E1,-6.151718178E-1,-2.218375146E-2,-4.756553228E0,4.796220084E0
1.321476813E1,2.639946239E-1,-2.284877869E0,-9.330979722E0,9.610283170E0
1.322482213E1,1.153339168E0,-4.800864013E0,-1.277564580E1,1.369655475E1
1.323487713E1,2.275733408E0,-6.504687690E0,-1.307449699E1,1.477945858E1
1.324493113E1,3.325530227E0,-6.990802395E0,-1.132154969E1,1.371524541E1
1.325498613E1,2.921258415E0,-6.518029867E0,-8.951060393E0,1.145163509E1
1.326504012E1,1.092593468E0,-4.795010365E0,-6.316475759E0,8.005232720E0
1.327509513E1,-1.004099513E0,-2.633654342E0,-3.733042859E0,4.677601951E0
1.328514913E1,-2.120143385E0,-7.213452673E-1,-1.735226734E0,2.833082912E0
1.329520413E1,-2.184822361E0,9.920006007E-1,-3.371355441E-1,2.423050622E0
1.330525813E1,-1.964060880E0,2.049370149E0,7.074958447E-1,2.925406556E0
1.331531313E1,-2.112704557E0,2.611953571E0,8.605244949E-1,3.467899135E0
1.332536713E1,-3.258730466E0,2.482103868E0,-1.798369646E-2,4.096399306E0
1.333542113E1,-5.118508156E0,1.352605991E0,-1.208907743E0,5.430481253E0
1.334547613E1,-6.868996707E0,-5.375345349E-1,-1.975701956E0,7.167667498E0
1.335553013E1,-6.874398365E0,-2.086200006E0,1.112401203E0,7.269595572E0
1.336558513E1,-5.660951428E0,-4.248675771E0,7.290728890E0,1.016131609E1
1.337563913E1,-5.972510959E0,-7.520614513E0,9.453097651E0,1.347559219E1
1.338569413E1,-5.033172137E0,-7.739697404E0,8.781562475E0,1.274172583E1
1.339574813E1,-2.480964831E0,-3.227340274E0,7.810593724E0,8.807740122E0
1.340580313E1,-1.757351136E0,1.102281427E0,6.704859517E0,7.018436328E0
1.341585713E1,-2.157010372E0,3.206816547E0,4.957771121E0,6.286164220E0
1.342591112E1,-1.737903735E0,4.481570955E0,4.382542218E0,6.504726275E0
1.343596613E1,-1.348168686E0,4.664615117E0,5.635628307E0,7.438850678E0
1.344602013E1,-4.890102464E-1,4.335421554E0,7.145242563E0,8.371947346E0
1.345607513E1,2.560466498E-2,3.976377954E0,7.600526655E0,8.577892670E0
1.346612913E1,-6.539259937E-1,2.533011482E0,6.669873286E0,7.164563911E0
1.347618413E1,-1.429939511E0,3.748293275E-1,5.346359532E0,5.546961716E0
1.348623813E1,-1.236873075E0,-1.542947479E0,3.231233350E0,3.788325605E0
1.349629313E1,-2.522021055E-2,-2.532462428E0,1.595866535E0,2.993458202E0
1.350634713E1,5.177101350E-1,-3.275418420E0,2.220874393E0,3.991074126E0
1.351640113E1,6.597768639E-1,-5.072253172E0,4.081629006E0,6.543909618E0
1.352645613E1,2.653188136E0,-5.377271422E0,5.282117343E0,7.990946055E0
1.353651013E1,4.048948333E0,-5.026311598E0,4.810574484E0,8.049808554E0
1.354656512E1,4.968761548E0,-3.917570168E0,2.704361798E0,6.881098755E0
1.355661913E1,6.608732461E0,-9.683421814E-1,2.883795304E0,7.275253032E0
1.356667413E1,6.190568833E0,4.493281174E-1,1.919194171E0,6.496794941E0
1.357672813E1,4.839207422E0,1.521492290E-1,1.114003925E0,4.968106541E0
1.358678313E1,3.629393068E0,1.276634288E-1,8.535799762E-1,3.730601931E0
1.359683713E1,2.624579464E0,3.476035219E-1,-3.927294818E-1,2.676468198E0
1.360689113E1,1.835898976E0,6.386334783E-1,-2.350042602E0,3.049766877E0
1.361694613E1,1.285727147E0,7.996862626E-1,-4.055567381E0,4.328997481E0
1.362700013E1,7.354315022E-1,8.315997809E-1,-5.432621166E0,5.544888675E0
1.363705521E1,-4.272639415E-1,5.090048003E-1,-6.025465098E0,6.062002145E0
1.364710921E1,-1.447477065E0,2.236326098E-2,-5.775723501E0,5.954382582E0
1.365716421E1,-1.562791175E0,9.032895684E-2,-4.591195723E0,4.850727136E0
1.366721821E1,-1.512532456E0,2.005045331E-1,-3.140005091E0,3.491072682E0
1.367727321E1,-1.432374292E0,2.074942946E-2,-1.987803938E0,2.450202267E0
1.368732721E1,-8.296044186E-1,4.772181666E-1,-1.162675271E0,1.505919804E0
1.369738121E1,-4.419332899E-1,8.383252484E-1,5.398003310E-3,9.476937233E-1
1.370743621E1,-3.874141435E-1,8.572713965E-1,1.247858824E0,1.562739777E0
1.371749021E1,-1.135576057E-1,9.702062738E-1,1.033710398E0,1.422235118E0
1.372754521E1,-2.072009106E-1,7.924322069E-1,3.757596195E-1,9.011527681E-1
1.373759921E1,-4.745704012E-1,5.835433513E-1,-1.968108469E-1,7.774795290E-1
1.374765421E1,-7.481489038E-1,1.833961648E-1,-6.745160866E-1,1.023881285E0
1.375770821E1,-5.798517117E-1,-4.362660223E-1,-1.110267262E0,1.326367009E0
1.376776321E1,1.919162889E-1,-5.183661926E-1,-1.690664226E0,1.778730136E0
1.377781721E1,7.840589941E-1,-6.800001901E-1,-2.220416702E0,2.450999611E0
1.378787221E1,1.287361736E0,-9.969280493E-1,-3.137685209E0,3.535001307E0
1.379792621E1,1.723422521E0,-1.651311588E0,-4.092740762E0,4.737883714E0
1.380798021E1,2.216541460E0,-2.456345129E0,-4.884584154E0,5.899648277E0
1.381803521E1,2.824147565E0,-3.323356817E0,-5.467264164E0,6.993674817E0
1.382808921E1,3.497686874E0,-3.757764595E0,-5.596132704E0,7.594162854E0
1.383814421E1,4.104773747E0,-3.528651974E0,-5.250319015E0,7.540981503E0
1.384819821E1,4.743079197E0,-2.575735917E0,-4.638988818E0,7.116982017E0
1.385825321E1,4.974016441E0,-1.638732473E0,-3.579593209E0,6.343482578E0
1.386830721E1,4.501829218E0,-1.551140597E0,-2.934887105E0,5.593394835E0
1.387836221E1,3.587547469E0,-1.994605712E0,-2.616792434E0,4.867910376E0
1.388841621E1,2.667934813E0,-3.022625746E0,-2.772169911E0,4.892756747E0
1.389847021E1,1.991631379E0,-3.834202906E0,-3.307713761E0,5.441385651E0
1.390852521E1,1.737025483E0,-4.046864970E0,-4.383055896E0,6.213336672E0
1.391857921E1,2.012249393E0,-4.334985936E0,-5.553404760E0,7.326769760E0
1.392863421E1,2.794624096E0,-4.587482741E0,-6.356589997E0,8.322328889E0
1.393868821E1,3.812181707E0,-4.460534427E0,-6.217144428E0,8.548800009E0
1.394874321E1,3.715586874E0,-4.215475280E0,-8.054352450E0,9.820815193E0
1.395879721E1,2.730339223E0,-3.746164303E0,-1.032758851E1,1.132022896E1
1.396885221E1,1.518297372E0,-2.791958935E0,-8.149144002E0,8.746931438E0
1.397890621E1,4.935105559E-1,-2.470196598E0,-4.010176030E0,4.735708574E0
1.398896021E1,-1.768779811E-1,-2.327992898E0,5.728341758E-2,2.335405349E0
1.399901521E1,-9.633662009E-1,-2.414510640E0,2.850538096E0,3.857914398E0
1.400906921E1,-1.870604248E0,-3.085392682E0,4.519688369E0,5.783285503E0
1.401912421E1,-2.028092716E0,-3.739123086E0,5.516769615E0,6.966272210E0
1.402917821E1,-2.139766349E0,-4.421055781E0,5.912924323E0,7.686807419E0
1.403923321E1,-1.681028307E0,-3.944091969E0,5.625458245E0,7.073011953E0
1.404928721E1,-1.838190354E0,-3.205136057E0,5.719277405E0,6.808962840E0
1.405934221E1,-2.689727971E0,-3.130502781E0,4.768593814E0,6.306676715E0
1.406939621E1,-2.366824696E0,-2.514985101E0,1.801475687E0,3.895166729E0
1.407945021E1,-1.774260406E0,-1.996532954E0,-2.215076586E-1,2.680151016E0
1.408950521E1,-1.704364399E0,-2.083583962E0,-3.799683722E-1,2.718557723E0
1.409955921E1,-1.422632831E0,-1.646810986E0,-6.604663968E-2,2.177207558E0
1.410961421E1,-1.537749012E-1,-1.207772799E0,-1.613585937E-1,1.228168738E0
1.411966821E1,1.301476914E0,-1.310447567E0,8.672087395E-1,2.040383783E0
1.412972321E1,1.438586812E0,-2.072809882E0,2.312948889E0,3.422835870E0
1.413977721E1,-2.438313778E-1,-1.595039738E0,3.075285770E0,3.472893329E0
1.414983221E1,-4.472580568E-1,-5.945916653E-1,3.748989093E0,3.822106519E0
1.415988621E1,-1.595639370E0,-2.884256065E-2,4.829767385E0,5.086604947E0
1.416994121E1,-1.744003258E0,1.243037941E0,4.917398436E0,5.363534102E0
1.417999521E1,-1.405148779E0,1.940886757E0,4.730579604E0,5.302816976E0
1.419004921E1,-1.058280252E0,2.506444657E0,5.406606903E0,6.052571364E0
1.420010421E1,-7.108495152E-1,3.147474325E0,5.849252822E0,6.680244025E0
1.421015821E1,-4.254425338E-1,3.160103141E0,6.040691832E0,6.830608393E0
1.422021321E1,1.114517310E-1,3.233596795E0,6.098920745E0,6.904013613E0
1.423026721E1,5.601325616E-2,3.220116624E0,5.969991978E0,6.783295127E0
1.424032221E1,-3.556560150E-1,3.412097670E0,6.039027715E0,6.945412691E0
1.425037621E1,-4.816214123E-1,3.743438331E0,5.502435751E0,6.672487461E0
1.426043121E1,-4.518624468E-1,4.479946014E0,4.550088336E0,6.401359216E0
1.427048521E1,-1.207701609E0,4.724632108E0,4.367599074E0,6.546496269E0
1.428053921E1,-1.343697320E0,5.334147622E0,4.557533888E0,7.143512335E0
1.429059421E1,-1.169738123E0,5.541379377E0,4.578697592E0,7.282832163E0
1.430064821E1,-1.037460217E0,5.429451390E0,4.476262560E0,7.112818893E0
1.431070321E1,-8.319840892E-1,5.488434593E0,4.350812595E0,7.052991000E0
1.432075721E1,-1.117022842E0,5.252571362E0,3.667259052E0,6.502771324E0
1.433081221E1,-1.411481460E0,4.984871212E0,2.848880995E0,5.912473580E0
1.434086621E1,-1.578066295E0,4.485191551E0,2.188301747E0,5.234109381E0
1.435092121E1,-1.625671839E0,3.172372354E0,7.420584440E-1,3.641072097E0
1.436097521E1,-6.824526586E-1,1.565073928E0,-2.637095721E0,3.141571561E0
1.437103021E1,1.232131130E-1,-1.153498943E0,-7.164354773E0,7.257666332E0
1.438108421E1,5.054191415E-1,-4.097205988E0,-1.235514913E1,1.302659800E1
1.439113821E1,1.473235804E0,-6.490646771E0,-1.517676281E1,1.657205625E1
1.440119321E1,2.422376899E0,-7.640200013E0,-1.399170059E1,1.612477136E1
1.441124721E1,2.279904520E0,-7.061692868E0,-1.136507519E1,1.357315014E1
1.442130221E1,7.270354852E-1,-4.767874607E0,-8.128042570E0,9.451258376E0
1.443135621E1,-8.486743815E-1,-2.184118649E0,-4.298288226E0,4.895498356E0
1.444141121E1,-1.850213545E0,-1.986246532E-1,-1.431806820E0,2.347937964E0
1.445146521E1,-2.070450238E0,1.418186608E0,-1.456643745E-2,2.509627388E0
1.446152021E1,-2.335085863E0,2.435841283E0,1.709228843E-2,3.374350440E0
1.447157421E1,-3.772439936E0,1.828342474E0,-2.597110999E0,4.931442468E0
1.448162821E1,-5.806133115E0,-3.055924469E-1,-4.709610319E0,7.482312333E0
1.449168321E1,-6.458349091E0,-1.723246958E0,4.248899719E-1,6.697789527E0
1.450173721E1,-5.647102298E0,-3.419114914E0,7.884326529E0,1.028312773E1
1.451179221E1,-4.545788878E0,-6.312720677E0,1.194110662E1,1.425147944E1
1.452184621E1,-3.367301274E0,-7.164609126E0,1.327588445E1,1.545701944E1
1.453190121E1,-1.563422820E0,-3.569327545E0,1.113105325E1,1.179341920E1
1.454195521E1,-4.089830603E-1,1.170050071E0,7.774739767E0,7.872919583E0
1.455201021E1,-7.618664718E-1,3.375931472E0,6.682407378E0,7.525418406E0
1.456206421E1,-9.942541176E-1,3.746173659E0,6.102287571E0,7.229126637E0
1.457211921E1,-4.987603323E-1,3.838140421E0,5.818943195E0,6.988575225E0
1.458217321E1,6.042230527E-1,3.835264176E0,6.419976153E0,7.502694889E0
1.459222721E1,1.538105984E0,4.074018854E0,6.719271734E0,8.006997707E0
1.460228221E1,1.205050920E0,3.024368216E0,6.832191408E0,7.568209185E0
1.461233621E1,2.368341610E-2,8.617684901E-2,7.058927135E0,7.059492875E0
1.462239121E1,1.052355561E-1,-2.108719972E0,5.755876297E0,6.130896051E0
1.463244521E1,7.825895888E-1,-3.100021246E0,3.960463003E0,5.089974989E0
1.464250058E1,7.111486003E-2,-4.222521760E0,3.843413440E0,5.710216651E0
1.465255458E1,2.301975712E-2,-5.857727777E0,4.229170629E0,7.224914451E0
1.466260958E1,1.256930194E0,-6.229302544E0,4.269828658E0,7.656077355E0
1.467266358E1,2.759793987E0,-5.441707739E0,4.499171659E0,7.580975635E0
1.468271758E1,3.505318075E0,-4.201910325E0,2.819009324E0,6.155495005E0
1.469277258E1,3.999289100E0,-2.233761510E0,1.797672658E0,4.920937997E0
1.470282658E1,3.532966342E0,-1.133854052E0,2.753490103E0,4.620517713E0
1.471288158E1,2.869772219E0,-1.152021936E0,2.264590369E0,3.832899252E0
1.472293558E1,2.468491550E0,-9.644590455E-1,2.034002497E0,3.340778044E0
1.473299058E1,2.246089925E0,1.942497665E-1,1.050599057E0,2.487249747E0
1.474304458E1,2.020275135E0,1.460357897E0,-8.251725946E-1,2.625845886E0
1.475309958E1,1.769521969E0,1.970304683E0,-2.611608000E0,3.719382327E0
1.476315358E1,1.631485434E0,1.991640589E0,-4.086579843E0,4.829959810E0
1.477320758E1,6.932347780E-1,1.503191675E0,-4.940763325E0,5.210691116E0
1.478326258E1,-4.376421645E-1,6.795107782E-1,-5.567131684E0,5.625497378E0
1.479331658E1,-3.039476252E-1,6.496022701E-1,-5.296089849E0,5.344430275E0
1.480337158E1,-1.728800936E-1,3.841129518E-1,-4.216730677E0,4.237717297E0
1.481342558E1,-2.891358970E-1,1.553195894E-1,-2.634439623E0,2.654806183E0
1.482348058E1,-2.393905637E-1,1.257817948E-1,-1.093476251E0,1.126418756E0
1.483353458E1,-3.055594102E-2,2.099074405E-1,-4.762194622E-1,5.213250188E-1
1.484358958E1,2.572494221E-1,5.198192257E-1,-8.805687502E-2,5.866372864E-1
1.485364358E1,3.126760563E-1,1.168605224E0,-6.866911590E-2,1.211659991E0
1.486369758E1,3.605891646E-1,1.129532375E0,-1.311877211E0,1.768301374E0
1.487375258E1,4.028037228E-1,7.262370479E-1,-2.174412563E0,2.327604151E0
1.488380658E1,4.052779721E-1,7.431366706E-1,-2.181175891E0,2.339664637E0
1.489386158E1,3.859894694E-1,5.049012244E-1,-2.272810970E0,2.359996361E0
1.490391558E1,2.324272607E-1,-2.668318391E-2,-2.202899321E0,2.215287756E0
1.491397058E1,9.364023507E-2,-7.110190845E-1,-2.258797533E0,2.369912008E0
1.492402458E1,3.764259097E-1,-1.539374245E0,-3.247762844E0,3.613769918E0
1.493407958E1,8.469376123E-1,-2.269485074E0,-4.521814124E0,5.129782529E0
1.494413358E1,1.387333482E0,-2.911673074E0,-5.937874392E0,6.757283965E0
1.495418758E1,1.925648767E0,-3.499995355E0,-7.246308762E0,8.274483751E0
1.496424258E1,2.576159548E0,-3.832815946E0,-7.700740330E0,8.979336151E0
1.497429658E1,3.592506200E0,-3.344272892E0,-6.852019901E0,8.428549027E0
1.498435158E1,4.507446054E0,-2.411272452E0,-5.244189963E0,7.323444076E0
1.499440558E1,4.934026748E0,-1.907838879E0,-3.779680836E0,6.501573376E0
1.500446058E1,4.898649047E0,-2.021827424E0,-2.900808655E0,6.041460045E0
1.501451458E1,4.410159495E0,-2.778469993E0,-2.370918478E0,5.726312662E0
1.502456958E1,3.469544810E0,-4.013237048E0,-2.193713345E0,5.740748299E0
1.503462358E1,3.025416037E0,-4.800007980E0,-2.985787995E0,6.411563675E0
1.504467758E1,3.109520633E0,-3.612419770E0,-4.837418759E0,6.791120335E0
1.505473258E1,3.722234281E0,-1.995518462E0,-6.606746746E0,7.841315231E0
1.506478658E1,4.202002418E0,-1.732918838E0,-7.744720162E0,8.980006816E0
1.507484158E1,4.546799569E0,-2.144129541E0,-8.262334988E0,9.671445458E0
1.508489558E1,4.228268988E0,-2.662324995E0,-7.446613321E0,8.967624154E0
1.509495058E1,3.693113685E0,-3.437090424E0,-5.288856259E0,7.309218823E0
1.510500458E1,2.703556928E0,-3.642321262E0,-6.480078806E-1,4.582099786E0
1.511505958E1,1.175404659E0,-3.852101818E0,2.856590549E0,4.937648640E0
1.512511358E1,-7.662458901E-1,-4.270825608E0,4.364914325E0,6.154637374E0
1.513516858E1,-2.889282331E0,-4.789207588E0,4.577997973E0,7.227899222E0
1.514522258E1,-4.387160057E0,-4.720525609E0,5.079414842E0,8.205546327E0
1.515527658E1,-4.872673961E0,-4.529171383E0,5.266152690E0,8.484616026E0
1.516533158E1,-4.650005849E0,-4.070355574E0,4.761588265E0,7.801478815E0
1.517538558E1,-4.929457734E0,-3.824111781E0,4.628208014E0,7.768120357E0
1.518544058E1,-5.212654175E0,-3.371187626E0,4.572165960E0,7.709823028E0
1.519549458E1,-5.788731217E0,-3.577045285E0,2.905048764E0,7.398916839E0
1.520554958E1,-5.608023602E0,-3.571229644E0,1.422998282E0,6.799156860E0
1.521560358E1,-3.643528712E0,-3.128064492E0,1.343326606E0,4.986443153E0
1.522565858E1,-2.736949500E0,-2.654048846E0,1.422629907E0,4.069243627E0
1.523571258E1,-1.519865303E0,-1.331146125E0,1.510917893E0,2.522858186E0
1.524576658E1,-1.569610198E0,-4.045507246E-1,1.249539460E0,2.046628037E0
1.525582158E1,-8.001416145E-1,-7.570565522E-2,1.317133273E0,1.542983476E0
1.526587558E1,6.665528367E-1,-2.081766647E-1,2.289622153E0,2.393741802E0
1.527593058E1,3.131053150E-1,-6.954654908E-1,4.262065018E0,4.329769671E0
1.528598458E1,-7.768037689E-1,1.269810587E-1,5.486388652E0,5.542563372E0
1.529603958E1,6.218923151E-2,1.114270558E0,5.362097898E0,5.477002852E0
1.530609358E1,1.074457159E0,1.907944713E0,5.442224633E0,5.866218558E0
1.531614858E1,1.137999144E0,2.123775383E0,5.606015668E0,6.101874761E0
1.532620258E1,1.261953537E0,2.418206080E0,5.968089294E0,6.561885187E0
1.533625658E1,9.628696261E-1,2.458307455E0,4.921124282E0,5.584608998E0
1.534631158E1,6.012709397E-1,2.556744161E0,5.246675030E0,5.867373034E0
1.535636558E1,4.635231104E-1,3.024626663E0,5.856127979E0,6.607378832E0
1.536642058E1,-2.806673746E-1,3.223042570E0,6.300882404E0,7.082929948E0
1.537647458E1,-5.589670654E-1,3.686155499E0,6.231824448E0,7.261943438E0
1.538652958E1,-6.384737031E-1,4.859213378E0,5.990321578E0,7.739738751E0
1.539658358E1,-1.331086922E0,5.270025301E0,5.920434487E0,8.037195007E0
1.540663858E1,-1.557938132E0,5.861157169E0,5.475974761E0,8.171085250E0
1.541669258E1,-1.772107462E0,5.989904671E0,4.860473745E0,7.914766443E0
1.542674758E1,-1.972519024E0,5.777167763E0,4.571596441E0,7.626663273E0
1.543680158E1,-2.146460533E0,5.395335225E0,4.373828698E0,7.269615705E0
1.544685558E1,-2.352007705E0,5.077039703E0,4.017816587E0,6.888477518E0
1.545691058E1,-2.380055045E0,4.915683448E0,3.079004306E0,6.269678883E0
1.546696458E1,-2.228895311E0,4.427226933E0,1.972933007E0,5.334864316E0
1.547701958E1,-1.531139173E0,3.272639823E0,3.452219510E-1,3.629564268E0
1.548707358E1,-4.873899829E-1,1.576815721E0,-2.214289404E0,2.761697735E0
1.549712858E1,-2.221361612E-1,-7.481114817E-1,-5.615281166E0,5.669250200E0
1.550718258E1,2.390612192E-1,-2.638898710E0,-1.007289082E1,1.041556845E1
1.551723758E1,9.685009333E-1,-4.860609693E0,-1.429868643E1,1.513327309E1
1.552729158E1,1.875624813E0,-6.474728896E0,-1.600659147E1,1.736810448E1
1.553734558E1,2.403020715E0,-7.198431761E0,-1.410601249E1,1.601784994E1
1.554740058E1,2.272324920E0,-6.505471802E0,-9.946455302E0,1.210027260E1
1.555745458E1,1.270011293E0,-4.131235614E0,-5.371934084E0,6.894759762E0
1.556750958E1,4.093355012E-1,-1.377444963E0,-2.331993271E0,2.739179219E0
1.557756358E1,1.150103465E-2,7.064430535E-1,-7.703288546E-1,1.045275373E0
1.558761858E1,-3.329682335E-2,2.216288275E0,3.620613474E-1,2.245914250E0
1.559767258E1,-7.655835468E-1,2.981791715E0,7.378972730E-1,3.165705669E0
1.560772758E1,-2.333335207E0,2.719708400E0,-6.354075694E-1,3.639369416E0
1.561778158E1,-4.027529397E0,9.688467962E-1,-3.488282505E0,5.415512163E0
1.562783558E1,-5.175286374E0,-1.065511796E0,-3.376805339E0,6.270703209E0
1.563789088E1,-5.098380870E0,-2.558955578E0,3.078270481E0,6.482089964E0
1.564794488E1,-4.820915869E0,-4.826229819E0,9.968392886E0,1.207901407E1
1.565799988E1,-5.757719924E0,-7.395982865E0,1.272940719E1,1.580790020E1
1.566805388E1,-5.334318945E0,-6.407936152E0,1.200827476E1,1.461900363E1
1.567810887E1,-3.622388104E0,-1.208335885E0,8.024058026E0,8.886353492E0
1.568816288E1,-4.083338147E0,2.243278438E0,5.218128923E0,6.995342596E0
1.569821788E1,-4.492482152E0,3.481765491E0,4.849069336E0,7.471181984E0
1.570827188E1,-3.931664296E0,4.255612323E0,5.266219933E0,7.829514210E0
1.571832688E1,-2.503423109E0,4.474162533E0,5.932301996E0,7.840756634E0
1.572838088E1,-7.857155102E-1,4.133241794E0,7.103993965E0,8.256377344E0
1.573843488E1,5.247862892E-1,3.532154456E0,7.832742977E0,8.608331912E0
1.574848988E1,6.085958929E-1,2.576501902E0,7.177511008E0,7.650190539E0
1.575854388E1,-2.647663102E-2,6.781097853E-1,5.658950511E0,5.699496011E0
1.576859888E1,-2.350721025E-1,-1.474488863E0,4.399097732E0,4.645582542E0
1.577865288E1,2.247258930E-1,-3.817612601E0,3.642677357E0,5.281454916E0
1.578870788E1,-6.418152407E-2,-5.515335878E0,3.424431202E0,6.492286052E0
1.579876188E1,1.365649375E-1,-6.946368234E0,3.514044460E0,7.785832653E0
1.580881688E1,1.712291615E0,-7.200670660E0,4.909351498E0,8.881628941E0
1.581887088E1,3.492302466E0,-6.513680708E0,4.329728705E0,8.565673560E0
1.582892488E1,5.477540061E0,-4.497426265E0,2.335339194E0,7.462177784E0
1.583897987E1,6.838725672E0,-1.219142125E0,3.205486890E0,7.650465511E0
1.584903388E1,6.539358755E0,3.868816084E-1,1.923017081E0,6.827216490E0
1.585908888E1,5.387859560E0,4.837360579E-1,4.577101010E-1,5.428860815E0
1.586914288E1,3.646266378E0,2.158341783E-1,9.867351830E-1,3.783581533E0
1.587919788E1,2.587284168E0,2.397212237E-1,7.022166860E-1,2.691582045E0
1.588925188E1,2.297526566E0,6.394936037E-1,-9.468897705E-1,2.565965827E0
1.589930688E1,1.977402472E0,1.231739951E0,-2.230886872E0,3.225548028E0
1.590936088E1,1.540684899E0,1.357851529E0,-3.346287843E0,3.926208484E0
1.591941488E1,5.528991173E-1,1.326071911E0,-3.937541333E0,4.191467034E0
1.592946988E1,-5.667869854E-1,7.028815144E-1,-4.116543315E0,4.214406100E0
1.593952388E1,-1.179504142E0,4.989019811E-1,-3.986104213E0,4.186783969E0
1.594957888E1,-1.521816811E0,6.322863257E-1,-3.018831487E0,3.439339465E0
1.595963288E1,-1.667858623E0,1.188057742E0,-2.138298405E0,2.960667772E0
1.596968788E1,-1.807610293E0,7.322053009E-1,-2.300115859E0,3.015644631E0
1.597974188E1,-9.667153399E-1,6.927056050E-1,-2.204151356E0,2.504528459E0
1.598979688E1,8.388269395E-3,1.081039077E0,-1.606690316E0,1.936535468E0
1.599985087E1,4.788996796E-1,1.168896416E0,-1.037703023E0,1.634775611E0
1.600990588E1,7.740482685E-1,9.960685086E-1,-3.934477392E-1,1.321402406E0
1.601995988E1,6.745498542E-1,6.067790169E-1,1.509391478E-1,9.197722041E-1
1.603001388E1,3.056618826E-1,1.589799464E-1,-2.580382115E-1,4.304503786E-1
1.604006888E1,-1.351963967E-1,-3.839936686E-1,-6.101642624E-1,7.335050308E-1
1.605012288E1,-1.517402163E-1,-7.345909649E-1,-1.181524063E0,1.399517092E0
1.606017788E1,8.058311015E-2,-8.892311078E-1,-2.125852607E0,2.305748231E0
1.607023188E1,1.189092699E-1,-1.207516106E0,-2.895923307E0,3.139841773E0
1.608028688E1,3.313625881E-1,-1.576668956E0,-3.825202872E0,4.150646115E0
1.609034088E1,6.619261542E-1,-1.962365919E0,-4.967171105E0,5.381618253E0
1.610039588E1,1.060246378E0,-2.496611980E0,-6.060258955E0,6.639573206E0
1.611044988E1,1.681937111E0,-3.205399767E0,-6.705200994E0,7.619922603E0
1.612050388E1,2.606275340E0,-3.516123145E0,-6.542919710E0,7.871822625E0
1.613055888E1,3.684292283E0,-3.236316335E0,-5.836954958E0,7.623502885E0
1.614061288E1,4.584536037E0,-2.517268438E0,-4.620120730E0,6.978547601E0
1.615066788E1,4.851359105E0,-1.992417099E0,-3.429169201E0,6.266148137E0
1.616072187E1,4.751027901E0,-1.596921372E0,-2.827446272E0,5.754726441E0
1.617077688E1,4.136703345E0,-1.541452346E0,-2.689548754E0,5.169338681E0
1.618083088E1,3.230630502E0,-1.976402160E0,-2.885505323E0,4.761226723E0
1.619088588E1,2.634236725E0,-2.681966962E0,-3.714559226E0,5.284893580E0
1.620093988E1,2.669772009E0,-3.118327709E0,-4.852923528E0,6.356297432E0
1.621099388E1,3.296697607E0,-2.923769794E0,-5.587008124E0,7.115567771E0
1.622104888E1,4.056694139E0,-2.459527184E0,-5.691974416E0,7.409764777E0
1.623110288E1,4.487841801E0,-2.264128439E0,-5.993724657E0,7.822514742E0
1.624115788E1,4.136494600E0,-2.444766473E0,-6.445799797E0,8.039639650E0
1.625121188E1,2.869712285E0,-2.924452749E0,-6.515568774E0,7.696772631E0
1.626126688E1,1.431922448E0,-3.395340720E0,-4.427183371E0,5.760094886E0
1.627132088E1,6.046263644E-1,-3.002948111E0,5.733744586E-1,3.116412788E0
1.628137587E1,-4.754496762E-1,-2.959206845E0,4.163976513E0,5.130463716E0
1.629142988E1,-1.608582621E0,-3.144755954E0,4.618262485E0,5.814239111E0
1.630148488E1,-3.056588713E0,-3.389785280E0,4.663048064E0,6.525135711E0
1.631153888E1,-3.956360889E0,-3.938437126E0,4.923211153E0,7.443257791E0
1.632159287E1,-3.430420505E0,-4.078355734E0,4.714690087E0,7.115410948E0
1.633164788E1,-2.890708175E0,-3.252003829E0,4.206540150E0,6.051999892E0
1.634170188E1,-3.277614049E0,-3.001790947E0,3.505041502E0,5.660284328E0
1.635175688E1,-3.370825099E0,-3.213651357E0,2.551336071E0,5.310304383E0
1.636181088E1,-2.719934102E0,-3.614542310E0,2.678768535E0,5.257257697E0
1.637186588E1,-2.400352630E0,-3.957037119E0,1.939728423E0,5.018205045E0
1.638191988E1,-1.835075542E0,-3.519242635E0,1.465955436E0,4.231027808E0
1.639197488E1,-1.219982808E0,-2.448092369E0,7.001666522E-1,2.823428349E0
1.640202888E1,6.602319235E-1,-1.064723591E0,8.741470456E-2,1.255859805E0
1.641208288E1,1.958917231E0,-9.058933336E-1,1.091935948E0,2.418744212E0
1.642213788E1,1.183641632E-1,-1.081277059E0,2.181894222E0,2.437997651E0
1.643219188E1,-6.769836116E-1,-1.780149722E-1,2.098994737E0,2.212639837E0
1.644224687E1,5.832743794E-3,8.969289672E-1,1.893252268E0,2.094974879E0
1.645230088E1,5.505595002E-1,1.318738918E0,3.360946813E0,3.652143422E0
1.646235588E1,8.177256538E-1,1.111123002E0,4.726897320E0,4.924106806E0
1.647240988E1,8.801924819E-1,8.561253422E-1,5.186486131E0,5.329852511E0
1.648246488E1,3.784332588E-2,1.311103624E0,5.425928442E0,5.582214999E0
1.649251888E1,9.444817409E-2,2.241945857E0,5.386907049E0,5.835581311E0
1.650257288E1,3.033286974E-2,2.913988572E0,5.038272078E0,5.820346640E0
1.651262788E1,2.774436584E-1,3.160227102E0,4.707478716E0,5.676650966E0
1.652268188E1,7.224427897E-1,2.938050449E0,4.787542594E0,5.663446664E0
1.653273688E1,8.203254721E-1,3.076447611E0,5.155139208E0,6.059119081E0
1.654279088E1,4.567961812E-1,2.770584438E0,4.349837279E0,5.177440027E0
1.655284588E1,-2.697349817E-2,2.824688725E0,3.999522696E0,4.896506485E0
1.656289988E1,-1.037149876E-1,3.574042155E0,4.129620905E0,5.462444777E0
1.657295488E1,-3.852052116E-1,4.174485129E0,4.148309484E0,5.897726742E0
1.658300888E1,-7.858722156E-1,4.320166168E0,4.164673501E0,6.051936569E0
1.659306388E1,-1.349335059E0,4.230390358E0,4.575768430E0,6.376093193E0
1.660311787E1,-1.874030862E0,4.417345723E0,4.669628228E0,6.695547976E0
1.661317188E1,-2.769652392E0,4.161765681E0,4.503324059E0,6.728387291E0
1.662322688E1,-3.366508099E0,4.283776022E0,3.549169562E0,6.502362522E0
