"Time (s)","Linear Acceleration x (m/s^2)","Linear Acceleration y (m/s^2)","Linear Acceleration z (m/s^2)","Absolute acceleration (m/s^2)"
5.283958337E-3,-8.988182026E-1,1.506257370E-1,-4.117025710E0,4.216688627E0
1.533895833E-2,-8.531381460E-1,3.490796515E-1,-5.567404164E0,5.643198599E0
2.539429168E-2,-7.234716073E-1,5.226238427E-1,-5.493807600E0,5.565830467E0
3.544829166E-2,-4.202069369E-1,6.311569360E-1,-3.356605255E0,3.441181743E0
4.550329168E-2,-2.941472532E-1,5.139708406E-1,-5.405031663E-1,8.017682360E-1
5.555829167E-2,-3.980879433E-1,1.711292911E-1,1.284654329E0,1.355763987E0
6.561329166E-2,-4.587389186E-1,-4.686835706E-2,2.175835483E0,2.224162334E0
7.566829165E-2,-2.482992353E-1,-7.561093032E-2,2.612248271E0,2.625111531E0
8.572229167E-2,1.544052310E-1,-5.382742077E-2,2.373403544E0,2.379029792E0
9.577729166E-2,2.781222278E-1,-4.678357244E-2,2.257236911E0,2.274787715E0
1.058322917E-1,1.549393742E-1,3.129049748E-1,2.603880905E0,2.627186994E0
1.158872917E-1,-1.780280554E-1,7.021623069E-1,1.204320018E0,1.405386993E0
1.259422917E-1,2.439399898E-2,7.346611315E-1,4.231536412E-1,8.481633389E-1
1.359962917E-1,7.679297420E-1,3.965543649E-1,-3.380672979E-1,9.280414597E-1
1.460512917E-1,1.474799935E0,-2.822772592E-2,-7.509707701E-1,1.655230724E0
1.561062917E-1,1.373140682E0,6.967191339E-2,2.089666235E-1,1.390696429E0
1.661612917E-1,1.157057631E0,4.740460521E-1,6.893744463E-1,1.427844231E0
1.762152917E-1,1.415005430E0,3.127649340E-1,-3.000030935E-2,1.449469658E0
1.862702917E-1,1.628259817E0,-7.858687073E-2,-1.762556035E0,2.400835210E0
1.963252917E-1,2.340136396E0,3.134028652E-1,-3.676806970E0,4.369596000E0
2.063802917E-1,3.644819777E0,4.352494839E-1,-3.761457696E0,5.255731854E0
2.164352917E-1,3.802280032E0,5.427715936E-1,-3.414370483E0,5.139052465E0
2.264892917E-1,2.096137349E0,1.336480540E-1,-2.132017618E0,2.992850266E0
2.365442917E-1,1.389868250E0,-1.557324028E-1,-3.095955677E0,3.397194120E0
2.465992917E-1,1.718824855E-1,-1.479722998E0,-4.181397707E0,4.438829860E0
2.566542917E-1,-1.215092343E-1,-7.766906253E-1,-1.626027058E0,1.806094354E0
2.667092917E-1,3.911989585E0,2.133309853E0,-7.835011697E-1,4.524217891E0
2.767632917E-1,5.759692190E0,1.292072107E0,5.345173717E-2,5.903080682E0
2.868182917E-1,5.719234135E0,3.174251649E-1,4.411730057E-1,5.745000561E0
2.968732917E-1,5.151350212E0,1.066409051E0,6.225448644E-1,5.297282264E0
3.069282917E-1,5.429303455E0,1.415059225E0,-3.497588056E-1,5.621570941E0
3.169832917E-1,7.243513209E0,1.639744333E0,-2.436389167E0,7.816216300E0
3.270372917E-1,6.227407461E0,8.045529002E-1,-2.976527467E0,6.948929761E0
3.370922917E-1,4.895961959E0,-2.094303077E-1,-1.048618020E0,5.011377486E0
3.471472917E-1,4.813799516E0,-1.641955458E0,1.070935088E-1,5.087253927E0
3.572022917E-1,5.969828256E0,-1.750046209E0,-4.200809294E-1,6.235220857E0
3.672562917E-1,5.551969854E0,-2.738842536E0,-9.718522650E-1,6.266587949E0
3.773112917E-1,4.908079728E0,-3.062173389E0,-1.718604854E0,6.034878220E0
3.873662917E-1,4.237172543E0,-2.842288259E0,-2.564803963E0,5.710556285E0
3.974212917E-1,3.026024732E0,-3.287112851E0,-3.346429346E0,5.582161404E0
4.074762917E-1,1.851796386E0,-4.206360056E0,-3.832895468E0,5.984455067E0
4.175302917E-1,1.763060357E0,-4.485145650E0,-3.748299707E0,6.105298029E0
4.275852917E-1,2.297919791E0,-4.108770611E0,-3.307803224E0,5.753606996E0
4.376402917E-1,2.965314554E0,-3.523080747E0,-3.051774700E0,5.524356720E0
4.476952917E-1,3.080905236E0,-3.389474208E0,-3.137048154E0,5.551718978E0
4.577502917E-1,2.216443226E0,-4.084835619E0,-3.069344414E0,5.569504263E0
4.678042917E-1,9.016757369E-1,-5.028633528E0,-2.724321268E0,5.789827343E0
4.778592917E-1,-1.132681686E-1,-5.783745296E0,-2.378108799E0,6.254593575E0
4.879142917E-1,-5.197680625E-1,-6.313348668E0,-2.382200096E0,6.767821476E0
4.979692917E-1,-1.056689225E0,-6.417242580E0,-2.464147069E0,6.954826757E0
5.080232917E-1,-1.411640065E0,-6.237151846E0,-2.741617917E0,6.957820034E0
5.180782917E-1,-2.114384170E0,-5.807711279E0,-2.948762548E0,6.848016595E0
5.281332917E-1,-2.659036521E0,-5.251136456E0,-2.842074836E0,6.536229698E0
5.381882917E-1,-2.717502830E0,-4.596844426E0,-2.341705204E0,5.830899036E0
5.482432917E-1,-2.888078390E0,-3.967061001E0,-1.369894454E0,5.094622713E0
5.582972917E-1,-3.250415141E0,-3.692697363E0,-2.687713605E-1,4.926809358E0
5.683522917E-1,-3.143935005E0,-3.965327302E0,2.231502146E-1,5.065367108E0
5.784072917E-1,-2.926240827E0,-4.411244738E0,-4.638221955E-1,5.313858913E0
5.884622917E-1,-3.278698708E0,-4.836299601E0,-1.285370028E0,5.982627781E0
5.985172917E-1,-3.698013067E0,-5.144510139E0,-9.323022830E-1,6.403941971E0
6.085712917E-1,-3.592493629E0,-5.209140583E0,1.508553572E0,6.505143347E0
6.186262917E-1,-2.855707619E0,-4.738152040E0,5.605630336E0,7.875801053E0
6.286812917E-1,-1.611821832E0,-3.985140592E0,8.697416949E0,9.701771835E0
6.387362917E-1,-5.823686457E-1,-3.130879050E0,9.838447874E0,1.034101607E1
6.487902917E-1,-9.143098158E-1,-2.640757540E0,8.628485878E0,9.069748142E0
6.588452917E-1,-1.376981864E0,-1.493668461E0,7.358404564E0,7.633691260E0
6.689002917E-1,-1.742025876E0,-6.987645630E-1,5.977337835E0,6.265101249E0
6.789552917E-1,-1.976237268E0,-9.556168860E-1,6.258390688E0,6.632207127E0
6.890102917E-1,-7.339313990E-1,-1.142218568E0,8.025944338E0,8.139969353E0
6.990642917E-1,-3.916231155E-2,-1.634316802E0,1.004848805E1,1.018060102E1
7.091192917E-1,-6.077414685E-1,-3.206042668E0,1.088187883E1,1.136060501E1
7.191742917E-1,4.393732327E-1,-1.258818406E0,1.160180556E1,1.167816616E1
7.292292917E-1,1.454625871E0,1.197689641E0,1.100788983E1,1.116799156E1
7.392842917E-1,1.637784054E0,2.449439129E0,9.422338373E0,9.872312245E0
7.493382917E-1,1.259155206E0,3.013395331E0,7.032267340E0,7.753631872E0
7.593932917E-1,3.655357629E-1,2.917548941E0,4.835552620E0,5.659353086E0
7.694482917E-1,-7.916720688E-2,2.758504676E0,4.125656201E0,4.963532470E0
7.795032917E-1,-1.048022189E0,1.743884121E0,4.696685926E0,5.118431500E0
7.895572917E-1,-1.750176895E0,-1.888194573E-1,5.587975253E0,5.858689221E0
7.996122917E-1,-1.708426605E0,-1.400658410E0,5.669766106E0,6.084966158E0
8.096672917E-1,-1.211707975E0,-1.256147106E0,5.194823091E0,5.480175975E0
8.197222917E-1,-1.040558803E-1,-2.037623093E-1,4.756892951E0,4.762391968E0
8.297772917E-1,5.358148688E-1,6.708095366E-1,4.897410899E0,4.972093776E0
8.398312917E-1,8.352162838E-1,9.390444151E-1,5.352588571E0,5.498144693E0
8.498862917E-1,1.203255824E0,9.368052238E-1,5.040377660E0,5.266007555E0
8.599412917E-1,1.863340983E0,1.334618787E0,4.984048508E0,5.485798616E0
8.699962917E-1,2.313952564E0,1.411704385E0,4.385382211E0,5.155469220E0
8.800502917E-1,2.815753010E0,1.047423142E0,4.201562123E0,5.165141288E0
8.901052917E-1,3.716244686E0,8.432676074E-1,4.872700565E0,6.185853670E0
9.001602917E-1,4.648342316E0,1.248620570E0,4.399370797E0,6.520782394E0
9.102152917E-1,5.506417705E0,1.871077434E0,3.995385498E0,7.055825394E0
9.202702917E-1,6.221901723E0,2.573601976E0,3.520181113E0,7.597839380E0
9.303242917E-1,6.301857135E0,3.161853505E0,2.412010370E0,7.451745766E0
9.403792917E-1,5.912007480E0,3.378859465E0,1.507547266E0,6.974325952E0
9.504342917E-1,5.371818309E0,3.122866025E0,1.185321829E0,6.325639256E0
9.604892917E-1,5.118822151E0,2.288014608E0,1.044986315E0,5.703450487E0
9.705442917E-1,4.996129441E0,1.374660812E0,9.242448199E-1,5.263575802E0
9.805982917E-1,4.514694847E0,9.694399962E-1,8.945947587E-1,4.703465026E0
9.906532917E-1,4.312032107E0,9.668239519E-1,1.028993011E0,4.537311545E0
1.000708292E0,3.895029151E0,9.668075797E-1,1.211502737E0,4.192100651E0
1.010763292E0,3.185865973E0,5.004631877E-1,1.075599997E0,3.399576555E0
1.020817292E0,2.471438547E0,1.356428316E-1,-5.626775622E-2,2.475797554E0
1.030872292E0,1.828847673E0,1.838987330E-1,-1.746423567E0,2.535448250E0
1.040927292E0,2.287335454E0,9.472018656E-1,-2.998219467E0,3.888240582E0
1.050982292E0,2.938072084E0,1.781973469E0,-2.767873085E0,4.412348402E0
1.061037292E0,3.490194837E0,1.935587133E0,-1.923745644E0,4.430435063E0
1.071091292E0,4.256786444E0,1.986712848E0,-1.449600189E0,4.916156982E0
1.081146292E0,4.179620739E0,1.329759458E0,-9.990172595E-1,4.498391404E0
1.091201292E0,3.598257814E0,4.599796978E-1,-4.432856047E-1,3.654523600E0
1.101256292E0,2.821183904E0,-2.447586000E-2,-8.206029224E-1,2.938208101E0
1.111310292E0,2.126583216E0,1.010629830E-1,-1.753677623E0,2.758252183E0
1.121365292E0,1.877461424E0,5.970124125E-1,-2.382982453E0,3.091907274E0
1.131420292E0,2.005598477E0,1.201989610E0,-3.455874020E0,4.172561505E0
1.141475292E0,1.945586164E0,1.472447015E0,-2.815955324E0,3.725991159E0
1.151530292E0,1.734081849E0,1.313768785E0,-1.069931121E0,2.424413513E0
1.161584292E0,1.612463856E0,9.506745270E-1,1.859853119E-1,1.881066793E0
1.171639292E0,1.331701026E0,1.026048645E0,9.148085833E-1,1.913916975E0
1.181694292E0,4.591479313E-1,1.035295432E0,1.457398621E0,1.845715090E0
1.191749292E0,-7.759687865E-1,2.100468966E-1,3.164732966E0,3.265238430E0
1.201803292E0,-1.809662374E0,-1.078814796E0,2.530835148E0,3.292999517E0
1.211858292E0,-3.366192935E0,-1.336367689E0,2.125624273E0,4.199453777E0
1.221913292E0,-4.164072407E0,-1.374309686E0,2.373946166E0,4.986366064E0
1.231968292E0,-4.692313378E0,-2.322173749E0,3.367943591E0,6.225218052E0
1.242023292E0,-5.284376707E0,-2.934168482E0,3.075040187E0,6.781581970E0
1.252077292E0,-4.293567184E0,-1.885500468E0,3.000692840E0,5.567224506E0
1.262132292E0,-5.013260028E0,-2.204669565E0,2.064208628E0,5.852717426E0
1.272187292E0,-4.630698343E0,-1.783169517E0,1.861003851E0,5.299659989E0
1.282242292E0,-2.152936032E0,9.353045359E-1,1.784769022E0,2.948784258E0
1.292297292E0,-1.588730593E0,2.106382548E0,-7.098636746E-2,2.639308887E0
1.302351292E0,-1.964753922E0,1.800922540E0,4.358204645E-1,2.700651671E0
1.312406292E0,-2.291553050E0,1.270136569E0,7.194840986E-1,2.717005641E0
1.322461292E0,-2.203137887E0,8.821314186E-1,1.118073002E0,2.623367993E0
1.332516292E0,-1.620201477E0,2.742873314E-1,7.310189009E-3,1.643271068E0
1.342570292E0,-1.965864893E0,2.335597202E-1,-3.184919894E-1,2.005146395E0
1.352625292E0,-2.101707991E0,2.599981982E-1,-9.150179136E-1,2.306953256E0
1.362680292E0,-2.009630717E0,3.749635211E-1,-1.944055363E0,2.821092787E0
1.372735292E0,-2.400713550E0,3.905362643E0,-2.646445594E1,2.685856868E1
1.382790292E0,-8.970517588E-1,9.060105702E0,-1.624304351E1,1.862059826E1
1.392844292E0,7.907213116E-1,-2.840206943E0,1.249088640E1,1.283410529E1
1.402899292E0,2.083336040E0,-3.700933167E0,-5.456435705E0,6.914469319E0
1.412954292E0,1.166200849E0,9.873397851E-1,-5.548528183E-1,1.625646309E0
1.423009292E0,2.040739658E0,-6.611592919E-2,-2.004886286E0,2.861565776E0
1.433063292E0,1.982924144E0,-1.167919931E0,-1.335387111E-1,2.305180625E0
1.443118292E0,1.667007853E0,-1.421318961E0,-2.664891922E-1,2.206825608E0
1.453173292E0,1.120831718E0,-7.898407209E-1,-3.840252435E-1,1.423933809E0
1.463228292E0,3.225979042E-1,-3.475722393E-1,-1.266805118E0,1.352653347E0
1.473283292E0,-8.022268778E-1,-6.687472236E-1,-1.544356073E0,1.864356858E0
1.483337292E0,-1.720419245E0,-6.602336776E-1,-5.358862048E-1,1.919094816E0
1.493392292E0,-1.517314455E0,-4.121097127E-1,-7.118926585E-2,1.573895003E0
1.503447292E0,-1.010107089E0,-1.172625185E0,1.918722886E-1,1.559545168E0
1.513502292E0,-8.198205650E-1,-1.863815484E0,1.625456954E0,2.605383701E0
1.523556292E0,-3.087633920E-1,-1.913995120E0,1.465737920E0,2.430452592E0
1.533611292E0,2.772720426E-1,-1.765460932E0,1.188696842E0,2.146329954E0
1.543666292E0,2.485791707E-1,-1.852498198E0,1.470287054E0,2.378084355E0
1.553721292E0,2.993090290E-1,-1.907702639E0,6.374055630E-1,2.033519389E0
1.563776292E0,2.260919487E-1,-3.003802681E0,-1.898374575E-1,3.018275398E0
1.573830292E0,1.082489187E-1,-3.353020035E0,8.151919091E-1,3.452390336E0
1.583885292E0,-1.769928789E-1,-2.498610558E0,3.038400364E-1,2.523232048E0
1.593940292E0,-1.476524279E0,-3.048207314E0,-1.944187510E-1,3.392563990E0
1.603995292E0,-1.422104242E0,-3.030258408E0,6.161912799E-1,3.403606645E0
1.614049292E0,-6.031981820E-1,4.287253068E-1,-5.362949252E-1,9.139287074E-1
1.624104292E0,3.448251590E0,3.154694467E0,-1.913493721E0,5.050147960E0
1.634159292E0,5.207915007E0,6.321281585E0,-5.691858641E0,9.973877600E0
1.644214292E0,2.037513165E0,5.564968799E0,-4.454474373E0,7.413681917E0
1.654269292E0,1.753540213E0,2.304810589E0,1.460552609E0,3.243496424E0
1.664323292E0,1.076140864E0,1.412524164E0,-1.706597596E-1,1.783936218E0
1.674378292E0,-6.427382237E-1,1.601583357E0,-9.931466550E-1,1.991110734E0
1.684433292E0,-1.878845460E0,1.483207354E0,-3.130651885E-1,2.414119742E0
1.694488292E0,-2.953269582E0,8.880115248E-1,-8.689079404E-2,3.085111943E0
1.704542292E0,-3.652918171E0,-7.429546760E-1,-9.279554629E-1,3.841470311E0
1.714597292E0,-1.744773483E0,-5.137033305E-1,1.180047641E0,2.168095490E0
1.724652292E0,7.607619327E-1,1.149197292E0,1.135987117E0,1.786023478E0
1.734707292E0,1.643804932E0,1.980049068E0,-1.106024230E-1,2.575834207E0
1.744762292E0,4.739706230E-1,8.550655344E-1,-4.367770690E-1,1.070775153E0
1.754816292E0,-3.597727472E-1,-8.921009213E-2,4.377810359E-2,3.732444139E-1
1.764871292E0,-5.151630878E-1,-7.060202998E-1,-1.037910014E0,1.356876880E0
1.774926292E0,3.792562544E-2,-4.337765703E-1,-1.752469003E0,1.805754156E0
1.784981292E0,1.317003465E-1,-1.610410899E-2,-1.387440779E0,1.393770511E0
1.795035292E0,1.651464200E-1,4.092767367E-1,1.153106010E-1,4.561549319E-1
1.805090292E0,-2.842723292E-1,-1.640126449E-1,-5.128657168E-1,6.088859896E-1
1.815145292E0,-6.148323870E-1,-3.635444936E-1,-8.813917458E-1,1.134475594E0
1.825200292E0,-1.729009389E0,1.800562352E-1,-1.160225580E0,2.089980170E0
1.835255292E0,-3.257606632E0,4.774962017E-1,-1.396597518E0,3.576379205E0
1.845309292E0,-1.949559347E0,5.986955336E-1,5.911827385E-2,2.040272766E0
1.855364292E0,2.839640640E0,6.958856133E-1,2.884040303E0,4.106763229E0
1.865419292E0,4.963746391E0,1.242081044E0,2.728137161E0,5.798644318E0
1.875474292E0,3.395165888E0,2.207435006E-1,5.428537470E-1,3.445369253E0
1.885528292E0,1.969087878E0,-7.701835513E-1,-7.799378765E-1,2.253617728E0
1.895583292E0,1.559228466E0,-9.500310409E-1,-9.007384282E-1,2.035947471E0
1.905638292E0,8.698189366E-1,-9.865372548E-1,-6.019047779E-1,1.446419752E0
1.915693292E0,8.401951879E-1,-1.168007347E0,-7.249027133E-2,1.440633179E0
1.925748292E0,1.440350479E0,-1.555767792E0,7.000736815E-1,2.232739591E0
1.935802292E0,2.012159638E0,-1.841182667E0,1.103125180E0,2.942044388E0
1.945857292E0,1.421935258E0,-2.302656328E0,1.002042609E0,2.885864763E0
1.955912292E0,2.429442090E-1,-3.119269695E0,7.929742438E-1,3.227642092E0
1.965967292E0,-2.495843071E-1,-2.705378628E0,1.447130325E0,3.078238462E0
1.976021292E0,-4.641718590E-1,-2.604603621E0,1.503113907E0,3.042822202E0
1.986076292E0,-8.694365287E-1,-2.054298182E0,1.083188514E0,2.479789962E0
1.996131292E0,-2.577467862E0,-2.279629700E0,6.188611186E-1,3.496146627E0
2.006186292E0,-6.127173321E0,-4.996880808E0,3.794030195E-1,7.915492238E0
2.016241292E0,-8.807084402E0,-6.471213550E0,1.737175611E0,1.106612487E1
2.026295417E0,-1.017358689E1,-5.208218477E0,-3.055692335E0,1.183066632E1
2.036350417E0,-3.153753650E0,-1.699510186E0,-1.326255514E0,3.820137516E0
2.046405417E0,5.474900628E0,8.112125280E0,2.259555917E0,1.004423747E1
2.056460417E0,7.790764647E0,1.340932142E1,2.756302029E0,1.575128933E1
2.066514417E0,6.261690271E0,1.191761836E1,-1.057758973E0,1.350397150E1
2.076569417E0,3.260530239E0,5.524114303E0,-1.753100502E-1,6.416979810E0
2.086624417E0,4.469573638E0,3.083036254E0,-3.083535022E-1,5.438500063E0
2.096679417E0,3.381243083E0,1.255210674E0,-1.283696555E0,3.828346310E0
2.106734417E0,1.983197794E0,-7.635188949E-1,-1.921493297E0,2.864990590E0
2.116788417E0,1.155254862E0,-3.587711191E-1,-1.947501419E0,2.292616909E0
2.126843417E0,7.782965630E-1,1.408500695E0,-1.303961835E0,2.071216120E0
2.136898417E0,6.775285721E-1,2.379191703E0,-1.285878151E0,2.788024524E0
2.146953417E0,4.553308690E-1,2.979844592E0,-9.991669482E-1,3.175710091E0
2.157007417E0,7.771534324E-2,2.864220580E0,-9.521576732E-1,3.019338246E0
2.167062417E0,-3.873613724E-1,2.764882234E0,-9.931887549E-1,2.963283061E0
2.177117417E0,-7.996128801E-1,2.101240214E0,-3.366686440E-1,2.273309695E0
2.187172417E0,-6.689226401E-1,7.046602374E-1,4.072965771E-1,1.053515093E0
2.197227417E0,-5.827007675E-1,-9.769919676E-1,1.387693671E0,1.794365407E0
2.207281417E0,-2.581305975E-1,-1.229408081E0,1.143557214E0,1.698763885E0
2.217336417E0,-5.044509888E-2,-8.425212103E-1,9.050618595E-1,1.237547440E0
2.227391417E0,1.859806341E-1,-3.940333378E-1,3.481753796E-1,5.577429180E-1
2.237446417E0,-2.177283838E-1,1.031520177E0,-5.272726715E-1,1.178751880E0
2.247501417E0,-7.657308966E-2,1.744765881E0,-1.547728162E0,2.333566773E0
2.257555417E0,-1.433202258E-1,1.802415335E0,-2.624153786E0,3.186757728E0
2.267610417E0,-2.512408233E-1,5.147350717E-1,-9.916351497E-1,1.145170038E0
2.277665417E0,-2.316760689E0,-2.351321535E0,-7.263781412E0,7.978634811E0
2.287720417E0,-1.431943352E1,-2.665220536E0,-1.049589360E1,1.795308774E1
2.297774417E0,5.402969350E0,4.245368586E0,1.106531183E1,1.302522008E1
2.307829417E0,9.186676286E0,-1.461055470E-1,9.830232536E0,1.345547620E1
2.317884417E0,4.442348417E0,-1.734209318E0,2.504913856E0,5.386699810E0
2.327939417E0,4.118566159E0,-2.392671289E0,1.612849188E-1,4.765865707E0
2.337994417E0,3.793950966E0,-3.880088931E0,2.370987475E-1,5.431884558E0
2.348048417E0,3.530223121E0,-3.050823943E0,-4.850382328E-1,4.690976882E0
2.358103417E0,7.122259498E-1,-2.933284383E0,-5.078090447E-1,3.060930104E0
2.368158417E0,3.535893166E-1,-4.543977118E0,6.991977686E-1,4.611033612E0
2.378213417E0,3.433382705E-1,-2.900994304E0,1.065763519E0,3.109582126E0
2.388267417E0,-9.975674424E-1,-1.137744790E0,1.124542946E0,1.885258827E0
2.398322417E0,5.947229353E-1,-1.353568443E0,1.170526035E0,1.885729063E0
2.408377417E0,2.488301624E0,-7.179047656E-1,7.585762435E-1,2.698605222E0
2.418432417E0,2.242842528E0,-1.446425736E-2,3.042660061E-1,2.263433149E0
2.428487417E0,-9.942912474E-1,3.682699209E-1,-9.080033013E-1,1.395961251E0
2.438541417E0,-2.743199589E0,1.589015937E-1,-2.119256070E-1,2.755958302E0
2.448596417E0,-2.309805426E0,1.004691982E-1,-3.052530161E-1,2.332053724E0
2.458651417E0,6.093851209E-2,3.449430388E-1,-5.300191087E-1,6.353105208E-1
2.468706417E0,9.423975009E-1,8.207912028E-2,8.972131419E-1,1.303779680E0
2.478760417E0,-1.162251055E-2,-3.239158666E-1,7.386851853E-1,8.066674497E-1
2.488815417E0,-4.774619955E-1,7.380004764E-2,-7.761839640E-1,9.142636109E-1
2.498870417E0,-2.562779072E-1,1.122458414E0,-1.554146943E0,1.934157175E0
2.508925417E0,2.580826503E-1,2.656514032E0,-3.895517394E-1,2.697299393E0
2.518980417E0,-4.740241250E-1,3.250105239E0,-1.058989519E0,3.450991413E0
2.529034417E0,-8.845331624E-1,3.222394699E0,-2.814691740E-1,3.353423833E0
2.539089417E0,-6.478995609E-1,3.038698572E0,-4.624165249E-1,3.141224585E0
2.549144417E0,-6.393328053E-1,2.652144408E0,2.172242077E0,3.487298673E0
2.559199417E0,-7.378200898E-1,1.779777254E0,4.210797508E0,4.630637236E0
2.569253417E0,-7.286513633E-1,2.710541135E-1,3.436779645E0,3.523614262E0
2.579308417E0,-7.875787255E-1,-1.482996562E0,1.477230330E0,2.236463391E0
2.589363417E0,-5.911880010E-1,-2.795166718E0,-2.520383835E-1,2.868097554E0
2.599418417E0,-4.505697736E-1,-3.452072160E0,-1.212449109E0,3.686441124E0
2.609473417E0,-5.642107022E-1,-3.576355898E0,-1.621106626E0,3.966943650E0
2.619527417E0,-7.874342993E-1,-3.042637256E0,-1.274916084E0,3.391622808E0
2.629582417E0,-5.688405275E-1,-1.707648341E0,-5.177765009E-1,1.872894793E0
2.639637417E0,-3.232791048E-1,-5.932175696E-1,2.739861998E-1,7.290301106E-1
2.649692417E0,-1.339629266E-1,2.396095419E-1,6.279327813E-1,6.853162599E-1
2.659746417E0,1.712821957E-1,1.514381492E0,8.579914811E-1,1.748953480E0
2.669801417E0,3.342534515E-1,2.691368115E0,1.115355216E0,2.932440103E0
2.679856417E0,7.338059762E-1,3.095496671E0,-1.790122148E-1,3.186317031E0
2.689911417E0,8.453845918E-1,2.391441035E0,4.273794240E-1,2.572220540E0
2.699966417E0,2.063961875E-1,2.193526819E0,-3.028822625E-1,2.223937264E0
2.710020417E0,-4.503160045E-1,2.611724945E0,-1.253773429E0,2.931866215E0
2.720075417E0,-6.631567007E-1,2.682837612E0,-1.304589241E0,3.056034612E0
2.730130417E0,-8.164508146E-1,2.732268219E0,-1.152441474E0,3.075711772E0
2.740185417E0,-5.837477115E-1,3.874647512E0,-1.247658118E0,4.112214186E0
2.750240417E0,1.628455406E-1,3.122014963E0,6.395283946E-1,3.191001828E0
2.760294417E0,1.009712402E0,2.289043425E0,9.652080739E-1,2.681578931E0
2.770349417E0,9.829891643E-1,2.063940825E0,3.745103619E-1,2.316544288E0
2.780404417E0,4.623788103E-1,2.082830840E0,-2.158441186E-2,2.133645791E0
2.790459417E0,9.573646188E-2,2.900382101E0,-5.025418729E-2,2.902396817E0
2.800513417E0,-1.938904551E-1,2.268914385E0,2.479208912E0,3.366309972E0
2.810568417E0,-9.027779371E-2,1.999761202E0,9.487800291E-1,2.215260366E0
2.820623417E0,-1.420683369E-1,2.103038233E0,2.611433753E-1,2.123946582E0
2.830678417E0,-1.924897546E-1,2.094839852E0,-2.556233114E-1,2.119138879E0
2.840733417E0,-2.463429031E-1,2.339485601E0,-7.317316765E-1,2.463596750E0
2.850787417E0,-1.117157328E-1,2.533407338E0,-9.608267552E-1,2.711792986E0
2.860842417E0,-8.248637885E-2,1.386718063E0,-3.871067262E-1,1.442096601E0
2.870897417E0,1.721759427E-1,9.061213750E-1,-8.903935343E-2,9.266220955E-1
2.880952417E0,6.295631312E-1,1.692757822E0,-9.530867958E-1,2.042095301E0
2.891006417E0,1.460407890E0,1.510304228E0,5.493663758E-2,2.101625110E0
2.901061417E0,2.416101375E0,-2.519106803E0,-8.209476158E-1,3.585721674E0
2.911116417E0,1.481685616E0,-1.016505931E1,1.355887303E0,1.036157581E1
2.921171417E0,4.689525425E-2,-1.709843269E1,-1.359953456E0,1.715249466E1
2.931226417E0,-4.242099407E-1,-1.107703316E1,-5.857895592E0,1.253776529E1
2.941280417E0,4.382255705E-1,-2.289969040E0,-4.585926213E0,5.144581526E0
2.951335417E0,8.415583201E-1,1.568791003E0,-2.767397121E0,3.290564153E0
2.961390417E0,1.063095726E0,2.147439065E0,9.223924220E-2,2.397952280E0
2.971445417E0,1.733876612E0,1.798849118E0,5.402464736E0,5.952210637E0
2.981499417E0,1.468122122E0,1.534818095E0,5.853678580E0,6.227086162E0
2.991554417E0,9.625826740E-1,4.164930779E-1,5.006390135E0,5.115073222E0
3.001609417E0,3.965185507E-1,2.631299669E-1,5.428727505E0,5.449545546E0
3.011664417E0,-1.289411916E-1,3.774722689E-1,5.724801269E0,5.738681096E0
3.021719417E0,-4.611802773E-1,1.819279289E-1,5.410728605E0,5.433393881E0
3.031773542E0,-6.448192477E-2,4.354064816E-1,4.441835032E0,4.463589942E0
3.041828542E0,2.862219371E-1,6.080566335E-1,3.069311669E0,3.142026415E0
3.051883542E0,6.449157268E-1,6.696430171E-1,2.053319358E0,2.253987234E0
3.061938542E0,1.063353589E0,5.842760074E-1,1.339717851E0,1.807468735E0
3.071992542E0,1.431782115E0,2.011085504E-1,5.208728939E-1,1.536799677E0
3.082047542E0,1.469915317E0,-3.820383596E-1,-8.510061049E-1,1.740923817E0
3.092102542E0,8.900374389E-1,-7.112289995E-1,-2.406228351E0,2.662320080E0
3.102157542E0,4.105717488E-1,-4.558816767E-1,-3.597640056E0,3.649576857E0
3.112212542E0,1.548025493E-1,5.023085690E-1,-3.610294600E0,3.648356455E0
3.122266542E0,-9.782991126E-2,1.229778210E0,-3.096777503E0,3.333460070E0
3.132321542E0,1.889318700E-1,7.661670989E-1,-1.991805188E0,2.142427404E0
3.142376542E0,8.864558731E-1,-1.840878904E-2,-7.853407037E-1,1.184442029E0
3.152431542E0,1.071324805E0,-2.492580324E-1,-6.223305640E-1,1.263788644E0
3.162485542E0,9.661893828E-1,-4.296066284E-2,-9.500158381E-1,1.355690833E0
3.172540542E0,1.025414515E0,9.773468935E-1,-8.836335683E-1,1.669577839E0
3.182595542E0,8.847252434E-1,1.916768162E0,-1.296737015E-2,2.111138815E0
3.192650542E0,4.301507118E-1,1.781216839E0,1.373458624E0,2.290011278E0
3.202705542E0,2.175323559E-1,1.460944372E0,2.460287322E0,2.869615391E0
3.212759542E0,3.528019890E-2,1.543713464E0,3.320958874E0,3.662384987E0
3.222814542E0,-6.460603192E-2,1.548166704E0,3.715568455E0,4.025722671E0
3.232869542E0,-1.719527252E-1,1.391204047E0,3.826425524E0,4.075113340E0
3.242924542E0,-2.203776111E-1,1.481908979E0,2.866312422E0,3.234249127E0
3.252978542E0,-7.239725675E-1,1.183906803E0,2.437812087E0,2.805120205E0
3.263033542E0,-9.948353308E-1,-7.456597441E-1,2.878990062E0,3.135967087E0
3.273088542E0,1.033984340E0,-2.382267339E0,-3.938491505E-1,2.626678214E0
3.283143542E0,1.505719572E0,-4.652695568E0,-3.304066268E0,5.901832036E0
3.293198542E0,2.221216162E0,-5.693698760E0,-3.923380838E0,7.262570069E0
3.303252542E0,2.336267878E0,-4.407740502E0,-2.903450135E0,5.772031411E0
3.313307542E0,3.166183076E0,-3.538117447E0,-2.020733995E0,5.160073276E0
3.323362542E0,2.928187950E0,-2.176345945E0,-1.965639775E0,4.144213565E0
3.333417542E0,2.449176004E0,-1.187832624E0,-1.984750230E0,3.368774690E0
3.343471542E0,2.298875957E0,-7.311229813E-1,-1.503723772E0,2.842631995E0
3.353526542E0,2.044611977E0,-3.065835500E-1,-1.579691967E0,2.601895140E0
3.363581542E0,1.966367899E0,-8.408155775E-1,-1.140709328E0,2.423796881E0
3.373636542E0,2.929819908E0,1.317277699E0,3.546005341E0,4.784685894E0
3.383691542E0,3.748640015E0,2.845652747E0,4.822906262E0,6.738728836E0
3.393745542E0,1.036230840E0,-1.601049507E-1,2.642098599E0,2.842550431E0
3.403800542E0,9.448702884E-1,-1.434949991E0,3.686546677E-1,1.757204485E0
3.413855542E0,1.686556703E0,-1.235975674E0,-6.438082641E-1,2.187829623E0
3.423910542E0,2.984905942E0,-1.876698947E-1,-1.344288619E0,3.279023538E0
3.433964542E0,3.171915101E0,-5.587113959E-1,-9.591322321E-1,3.360526517E0
3.444019542E0,3.838084872E0,3.094498551E-1,2.576701585E0,4.633146421E0
3.454074542E0,3.688256696E0,1.454924664E0,2.018320557E0,4.449006754E0
3.464129542E0,2.320287584E0,1.701852581E0,1.145625521E0,3.097175247E0
3.474184542E0,1.515366016E0,2.289687204E0,1.800113286E0,3.283201105E0
3.484238542E0,9.893389481E-1,2.840967373E0,2.003808352E0,3.614572600E0
3.494293542E0,7.835735290E-1,3.532585981E0,1.770790669E0,4.028504782E0
3.504348542E0,6.961257876E-1,3.739087418E0,2.178097771E0,4.382861592E0
3.514403542E0,9.564100608E-1,3.691189367E0,2.662650685E0,4.650731965E0
3.524457542E0,1.381277082E0,3.220759233E0,2.898984616E0,4.548112600E0
3.534512542E0,1.688159571E0,2.406371316E0,2.480024014E0,3.845910133E0
3.544567542E0,1.592261288E0,2.371904318E0,1.314635635E0,3.144756422E0
3.554622542E0,1.150963590E0,5.166126126E-1,1.695231486E0,2.113152992E0
3.564677542E0,2.580452866E0,-2.037433058E0,1.855360703E0,3.775213080E0
3.574731542E0,3.423474306E0,-2.733845213E0,1.237918119E0,4.552639590E0
3.584786542E0,1.194156534E0,-3.889188368E0,1.375885219E0,4.294747504E0
3.594841542E0,-8.730653107E-1,-5.986516210E0,1.610715539E0,6.260592936E0
3.604896542E0,-1.312254064E-1,-2.897076670E0,-1.007849186E0,3.070184574E0
3.614950542E0,-1.090378835E0,-1.734662477E0,-1.430558439E0,2.498895228E0
3.625005542E0,-1.428168682E0,-1.689749429E0,-2.493044593E0,3.333195203E0
3.635060542E0,-1.542941778E0,-1.519450443E0,-3.536091679E0,4.146485661E0
3.645115542E0,-1.569431419E0,-1.139966732E0,-3.514543812E0,4.014306582E0
3.655170542E0,-1.280980962E0,-6.062089133E-1,-3.047486937E0,3.360889481E0
3.665224542E0,-1.550778362E0,-5.217260027E-1,-2.284593109E0,2.810067121E0
3.675279542E0,-1.733564663E0,-4.490076900E-1,-1.452609313E0,2.305846517E0
3.685334542E0,-1.645555589E0,1.279329854E-1,-9.191621277E-1,1.889200641E0
3.695389542E0,-1.964745882E0,1.676022506E-1,-3.898797682E-1,2.010055504E0
3.705443542E0,-2.765989989E0,-2.573201734E-1,3.993588357E-1,2.806492788E0
3.715498542E0,-3.679198189E0,-8.165964103E-1,1.269673616E0,3.976858069E0
3.725553542E0,-3.907968747E0,-7.592860955E-1,2.113427566E0,4.507250956E0
3.735608542E0,-2.860713421E0,-3.074068379E-1,2.307040570E0,3.687901359E0
3.745663542E0,-2.968843056E0,-4.669288212E-1,1.676772704E0,3.441455842E0
3.755717542E0,-3.969387608E0,-1.076784058E0,1.177190399E0,4.277999430E0
3.765772542E0,-4.201492249E0,-1.279250917E0,3.278867692E0,5.480875237E0
3.775827542E0,-3.537902562E0,-4.946592414E-1,3.907577861E0,5.294393926E0
3.785882542E0,-2.717137379E0,5.157174039E-1,3.315492312E0,4.317555935E0
3.795936542E0,-1.992379238E0,1.071595239E0,2.949583497E0,3.717248201E0
3.805991542E0,-1.192207876E0,1.640956169E0,3.202624093E0,3.790896708E0
3.816046542E0,-6.397105354E-1,1.650275461E0,3.765650150E0,4.160860454E0
3.826101542E0,-3.777573207E-1,1.203904281E0,3.689138456E0,3.898952251E0
3.836156542E0,-2.913261178E-1,1.400818039E0,2.178757044E0,2.606557949E0
3.846210542E0,9.174237505E-2,2.201483125E0,2.951292931E-1,2.223071279E0
3.856265542E0,1.439604228E-1,1.741368649E0,-9.482768762E-1,1.988043865E0
3.866320542E0,7.913933759E-1,1.609455464E0,-1.783881415E0,2.529601405E0
3.876375542E0,1.651362751E0,1.461250182E0,-2.056682969E0,3.015326825E0
3.886429542E0,2.079278949E0,1.371593655E0,-1.471026142E0,2.892851191E0
3.896484542E0,2.311629465E0,1.496731086E0,-1.129090618E0,2.976353533E0
3.906539542E0,2.240358923E0,1.087206135E0,-7.401651156E-1,2.597897166E0
3.916594542E0,1.971022137E0,5.121248746E-1,-3.589661238E-1,2.067862865E0
3.926649542E0,1.681397851E0,-5.240157723E-2,-4.526738942E-2,1.682823162E0
3.936703542E0,1.319464704E0,-4.806674391E-1,2.083971047E-1,1.419668146E0
3.946758542E0,9.498681960E-1,-5.473929405E-1,3.392917049E-1,1.147609464E0
3.956813542E0,6.635646171E-1,-2.737742382E-1,4.639471798E-1,8.547030597E-1
3.966868542E0,4.560372126E-1,4.001161963E-1,2.524903733E-1,6.571257858E-1
3.976922542E0,1.754012668E-1,9.452433407E-1,-1.826947913E-1,9.785846741E-1
3.986977542E0,1.380022562E-1,1.159023392E0,-8.380755723E-2,1.170215174E0
3.997032542E0,3.541768521E-1,1.138116088E0,4.264643347E-1,1.265946800E0
4.007087542E0,5.923681153E-1,9.964035541E-1,9.716633999E-1,1.512563979E0
4.017142542E0,7.369864961E-1,7.695181382E-1,1.397631891E0,1.757464697E0
4.027196542E0,9.130300064E-1,6.193762583E-1,1.637257805E0,1.974300854E0
4.037251417E0,1.113308764E0,5.038914102E-1,1.554229535E0,1.977117196E0
4.047306417E0,1.214854654E0,5.004281044E-1,1.679113344E0,2.132069825E0
4.057361417E0,1.487890681E0,6.404771054E-1,1.682032274E0,2.335222082E0
4.067415417E0,2.095410979E0,9.124983484E-1,1.448238811E0,2.705696964E0
4.077470417E0,1.728832365E0,3.964546698E-1,6.079788655E-3,1.773717738E0
4.087525417E0,4.040089436E-1,2.069762313E-1,1.530619063E0,1.596514047E0
4.097580417E0,4.683619738E-2,7.394453233E-1,1.984746575E0,2.118535339E0
4.107635417E0,-2.746856730E-1,1.034627972E0,6.190024750E-1,1.236556236E0
4.117689417E0,-5.383832948E-1,1.638239552E0,9.453531222E-1,1.966565008E0
4.127744417E0,-9.781267659E-1,2.554120515E0,1.820307084E0,3.285389087E0
4.137799417E0,-1.139424402E0,2.505872215E0,2.933137034E0,4.022558438E0
4.147854417E0,-1.359437732E0,1.924257275E0,3.897865051E0,4.554578901E0
4.157908417E0,-1.719486029E0,8.870693922E-1,4.344625656E0,4.755974811E0
4.167963417E0,-1.712766409E0,-4.200476003E-1,4.854002924E0,5.164431541E0
4.178018417E0,-1.453148572E0,-1.577455992E0,5.091944255E0,5.525206284E0
4.188073417E0,-1.056191042E0,-2.061907164E0,4.818955298E0,5.346899179E0
4.198128417E0,-3.351199358E-1,-2.002569619E0,4.396631377E0,4.842825406E0
4.208182417E0,6.522101283E-1,-1.307454377E0,4.482084925E0,4.714223189E0
4.218237417E0,1.254216063E0,-5.335765547E-1,4.507943067E0,4.709491753E0
4.228292417E0,1.969903564E0,8.134453458E-1,3.836606696E0,4.388822658E0
4.238347417E0,2.477471996E0,1.994142027E0,3.824445657E0,4.974017944E0
4.248401417E0,2.785480805E0,2.621787418E0,4.026855798E0,5.554119210E0
4.258456417E0,3.066987401E0,3.077352760E0,3.533239700E0,5.600026295E0
4.268511417E0,3.305694425E0,2.875961789E0,2.289790699E0,4.943876343E0
4.278566417E0,3.050264949E0,2.004567613E0,1.812503097E0,4.075239263E0
4.288621417E0,2.426747108E0,1.034738485E0,1.596600945E0,3.083653650E0
4.298675417E0,1.536524312E0,8.924956083E-2,1.523678126E0,2.165748711E0
4.308730417E0,2.717556698E-1,-1.115517769E0,7.866498953E-1,1.391779111E0
4.318785417E0,-1.309186907E0,-2.556183997E0,7.230988473E-2,2.872851494E0
4.328840417E0,-2.743560362E0,-3.952966872E0,-1.425551176E-1,4.813875000E0
4.338894417E0,-3.680502118E0,-4.846110937E0,-1.741089444E0,6.329477033E0
4.348949417E0,-4.060151598E0,-4.995905492E0,-2.734729897E0,6.994472839E0
4.359004417E0,-4.223690911E0,-4.966267126E0,-3.285851899E0,7.300698376E0
4.369059417E0,-3.974182617E0,-5.052274405E0,-3.766756735E0,7.450373175E0
4.379114417E0,-2.872956028E0,-4.873202841E0,-3.940345073E0,6.894077282E0
4.389168417E0,-1.530938029E0,-4.696040393E0,-3.871889673E0,6.275993647E0
4.399223417E0,-9.814284693E-2,-4.745922990E0,-2.929240157E0,5.577980364E0
4.409278417E0,1.098243778E0,-4.798010572E0,-2.737358805E0,5.632066945E0
4.419333417E0,2.420019886E0,-4.208064519E0,-2.282054248E0,5.363960742E0
4.429387417E0,2.878293367E0,-3.474747663E0,-2.296103646E0,5.062660958E0
4.439442417E0,2.402653364E0,-2.705394416E0,-3.679220993E0,5.160287710E0
4.449497417E0,3.179910292E0,-1.875148265E0,-3.173658741E0,4.868276932E0
4.459552417E0,1.845630351E0,-1.608752629E0,-3.287623605E0,4.099134712E0
4.469607417E0,1.128283483E0,-9.231888127E-1,-3.503888724E0,3.795067508E0
4.479661417E0,1.489068749E0,1.628660059E-1,-4.135440931E0,4.398377288E0
4.489716417E0,2.173204236E0,8.634226674E-1,-4.097987761E0,4.718243216E0
4.499771417E0,2.326486802E0,1.037814705E0,-3.868451217E0,4.631901879E0
4.509826417E0,2.119588484E0,1.269150437E0,-2.872628292E0,3.788850944E0
4.519880417E0,1.675852644E0,1.864449030E0,-2.549611727E0,3.575635920E0
4.529935417E0,5.870434215E-1,2.316332381E0,-1.981546248E0,3.104277889E0
4.539990417E0,6.151931602E-1,2.842285920E0,-1.004498439E0,3.076697741E0
4.550045417E0,4.594182189E-1,2.443278356E0,-1.125402779E0,2.728956878E0
4.560100417E0,-1.198339559E0,1.464930419E0,-4.871049312E-1,1.954305515E0
4.570154417E0,-1.805879664E0,1.240304952E0,5.646603531E-1,2.262387909E0
4.580209417E0,-1.951410137E0,1.058051918E0,1.047299473E0,2.454447305E0
4.590264417E0,-2.027758547E0,8.946029449E-1,1.096053557E0,2.472539698E0
4.600319417E0,-2.214524463E0,9.561530757E-1,3.586179221E-1,2.438637758E0
4.610373417E0,-2.372541957E0,8.638278794E-1,-9.547886279E-1,2.699402761E0
4.620428417E0,-2.323982878E0,7.250062090E-1,-2.044302659E0,3.178946961E0
4.630483417E0,-2.239917020E0,8.349356174E-1,-2.455919452E0,3.427227173E0
4.640538417E0,-1.873883220E0,1.170683325E0,-2.214390269E0,3.128172315E0
4.650593417E0,-1.345542847E0,1.580755575E0,-1.468051663E0,2.542528157E0
4.660647417E0,-7.018359592E-1,1.986114385E0,-4.305784357E-1,2.150028338E0
4.670702417E0,-1.568577725E-1,2.239018741E0,6.999763253E-1,2.351122315E0
4.680757417E0,3.820553166E-1,2.436582125E0,1.755104343E0,3.027092660E0
4.690812417E0,9.721731310E-1,2.584071708E0,2.319807966E0,3.606113723E0
4.700866417E0,1.559650781E0,2.642298281E0,2.191237634E0,3.770381033E0
4.710921417E0,2.508361375E0,2.910448083E0,2.162304149E0,4.408871064E0
4.720976417E0,3.707096424E0,3.093679356E0,2.433177291E0,5.406826018E0
4.731031417E0,4.814222562E0,2.964554708E0,2.770340610E0,6.296039277E0
4.741086417E0,4.919278901E0,2.082650161E0,3.187790877E0,6.220831719E0
4.751140417E0,5.652751293E0,1.095538418E0,3.777871707E0,6.886662199E0
4.761195417E0,5.888667734E0,-9.624926269E-2,3.900312696E0,7.063859478E0
4.771250417E0,5.528695012E0,-5.929176074E-1,3.148598160E0,6.389967934E0
4.781305417E0,5.614462556E0,-6.476949084E-1,2.248837386E0,6.082677706E0
4.791359417E0,5.846235659E0,-9.399048328E-1,1.406828976E0,6.086136726E0
4.801414417E0,5.332284114E0,-1.740614943E0,4.058830127E-1,5.623854130E0
4.811469417E0,4.675984736E0,-2.465283768E0,-4.190629292E-1,5.302647550E0
4.821524417E0,3.566219165E0,-3.635153160E0,-1.759665172E0,5.387826941E0
4.831578417E0,2.628812263E0,-5.673097265E0,-2.080329986E0,6.589572015E0
4.841633417E0,2.556724572E0,-7.947706838E0,-1.474629196E0,8.478054953E0
4.851688417E0,1.297132726E0,-1.029037917E1,-3.600914204E-1,1.037805968E1
4.861743417E0,-1.017270147E0,-1.061279464E1,2.144542354E-1,1.066359411E1
4.871798417E0,-3.824010040E0,-7.970953614E0,-9.477792782E-1,8.891425074E0
4.881852417E0,-5.230444329E0,-2.833682912E0,-2.880212423E0,6.609306342E0
4.891907417E0,-4.141078232E0,2.114392941E0,-2.427189742E0,5.245039226E0
4.901962417E0,-3.265878688E0,4.535033802E0,2.175035584E-1,5.592834968E0
4.912017417E0,-2.664795443E0,5.032692665E0,1.527095677E0,5.895858837E0
4.922071417E0,-2.109106620E0,5.215302379E0,2.255518414E0,6.060946540E0
4.932126417E0,-1.960946507E0,5.107071002E0,2.311913055E0,5.939059471E0
4.942181417E0,-2.105047044E0,4.613522147E0,1.518423087E0,5.293526077E0
4.952236417E0,-2.133877618E0,3.656821187E0,5.891733429E-1,4.274681288E0
4.962291417E0,-1.810528639E0,2.434857781E0,2.971192467E-1,3.048741742E0
4.972345417E0,-1.274057274E0,9.939968401E-1,4.099900970E-1,1.667136328E0
4.982400417E0,-9.970368075E-1,-4.042063236E-1,3.577314842E-1,1.133771124E0
4.992455417E0,-7.408683895E-1,-1.667108425E0,-8.115876853E-2,1.826122454E0
5.002510417E0,-4.065452830E-1,-3.175721054E0,-3.437221402E-1,3.220035433E0
5.012564417E0,-7.663413459E-1,-4.606549927E0,-1.762091181E0,4.991247000E0
5.022619417E0,-9.752552714E-1,-5.131773734E0,-3.546262034E0,6.313651789E0
5.032674167E0,-1.951708053E0,-4.675866914E0,-5.128560104E0,7.209370601E0
5.042729167E0,-2.675467197E0,-3.056290505E0,-5.579893817E0,6.901757122E0
5.052784167E0,-2.679668714E0,-1.154487707E0,-4.560276232E0,5.413832800E0
5.062838167E0,-1.900574298E0,2.697080845E-1,-1.675973389E0,2.548295884E0
5.072893167E0,-1.775756124E0,1.087359917E0,1.397405019E0,2.507668676E0
5.082948167E0,-1.565965774E0,2.184348444E0,2.305443696E0,3.541002339E0
5.093003167E0,-1.294936511E0,3.016123057E0,1.834483804E0,3.760211389E0
5.103057167E0,-1.661866250E0,2.564370684E0,3.225037933E0,4.442821863E0
5.113112167E0,-1.344653632E0,2.025298331E0,3.082821369E0,3.926030351E0
5.123167167E0,-1.820981998E0,1.872464978E0,2.353248192E0,3.515661757E0
5.133222167E0,-2.628010025E0,9.876251292E-1,1.066329237E0,3.003148036E0
5.143277167E0,-2.942593735E0,-3.530560505E-1,-3.630600518E-1,2.985853156E0
5.153331167E0,-2.331461613E0,-9.986892307E-1,-1.179409417E0,2.797159274E0
5.163386167E0,-1.244872359E0,-6.906234115E-1,-2.811245391E0,3.151153525E0
5.173441167E0,-3.894969583E-1,-5.098584938E-1,-2.064088760E0,2.161510114E0
5.183496167E0,-2.142789834E-1,-4.561027014E-1,-7.622085339E-1,9.137324587E-1
5.193550167E0,-6.113139711E-2,-3.753128922E-1,-1.027121902E-2,3.803975719E-1
5.203605167E0,1.008100544E-1,-2.251885539E-1,-3.153877026E-1,4.004272154E-1
5.213660167E0,-2.477478428E-1,-1.675525492E-1,8.331551403E-1,8.852120301E-1
5.223715167E0,-4.737179502E-1,-1.624578702E-1,1.336518547E0,1.427264195E0
5.233769167E0,-1.272831040E-1,-9.110254347E-2,-6.370228627E-1,6.559716378E-1
5.243824167E0,3.391868205E-1,1.488549078E-1,-5.288979051E-1,6.457077332E-1
5.253879167E0,6.970802725E-1,3.797082442E-1,6.981587183E-1,1.057130481E0
5.263934167E0,1.057328910E0,6.098388648E-1,8.142496303E-1,1.467259461E0
5.273989167E0,1.436692461E0,7.442049569E-1,9.299376690E-1,1.866202109E0
5.284043167E0,1.734201424E0,1.002700421E0,1.667579711E0,2.606469798E0
5.294098167E0,1.833411132E0,1.433540812E0,2.750248407E0,3.602818610E0
5.304153167E0,1.980884782E0,2.117813562E0,3.567520463E0,4.597416781E0
5.314208167E0,2.183337168E0,2.912868830E0,3.498317204E0,5.048761162E0
5.324262167E0,2.549894148E0,3.869987866E0,2.847310725E0,5.439296334E0
5.334317167E0,2.815199571E0,4.768352324E0,2.788815764E0,6.200002087E0
5.344372167E0,2.740425962E0,5.383674123E0,2.827203028E0,6.669854457E0
5.354427167E0,2.504159566E0,5.560192208E0,2.719976202E0,6.677186763E0
5.364482167E0,1.878316287E0,4.968569174E0,3.205696220E0,6.204130880E0
5.374536167E0,1.161159746E0,3.722370229E0,3.250213997E0,5.076241040E0
5.384591167E0,2.722912382E-1,2.618708859E0,3.416901158E0,4.313582285E0
5.394646167E0,-3.693747523E-1,1.985468853E0,3.942770498E0,4.429894296E0
5.404701167E0,-3.569675089E-1,1.839284953E0,4.550628911E0,4.921241553E0
5.414755167E0,1.453423757E-1,1.785256096E0,5.054527338E0,5.362509705E0
5.424810167E0,6.428322177E-1,1.623323305E0,5.245683342E0,5.528616965E0
5.434865167E0,9.516233839E-1,1.427284876E0,4.809383406E0,5.106162740E0
5.444920167E0,1.236172725E0,1.017454115E0,3.512614231E0,3.860284267E0
5.454975167E0,1.486737902E0,5.354459095E-1,2.046448880E0,2.585545384E0
5.465029167E0,1.176689073E0,-1.082565200E-1,2.070820659E0,2.384243036E0
5.475084167E0,3.384327489E-1,-6.379183638E-1,1.883755367E0,2.017426788E0
5.485139167E0,-2.186704434E-1,-1.382827910E0,1.656990404E0,2.169250329E0
5.495194167E0,-6.135201256E-1,-2.028706089E0,6.780400573E-1,2.225262604E0
5.505248167E0,-1.116716740E0,-3.197587886E0,-1.247090061E0,3.609273915E0
5.515303167E0,-1.101910202E0,-5.021599912E0,-2.416756555E0,5.680790792E0
5.525358167E0,-1.298759860E0,-7.515025744E0,-3.118612468E0,8.239425516E0
5.535413167E0,-1.816702714E0,-1.003102826E1,-3.904273307E0,1.091628539E1
5.545467167E0,-1.870334691E0,-1.145048547E1,-3.878118127E0,1.223321583E1
5.555522167E0,-1.644748088E0,-1.166975605E1,-4.162850924E0,1.249870915E1
5.565577167E0,-7.206073487E-1,-1.064389247E1,-4.299429603E0,1.150203534E1
5.575632167E0,1.111472957E0,-9.255841831E0,-4.033474846E0,1.015750459E1
5.585687167E0,2.266119855E0,-8.014745750E0,-3.671681301E0,9.102345424E0
5.595741167E0,4.384984016E0,-5.518916128E0,-3.172460647E0,7.729878822E0
5.605796167E0,5.046498526E0,-3.555509405E0,-3.418662924E0,7.056631682E0
5.615851167E0,4.730873426E0,-2.571538786E0,-3.582302517E0,6.467369359E0
5.625906167E0,6.624296579E0,-7.109483331E-1,-3.839777641E0,7.689645313E0
5.635960167E0,5.789291965E0,2.581159794E-1,-4.611278570E0,7.405836574E0
5.646015167E0,4.535457725E0,8.712216836E-1,-5.853683842E0,7.456206711E0
5.656070167E0,3.532864601E0,1.400371311E0,-6.530969755E0,7.556172182E0
5.666125167E0,1.784727653E0,1.669627406E0,-6.990108916E0,7.405034174E0
5.676180167E0,-1.343587831E-1,2.026318086E0,-5.732980939E0,6.082029901E0
5.686234167E0,-8.318257758E-1,2.584464641E0,-4.457515510E0,5.219275440E0
5.696289167E0,-1.204980241E0,2.701544609E0,-2.228076262E0,3.703328838E0
5.706344167E0,-1.714119162E0,2.767023484E0,-3.782139882E-1,3.276838306E0
5.716399167E0,-2.009404430E0,2.804326381E0,5.342027915E-1,3.491034981E0
5.726453167E0,-2.443880035E0,2.853031933E0,1.030535506E0,3.895426070E0
5.736508167E0,-2.927929796E0,3.011623625E0,6.697634697E-1,4.253378992E0
5.746563167E0,-2.969951688E0,2.984382032E0,6.371564716E-1,4.258299838E0
5.756618167E0,-3.141031862E0,2.668805464E0,4.765246868E-1,4.149178177E0
5.766672167E0,-3.364403687E0,2.258850743E0,1.232528740E-1,4.054233604E0
5.776727167E0,-3.382758681E0,1.949587998E0,-2.438142747E-1,3.911955401E0
5.786782167E0,-3.476281095E0,1.711113401E0,-6.255439013E-1,3.924760438E0
5.796837167E0,-3.491548760E0,1.751093153E0,-7.891063106E-1,3.984962828E0
5.806892167E0,-3.314340703E0,1.944962851E0,-7.557625633E-1,3.916492288E0
5.816946167E0,-2.857503591E0,2.014962208E0,-6.549244058E-1,3.557291871E0
5.827001167E0,-2.086797591E0,2.137830920E0,-5.123932618E-1,3.031104103E0
5.837056167E0,-1.092756020E0,2.232154695E0,-1.254140049E-1,2.488445092E0
5.847111167E0,4.963357843E-2,2.079962196E0,3.960862952E-1,2.117921288E0
5.857165167E0,1.241955183E0,1.693979890E0,7.488827294E-1,2.229987867E0
5.867220167E0,2.777186530E0,1.442156684E0,1.054534233E0,3.302214919E0
5.877275167E0,4.305398148E0,1.300023150E0,1.697682931E0,4.807144760E0
5.887330167E0,5.855157925E0,9.479897779E-1,2.420106425E0,6.406127852E0
5.897385167E0,7.325717459E0,4.146669924E-1,2.744429843E0,7.833899423E0
5.907439167E0,7.673135625E0,-2.789279741E-1,2.309149661E0,8.017916393E0
5.917494167E0,8.109468890E0,-4.956363112E-1,1.698118549E0,8.300165519E0
5.927549167E0,7.191411594E0,-2.472904444E-2,6.353911972E-1,7.219469108E0
5.937604167E0,5.408720672E0,1.727881461E-1,1.522767861E0,5.621648958E0
5.947658167E0,4.417791865E0,-1.602347589E-1,3.737305187E0,5.788783137E0
5.957713167E0,3.831327830E0,-7.141602087E-1,5.192389480E0,6.492303617E0
5.967768167E0,3.250438822E0,-1.250907708E0,5.434686402E0,6.454915872E0
5.977823167E0,2.343599994E0,-1.926355256E0,3.715816085E0,4.796935968E0
5.987878167E0,1.603858948E0,-2.701135304E0,4.575647977E-1,3.174564694E0
5.997932167E0,1.495347635E0,-3.356504683E0,-2.902266366E0,4.682450031E0
6.007987167E0,1.568557699E0,-3.857870096E0,-4.620252000E0,6.220149795E0
6.018042167E0,9.903578255E-1,-4.407443463E0,-4.315557978E0,6.247432045E0
6.028097167E0,3.909616493E-2,-4.865987377E0,-2.949992802E0,5.690502543E0
6.038150917E0,-8.475745203E-1,-5.150622818E0,-1.560321311E0,5.448109817E0
6.048205917E0,-1.441110617E0,-5.249417959E0,-9.420244485E-2,5.444452481E0
6.058260917E0,-2.748447465E0,-4.967941768E0,5.127388322E-1,5.700641191E0
6.068315917E0,-4.622632694E0,-3.878376866E0,-6.628301337E-1,6.070410523E0
6.078369917E0,-5.600910464E0,-1.642893936E0,-2.463272618E0,6.335377692E0
6.088424917E0,-4.801628244E0,9.937243599E-1,-2.296126158E0,5.414362126E0
6.098479917E0,-4.098422501E0,2.504893976E0,-4.259971422E-1,4.822140022E0
6.108534917E0,-3.419127193E0,3.108590925E0,9.263334453E-1,4.712946208E0
6.118589917E0,-2.720448950E0,3.229164020E0,1.369644193E0,4.438948972E0
6.128643917E0,-2.721204702E0,2.739636295E0,1.599264936E0,4.179498822E0
6.138698917E0,-2.409790475E0,2.360308705E0,1.261244124E0,3.601233685E0
6.148753917E0,-1.991284055E0,1.801867450E0,4.106058088E-1,2.716714123E0
6.158808917E0,-1.941835175E0,7.369731206E-1,-2.287793291E-1,2.089543780E0
6.168862917E0,-2.892038124E0,-8.465306461E-1,-6.053847483E-1,3.073595507E0
6.178917917E0,-3.229151741E0,-1.874612660E0,-8.754305094E-2,3.734870464E0
6.188972917E0,-3.008159442E0,-2.590210699E0,1.710275495E-1,3.973344324E0
6.199027917E0,-2.833016914E0,-2.815092859E0,-1.194361040E-1,3.995622308E0
6.209082917E0,-2.484826624E0,-2.320008525E0,-3.414107358E-1,3.416630533E0
6.219136917E0,-1.674081376E0,-1.371277320E0,-6.715421927E-1,2.265815275E0
6.229191917E0,-1.156546512E0,-4.072164702E-1,-1.055382664E0,1.617794071E0
6.239246917E0,-5.488812031E-1,6.954228061E-1,1.068344772E-1,8.923547837E-1
6.249301917E0,-7.519105639E-1,1.253060653E0,5.555863515E-1,1.563395884E0
6.259355917E0,-9.136327082E-1,1.725456036E0,5.151981711E-1,2.019245506E0
6.269410917E0,-7.170409857E-1,1.955249273E0,1.181256553E0,2.394267014E0
6.279465917E0,-6.707317686E-1,1.826420494E0,2.399464585E0,3.089194591E0
6.289520917E0,-6.451184790E-1,1.848431752E0,2.536982326E0,3.204552561E0
6.299574917E0,-6.924846534E-1,1.334809991E0,8.915986454E-1,1.748199317E0
6.309629917E0,-7.193599914E-1,4.250925779E-1,-1.168980031E0,1.436905289E0
6.319684917E0,-3.639463435E-1,1.250508928E-1,-1.402008532E0,1.453864708E0
6.329739917E0,-4.629754822E-1,-1.254590285E-1,1.713848144E-1,5.093712001E-1
6.339794917E0,-1.168066769E0,-6.311706769E-1,-1.002893671E0,1.663896666E0
6.349848917E0,-1.281645498E0,-9.817498469E-1,-3.505723287E0,3.859604088E0
6.359903917E0,-7.819865216E-1,-6.532503480E-1,-2.404287660E0,2.611290503E0
6.369958917E0,-1.365333260E-1,4.150470614E-2,1.189528316E-2,1.431973726E-1
6.380013917E0,9.108873674E-1,5.268528414E-1,6.756267652E-1,1.250504394E0
6.390067917E0,1.170079015E0,5.073611480E-1,-7.759255171E-2,1.277701389E0
6.400122917E0,8.870766281E-1,2.740005255E-1,-1.476910195E-1,9.401031164E-1
6.410177917E0,5.747127400E-1,-3.968505263E-3,-3.685801157E-1,6.827604150E-1
6.420232917E0,5.700178279E-1,-2.124001086E-1,-3.612579399E-1,7.074895260E-1
6.430287917E0,8.206201717E-1,-1.830383152E-1,-5.240333140E-2,8.424171177E-1
6.440341917E0,1.032543732E0,-2.468168199E-2,5.629547203E-1,1.176296630E0
6.450396917E0,1.061846396E0,1.095323825E-1,1.387682853E0,1.750765208E0
6.460451917E0,8.635392462E-1,6.333703995E-2,1.889498794E0,2.078441076E0
6.470506917E0,7.676305108E-1,2.858797288E-1,1.999909429E0,2.161162082E0
6.480560917E0,8.079164379E-1,9.788192225E-1,2.689317204E0,2.973759080E0
6.490615917E0,8.609894948E-1,1.769116611E0,3.310618658E0,3.851139103E0
6.500670917E0,1.145022819E0,2.953102936E0,3.833653268E0,4.972805203E0
6.510725917E0,1.367728060E0,3.818477989E0,4.319869714E0,5.925599425E0
6.520779917E0,1.572713753E0,4.265240348E0,4.550949338E0,6.432483475E0
6.530834917E0,1.462874538E0,4.140810429E0,4.687335643E0,6.423194560E0
6.540889917E0,1.317013405E0,3.541272020E0,4.635470840E0,5.980194122E0
6.550944917E0,9.944650559E-1,2.938949166E0,4.488448450E0,5.456423044E0
6.560999917E0,8.506323217E-1,2.803134134E0,3.718298228E0,4.733590395E0
6.571053917E0,1.105522977E0,3.029906114E0,2.912160147E0,4.345479126E0
6.581108917E0,1.533072993E0,3.404672291E0,2.988030109E0,4.782303854E0
6.591163917E0,1.485846787E0,3.106431549E0,3.868765213E0,5.179285850E0
6.601218917E0,1.409668677E0,2.785862043E0,4.479579393E0,5.460295289E0
6.611272917E0,1.342307583E0,2.692011309E0,4.677164996E0,5.560987946E0
6.621327917E0,1.697754560E0,2.698363139E0,3.957710719E0,5.082027972E0
6.631382917E0,2.283101192E0,2.707856094E0,3.090607229E0,4.700732786E0
6.641437917E0,2.249528819E0,2.414853871E0,2.747064598E0,4.293979860E0
6.651492917E0,1.242035436E0,1.339504720E0,3.166078995E0,3.655267586E0
6.661546917E0,1.970985482E-1,2.914842850E-1,3.438585557E0,3.456541850E0
6.671601917E0,-4.924941271E-1,-9.423448759E-1,3.846134734E0,3.990403078E0
6.681656917E0,-1.205201485E0,-2.360650767E0,2.541715062E0,3.672260628E0
6.691711917E0,-1.731645168E0,-3.626545474E0,1.099309579E0,4.166402359E0
6.701765917E0,-2.173659442E0,-5.327102312E0,-1.068522527E0,5.851884722E0
6.711820917E0,-2.358756123E0,-7.647585631E0,-3.334164811E0,8.669829953E0
6.721875917E0,-2.012607242E0,-9.340677329E0,-4.258745261E0,1.046115443E1
6.731930917E0,-2.265018678E0,-1.033612779E1,-5.354554989E0,1.185905166E1
6.741984917E0,-1.925057321E0,-1.044078593E1,-4.869562950E0,1.168026112E1
6.752039917E0,-9.046837639E-1,-9.473498002E0,-4.396990981E0,1.048327939E1
6.762094917E0,-4.912076666E-1,-8.326451461E0,-4.244436539E0,9.358756351E0
6.772149917E0,2.186537057E0,-6.538573474E0,-4.535713833E0,8.252671528E0
6.782204917E0,5.033818839E0,-4.922879031E0,-3.941345239E0,8.068969720E0
6.792258917E0,6.261744651E0,-3.496782310E0,-3.830375903E0,8.130726422E0
6.802313917E0,7.695949706E0,-1.837086400E0,-2.816315512E0,8.398461846E0
6.812368917E0,6.713152623E0,-1.186474316E0,-1.738508776E0,7.035378611E0
6.822423917E0,4.911587473E0,-1.002763571E0,-3.187020214E0,5.940229299E0
6.832477917E0,3.536524081E0,-5.599568528E-1,-3.477958369E0,4.991667924E0
6.842532917E0,2.497885503E0,1.049155964E0,-4.019432757E0,4.847267263E0
6.852587917E0,1.651110005E0,1.819076391E0,-3.756455403E0,4.488447433E0
6.862642917E0,4.369473691E-1,2.341078967E0,-3.958410630E0,4.619587476E0
6.872696917E0,-1.246012858E0,2.249206345E0,-3.433279209E0,4.289391956E0
6.882751917E0,-2.436799349E0,2.374145556E0,-2.613808308E0,4.290285778E0
6.892806917E0,-2.326300568E0,2.824584644E0,-1.791326675E0,4.074162982E0
6.902861917E0,-2.220434243E0,2.774051253E0,-9.062465054E-1,3.667011223E0
6.912916917E0,-2.494729469E0,2.571820037E0,-4.332690319E-1,3.609107296E0
6.922970917E0,-2.253398506E0,2.765458769E0,-4.220064175E-1,3.592165983E0
6.933025917E0,-1.918063320E0,2.645121317E0,-7.239461088E-1,3.346600013E0
6.943080917E0,-2.321206035E0,1.997196028E0,-5.667203271E-1,3.114155000E0
6.953135917E0,-3.181352507E0,1.141027417E0,-5.590335774E-1,3.425706625E0
6.963189917E0,-3.398035117E0,5.751227760E-1,-1.157924993E0,3.635684138E0
6.973244917E0,-3.520310336E0,1.801877975E-2,-1.394830490E0,3.786616119E0
6.983299917E0,-3.595159959E0,-2.167872745E-1,-1.338978471E0,3.842529792E0
6.993354917E0,-3.584228590E0,-3.549213123E-1,-1.070084319E0,3.757358669E0
7.003409917E0,-3.061198658E0,-1.233300573E-1,-8.822951406E-1,3.188195766E0
7.013463917E0,-2.239439741E0,2.954083514E-1,-7.267480946E-1,2.372871518E0
7.023518917E0,-1.385542772E0,6.373850977E-1,-5.450388515E-1,1.619585097E0
7.033574042E0,-2.726980582E-1,1.170261741E0,-3.753883213E-1,1.258885684E0
7.043629042E0,9.325367564E-1,1.470601049E0,-1.384503722E-1,1.746843082E0
7.053683042E0,2.209990824E0,1.697621536E0,-1.334334612E-2,2.786782439E0
7.063738042E0,3.933745028E0,2.008466536E0,2.468963420E-1,4.423714003E0
7.073793042E0,5.432282612E0,2.256594302E0,1.182904883E0,6.000098014E0
7.083848042E0,5.796991578E0,2.317425225E0,2.483706005E0,6.718955764E0
7.093903042E0,5.667891489E0,2.359376659E0,4.211643308E0,7.445105204E0
7.103957042E0,5.315805491E0,2.333843037E0,5.856457177E0,8.246375083E0
7.114012042E0,4.896802204E0,2.337870015E0,6.339402691E0,8.344599122E0
7.124067042E0,3.961269042E0,2.031486440E0,6.318210627E0,7.729060428E0
7.134122042E0,3.135510044E0,1.262627283E0,5.625211492E0,6.562671348E0
7.144176042E0,2.372938398E0,-1.685459912E-2,4.367155270E0,4.970227950E0
7.154231042E0,2.043194612E0,-1.083803641E0,2.465874336E0,3.380800319E0
7.164286042E0,2.354522008E0,-1.632532085E0,-1.853366802E0,3.412316427E0
7.174341042E0,2.706245478E0,-2.065409061E0,-4.593534025E0,5.717537408E0
7.184395042E0,3.134792299E0,-2.124718539E0,-4.712678645E0,6.045716801E0
7.194450042E0,3.535711318E0,-2.682927659E0,-4.840868908E0,6.567599800E0
7.204505042E0,2.955422234E0,-4.345701544E0,-4.647230760E0,7.015439846E0
7.214560042E0,1.883529957E0,-5.525405368E0,-3.356623966E0,6.733848382E0
7.224615042E0,1.116707093E0,-6.576144758E0,-9.918047190E-1,6.743618555E0
7.234669042E0,-8.349882424E-1,-8.417371572E0,-1.418078434E-1,8.459873463E0
7.244724042E0,-4.257372919E0,-8.620363510E0,-3.073708776E0,1.009373949E1
7.254779042E0,-7.093812209E0,-5.723036579E0,-6.571786829E0,1.123671222E1
7.264834042E0,-6.665904197E0,-1.978514759E0,-5.243855503E0,8.709007977E0
7.274888042E0,-5.160908071E0,5.321469104E-1,-1.851155093E0,5.508623025E0
7.284943042E0,-3.829604363E0,1.924198219E0,1.233418979E0,4.459790437E0
7.294998042E0,-3.663731719E0,2.250033141E0,2.585080060E0,5.016793614E0
7.305053042E0,-4.335906873E0,1.949033682E0,1.642406863E0,5.029544811E0
7.315108042E0,-4.766397893E0,1.446404686E0,1.408685760E0,5.176391693E0
7.325162042E0,-5.860049706E0,2.157692742E-1,5.296402091E-1,5.887890767E0
7.335217042E0,-6.449867705E0,-5.003544295E-1,7.879883230E-2,6.469726209E0
7.345272042E0,-7.175624111E0,-1.869663577E0,9.153251848E-1,7.471482013E0
7.355327042E0,-7.234219059E0,-3.221247475E0,1.637782885E0,8.086574891E0
7.365381042E0,-6.016337010E0,-3.001250664E0,3.191043683E0,7.442215822E0
7.375436042E0,-4.919456656E0,-2.646746843E0,3.760190312E0,6.733895887E0
7.385491042E0,-3.823125941E0,-1.563884604E0,3.498987587E0,5.413403841E0
7.395546042E0,-2.284887224E0,-9.042602062E-2,4.234080828E0,4.812102134E0
7.405600042E0,-1.229872935E0,1.095902115E0,3.635030369E0,3.990868910E0
7.415655042E0,-3.563890366E-1,1.617363238E0,2.122105418E0,2.691878229E0
7.425710042E0,5.533295455E-1,1.916523163E0,2.179515721E0,2.954576687E0
7.435765042E0,1.602889479E0,2.451303660E0,2.522861008E0,3.865614049E0
7.445820042E0,1.651610380E0,2.655022992E0,1.864412485E0,3.640466708E0
7.455874042E0,3.330354034E-1,1.729541486E0,-4.656488657E-1,1.821827434E0
7.465929042E0,-3.121753885E-1,1.001644998E0,-1.747240715E0,2.038037363E0
7.475984042E0,-2.638013003E-1,4.708563960E-1,-1.785536177E0,1.865324720E0
7.486039042E0,-4.719452206E-2,-3.843445015E-1,-2.347769936E0,2.379489796E0
7.496093042E0,2.556105572E-1,-6.910578597E-1,-2.801584037E0,2.896855336E0
7.506148042E0,1.264720586E0,-4.095500940E-1,-3.106605211E0,3.379089430E0
7.516203042E0,1.335473503E0,-3.031600052E-1,-6.662560174E-1,1.522922371E0
7.526258042E0,1.333738488E0,1.058474672E-1,-2.182563874E-1,1.355617163E0
7.536313042E0,1.603792582E0,5.282596815E-1,-7.152431130E-1,1.833788877E0
7.546367042E0,1.825475876E0,9.027668273E-1,-1.629006799E0,2.607875240E0
7.556422042E0,1.862581576E0,1.012968131E0,-2.300547237E0,3.128551127E0
7.566477042E0,1.883486980E0,9.158452946E-1,-2.004871376E0,2.899276641E0
7.576532042E0,1.913363767E0,7.305522931E-1,-1.154487122E0,2.351065306E0
7.586586042E0,2.154951568E0,2.995943731E-1,-4.751964918E-1,2.226967614E0
7.596641042E0,2.067779523E0,-8.689020932E-2,1.532297945E-1,2.075269002E0
7.606696042E0,1.842980978E0,-4.499718958E-1,9.560285300E-1,2.124392653E0
7.616751042E0,1.586408079E0,-5.791848367E-1,1.591913232E0,2.320847562E0
7.626806042E0,1.151641940E0,-6.687098014E-1,2.489515214E0,2.823320378E0
7.636860042E0,1.007809645E0,-3.123980212E-1,3.211849830E0,3.380717695E0
7.646915042E0,1.001991592E0,3.638915259E-1,3.493579790E0,3.652602352E0
7.656970042E0,9.647464362E-1,1.451599352E0,3.273312253E0,3.708429515E0
7.667025042E0,8.862876926E-1,2.567807093E0,3.378434080E0,4.335084310E0
7.677079042E0,5.895761430E-1,3.308405487E0,3.315893431E0,4.721048204E0
7.687134042E0,-9.309008516E-2,3.386433656E0,3.182194507E0,4.647898509E0
7.697189042E0,-1.007623265E0,2.749484176E0,3.711705492E0,4.727761155E0
7.707244042E0,-1.706579178E0,2.241058835E0,4.216947024E0,5.071232532E0
7.717299042E0,-1.825800104E0,2.250741824E0,3.766115003E0,4.752158141E0
7.727353042E0,-1.609082412E0,2.083061221E0,3.142386078E0,4.099131678E0
7.737408042E0,-1.024319843E0,1.596633689E0,2.826501946E0,3.404053985E0
7.747463042E0,-2.610801158E-1,1.439470473E0,3.736611122E0,4.012792139E0
7.757518042E0,4.484686498E-2,1.174959394E0,4.789416919E0,4.931638190E0
7.767572042E0,1.229982643E-1,1.026189855E0,5.617575613E0,5.711860464E0
7.777627042E0,3.103124656E-1,1.307849649E0,5.650259210E0,5.807942292E0
7.787682042E0,4.847673971E-1,1.754103885E0,4.746769667E0,5.083670144E0
7.797737042E0,1.063599025E0,2.512334558E0,3.570387061E0,4.493409794E0
7.807791042E0,2.074104456E0,3.431354306E0,1.947499227E0,4.457449372E0
7.817846042E0,3.017758816E0,4.031549942E0,9.181730711E-1,5.118916389E0
7.827901042E0,3.183078606E0,3.829167284E0,1.098586425E0,5.099157149E0
7.837956042E0,2.696864790E0,3.413834878E0,1.477153439E0,4.594489150E0
7.848011042E0,1.720811739E0,2.211917481E0,2.046920604E0,3.470397088E0
7.858065042E0,3.141121325E-1,5.658759892E-2,2.881873325E0,2.899493481E0
7.868120042E0,-2.042474527E0,-2.679554985E0,3.397001329E0,4.784489016E0
7.878175042E0,-3.850744971E0,-5.092227845E0,1.269073546E0,6.509191111E0
7.888230042E0,-4.035401503E0,-6.625504614E0,9.353463435E-1,7.813875445E0
7.898284042E0,-3.593474499E0,-7.757667652E0,-1.424837816E-1,8.550717397E0
7.908339042E0,-1.324181214E0,-7.992276070E0,-1.338161615E0,8.211005369E0
7.918394042E0,4.009317367E-1,-8.614390579E0,-4.064887843E0,9.533718293E0
7.928449042E0,2.567938947E0,-8.927380339E0,-7.500805315E0,1.193961936E1
7.938504042E0,2.863045582E0,-9.322605339E0,-6.382446969E0,1.165519754E1
7.948558042E0,2.581186399E0,-1.077996186E1,-3.994544669E0,1.178246528E1
7.958613042E0,3.295680192E0,-9.540448036E0,-4.649695947E0,1.111311518E1
7.968668042E0,3.558330394E0,-6.556996297E0,-5.787892141E0,9.442224900E0
7.978723042E0,4.119164329E0,-3.997090546E0,-6.508463237E0,8.677807403E0
7.988777042E0,4.287301893E0,-2.270252228E0,-7.077973856E0,8.580950798E0
7.998832042E0,4.672110663E0,-7.436412853E-1,-7.119103755E0,8.547704878E0
8.008887042E0,4.951660196E0,6.910344708E-1,-6.462576628E0,8.170762756E0
8.018942042E0,4.736142060E0,1.988755572E0,-6.042248361E0,7.930633997E0
8.028997042E0,2.937268091E0,2.183105911E0,-4.700929250E0,5.957535654E0
8.039051042E0,1.456073057E0,2.511606579E0,-1.842300947E0,3.438370128E0
8.049106042E0,2.015835636E-1,2.910574967E0,3.773632184E-1,2.941850705E0
8.059161042E0,-7.743823638E-1,3.098930156E0,1.857075984E0,3.694829815E0
8.069216042E0,-1.546329801E0,3.162263687E0,2.650315106E0,4.406270264E0
8.079270042E0,-2.381063105E0,3.496540820E0,3.080653221E0,5.233133238E0
8.089325042E0,-2.771066834E0,3.850484478E0,3.226810516E0,5.737364222E0
8.099380042E0,-2.664869118E0,3.629961417E0,2.871668764E0,5.340845326E0
8.109435042E0,-2.684942025E0,2.680713903E0,2.108410070E0,4.340568365E0
8.119489042E0,-2.789320672E0,1.739903337E0,-1.105720174E-1,3.289346379E0
8.129544042E0,-3.047282284E0,9.427740616E-1,-2.537618503E0,4.076059362E0
8.139599042E0,-3.606324048E0,7.481278539E-2,-4.396042854E0,5.686507089E0
8.149654042E0,-4.118083179E0,-5.768541366E-1,-4.717054117E0,6.288240557E0
8.159709042E0,-3.868265861E0,-5.493149203E-1,-3.681841715E0,5.368536678E0
8.169763042E0,-3.519450211E0,-2.137584168E-1,-2.390434729E0,4.259859228E0
8.179818042E0,-3.004191229E0,1.326797551E-1,-1.826322845E0,3.518270028E0
8.189873042E0,-2.355929140E0,6.276793045E-1,-1.357389598E0,2.790499946E0
8.199928042E0,-1.858363540E0,1.088507141E0,-8.584221286E-1,2.318458840E0
8.209982042E0,-1.219255341E0,1.640162117E0,-4.424348348E-1,2.091043744E0
8.220037042E0,-5.659507605E-1,2.182477920E0,-3.576905537E-1,2.282860632E0
8.230092042E0,5.407790087E-2,2.569503370E0,-3.776728284E-1,2.597673719E0
8.240147042E0,1.125528056E0,2.721769543E0,-2.452731550E-1,2.955503641E0
8.250202042E0,2.901189894E0,2.646643347E0,4.910023928E-2,3.927344477E0
8.260256042E0,4.870035405E0,2.660508265E0,4.190284306E-1,5.565171506E0
8.270311042E0,6.035263862E0,2.408335395E0,2.149185628E0,6.844230280E0
8.280366042E0,6.378154528E0,1.746519461E0,4.828484505E0,8.188128482E0
8.290421042E0,5.654240579E0,5.866628408E-1,7.452026088E0,9.372689189E0
8.300475042E0,4.113146083E0,-5.581927478E-1,8.746191498E0,9.681188747E0
8.310530042E0,2.110504543E0,-9.702840418E-1,6.734935255E0,7.124256694E0
8.320585042E0,5.624524444E-1,-1.401012751E0,3.701942689E0,3.997945616E0
8.330640042E0,4.919881602E-1,-2.271364954E0,9.103056425E-1,2.495958226E0
8.340695042E0,8.979825624E-1,-3.200311520E0,-7.430548096E-1,3.405950228E0
8.350749042E0,1.822318526E0,-3.654612109E0,-1.639385607E0,4.400524928E0
8.360804042E0,3.081821203E0,-4.118522598E0,-2.156132413E0,5.577522505E0
8.370859042E0,4.221287413E0,-4.825919332E0,-2.478861587E0,6.874119550E0
8.380914042E0,4.593135537E0,-5.393445990E0,-2.698740284E0,7.580854360E0
8.390968042E0,3.771522216E0,-5.556377485E0,-1.647872255E0,6.914708493E0
8.401023042E0,2.379257484E0,-5.574886846E0,-1.118344313E-1,6.062403522E0
8.411078042E0,7.440674742E-1,-5.844452258E0,5.383794576E-1,5.916173683E0
8.421133042E0,-1.412848100E0,-5.628998734E0,-1.818267721E-1,5.806447061E0
8.431187042E0,-4.337275998E0,-3.696521443E0,-2.006575547E0,6.041736446E0
8.441242042E0,-5.936486848E0,-4.462501431E-1,-3.068853248E0,6.697676877E0
8.451297042E0,-5.889711462E0,2.215270860E0,-2.710880858E0,6.851642220E0
8.461352042E0,-5.516698864E0,3.253186721E0,-1.456362494E0,6.567966345E0
8.471407042E0,-4.325709036E0,3.893652132E0,-3.270710242E-1,5.829173273E0
8.481461042E0,-2.971090141E0,4.143271523E0,5.509881011E-1,5.128124747E0
8.491516042E0,-1.881538687E0,3.590782734E0,4.200326899E-1,4.075577987E0
8.501571042E0,-1.648286531E0,2.219006646E0,-1.885826451E-1,2.770632129E0
8.511626042E0,-1.304007443E0,9.304481310E-1,-7.848372585E-1,1.783854999E0
8.521680042E0,-1.168408612E0,-2.526388925E-1,-1.254462231E0,1.732824452E0
8.531735042E0,-1.218261095E0,-1.390069102E0,-1.105078735E0,2.153520656E0
8.541790042E0,-1.552169269E0,-2.952521723E0,-2.976045656E-1,3.348907649E0
8.551845042E0,-1.953795947E0,-4.057578823E0,4.169857058E-1,4.522736073E0
8.561900042E0,-2.866829608E0,-3.862760707E0,-2.093724203E-1,4.814921504E0
8.571954042E0,-4.735850284E0,-3.269512732E0,-1.281256512E0,5.895728086E0
8.582009042E0,-5.562059809E0,-2.402143194E0,-9.451880845E-1,6.131898707E0
8.592064042E0,-4.554743889E0,-8.892007023E-1,-6.789976850E-1,4.690139405E0
8.602119042E0,-2.738200512E0,8.583887994E-1,2.144936749E0,3.582642465E0
8.612173042E0,-1.176869167E0,3.134581799E0,4.458263661E0,5.575548310E0
8.622228042E0,-6.157891376E-1,4.508600294E0,4.713395222E0,6.551546946E0
8.632283042E0,-9.333755395E-1,4.678118677E0,3.274446905E0,5.786016487E0
8.642338042E0,-1.127647233E0,3.835933682E0,3.770319444E0,5.495569506E0
8.652393042E0,-5.328001541E-1,3.510132673E0,3.690100615E0,5.120717717E0
8.662447042E0,-2.883320876E-1,2.343603795E0,1.933681525E0,3.052005632E0
8.672502042E0,-8.645126615E-2,3.423427820E-1,1.602280346E-1,3.877440198E-1
8.682557042E0,-4.572553338E-1,-7.916241217E-1,-3.297770863E0,3.422140245E0
8.692612042E0,-4.326282137E-1,-1.373420325E0,-4.770700859E0,4.983275754E0
8.702666042E0,3.358979078E-1,-1.280579989E0,-4.547419082E0,4.736215031E0
8.712721042E0,1.073329889E0,-6.455752927E-1,-2.465569989E0,2.765472813E0
8.722776042E0,1.079722138E0,-2.878753835E-1,-1.061018503E0,1.540919334E0
8.732831042E0,5.374721890E-1,-3.450915581E-1,-5.926018578E-1,8.712872656E-1
8.742886042E0,8.917936684E-2,-1.764742309E-1,-2.278344190E-1,3.016697468E-1
8.752940042E0,-9.545683706E-2,1.059907240E-1,-1.091181073E-1,1.795906530E-1
8.762995042E0,2.738612521E-1,3.673296887E-1,-1.147688565E-1,4.723377774E-1
8.773050042E0,8.694634990E-1,3.307957006E-1,3.245885888E-1,9.852666256E-1
8.783105042E0,1.225806416E0,-7.949757457E-2,7.869565818E-1,1.458842656E0
8.793159042E0,1.688449886E0,-4.077906668E-1,9.397074893E-1,1.974894025E0
8.803214042E0,1.737642072E0,-5.006760263E-1,7.653981900E-1,1.963647332E0
8.813269042E0,1.611218253E0,-4.622902250E-1,5.733095545E-1,1.771558737E0
8.823324042E0,1.530549920E0,-7.715225637E-2,7.188707256E-1,1.692722850E0
8.833379042E0,1.366764586E0,5.361282796E-1,9.713906273E-1,1.760420039E0
8.843433042E0,1.207677489E0,1.171075088E0,2.058022859E0,2.658074466E0
8.853488042E0,1.145281485E0,1.367855530E0,2.488408921E0,3.061842156E0
8.863543042E0,1.542395940E0,2.128561914E0,2.433375073E0,3.582049037E0
8.873598042E0,1.685984699E0,2.607000979E0,2.800461956E0,4.181098621E0
8.883652042E0,1.614534648E0,3.290893076E0,2.790090750E0,4.606658850E0
8.893707042E0,1.098087950E0,3.256334277E0,3.143310522E0,4.657242866E0
8.903762042E0,7.686995280E-1,2.612712539E0,4.901448401E0,5.607259777E0
8.913817042E0,6.168537694E-1,1.972652341E0,5.857096862E0,6.211074745E0
8.923871042E0,4.266568178E-1,1.876300752E0,5.209332957E0,5.553349476E0
8.933926042E0,3.038993491E-1,2.291241394E0,4.349111055E0,4.925130344E0
8.943981042E0,5.900158901E-1,2.281583548E0,3.909170058E0,4.564575859E0
8.954036042E0,1.065620335E0,1.754010329E0,4.045018419E0,4.535887228E0
8.964091042E0,1.129119270E0,1.417654511E0,4.107336874E0,4.489417650E0
8.974145042E0,1.056117221E0,1.676644650E0,3.913494658E0,4.386566004E0
8.984200042E0,1.295649725E0,2.202094159E0,3.411882493E0,4.262495635E0
8.994255042E0,1.793483274E0,2.959414421E0,2.722375315E0,4.402958474E0
9.004310042E0,2.136797863E0,3.742481727E0,1.663590156E0,4.619481225E0
9.014365042E0,2.098629286E0,4.130899399E0,1.628067151E0,4.911127913E0
9.024419042E0,1.469309838E0,3.665165164E0,2.811544769E0,4.847379814E0
9.034474542E0,4.327646365E-1,2.311986145E0,3.448607685E0,4.174381407E0
9.044529542E0,-9.619042508E-1,-2.043438148E-1,4.018198410E0,4.136778293E0
9.054584542E0,-2.105305491E0,-2.719893172E0,4.508775710E0,5.670907201E0
9.064638542E0,-3.464928141E0,-5.289298893E0,2.613473847E0,6.841977445E0
9.074693542E0,-4.411220180E0,-7.509985444E0,1.257266555E0,8.799969547E0
9.084748542E0,-3.995197510E0,-8.622446288E0,6.824928582E-2,9.503306851E0
9.094803542E0,-2.704683687E0,-8.886839254E0,-2.988815390E0,9.758290998E0
9.104857542E0,-1.819738003E0,-9.262826915E0,-6.425492417E0,1.141921020E1
9.114912542E0,-1.654736887E0,-9.813343438E0,-7.772983264E0,1.262771287E1
9.124967542E0,-2.383459294E0,-1.005580408E1,-7.175273863E0,1.258112193E1
9.135022542E0,-6.221827756E-1,-8.704611363E0,-6.344869838E0,1.078956643E1
9.145077542E0,2.761909802E0,-6.145385644E0,-5.329993175E0,8.590851978E0
9.155131542E0,4.866125079E0,-4.109471108E0,-4.086872789E0,7.567658506E0
9.165186542E0,4.401118530E0,-3.162386479E0,-4.322069437E0,6.931869645E0
9.175241542E0,4.218832167E0,-1.467156454E0,-4.710563123E0,6.491571292E0
9.185296542E0,4.773052024E0,3.036587727E-1,-4.299706761E0,6.431307216E0
9.195350542E0,4.740373690E0,1.387653617E0,-3.405412549E0,5.999463302E0
9.205405542E0,3.841464271E0,2.380568138E0,-2.942546373E0,5.392822226E0
9.215460542E0,2.599973795E0,2.840910071E0,-2.025862588E0,4.351408162E0
9.225515542E0,1.441775445E0,2.758208222E0,-1.618327152E0,3.507907040E0
9.235570542E0,-3.750238936E-1,2.563302982E0,-1.644815916E0,3.068645385E0
9.245624542E0,-9.136375321E-1,3.424898980E0,-1.276631657E0,3.767552912E0
9.255679542E0,-1.712943287E0,3.386069375E0,9.470822901E-2,3.795867511E0
9.265734542E0,-2.799313271E0,2.558111240E0,1.060559789E0,3.937623010E0
9.275789542E0,-2.977443725E0,2.080869684E0,9.953835073E-1,3.766427765E0
9.285843542E0,-2.497182668E0,1.876594867E0,5.580810660E-1,3.173166249E0
9.295898542E0,-2.152070937E0,1.541932987E0,-2.690344852E-1,2.661079895E0
9.305953542E0,-2.816776857E0,7.771230268E-1,-1.036152926E0,3.100284656E0
9.316008542E0,-3.341356886E0,2.804640377E-1,-2.228905397E0,4.026331480E0
9.326062542E0,-3.986231098E0,-4.906503904E-1,-3.039687628E0,5.036911459E0
9.336117542E0,-3.978961839E0,-5.798935193E-1,-2.766943377E0,4.881023403E0
9.346172542E0,-3.933434833E0,-2.964982724E-1,-2.234117020E0,4.533332072E0
9.356227542E0,-3.877305364E0,-1.225067693E-1,-1.738333359E0,4.250918449E0
9.366282542E0,-3.362329971E0,3.669034266E-1,-1.410058393E0,3.664443428E0
9.376336542E0,-2.554172263E0,9.303458047E-1,-1.255069172E0,2.994083815E0
9.386391542E0,-1.496139641E0,1.226175156E0,-5.303886527E-1,2.005804442E0
9.396446542E0,-2.902908683E-2,1.574514257E0,3.102877611E-1,1.605059603E0
9.406501542E0,1.381813272E0,1.942621626E0,2.988152316E-1,2.402598019E0
9.416555542E0,2.539663274E0,2.210328208E0,-1.819653511E-2,3.366863741E0
9.426610542E0,3.562125237E0,2.263803919E0,-1.784380183E-1,4.224379779E0
9.436665542E0,4.421046133E0,2.173025311E0,7.120622277E-2,4.926739108E0
9.446720542E0,4.977486178E0,2.378378356E0,8.038617593E-1,5.574786631E0
9.456775542E0,5.098740474E0,2.281141498E0,2.278867224E0,6.032743719E0
9.466829542E0,5.441603073E0,2.245420858E0,4.430972951E0,7.367935948E0
9.476884542E0,5.325642262E0,2.454194523E0,5.869557863E0,8.296821426E0
9.486939542E0,4.463457158E0,1.894136513E0,6.658806846E0,8.237105775E0
9.496994542E0,4.172819257E0,8.543951511E-1,6.537202302E0,7.802398706E0
9.507048542E0,3.679830858E0,-7.459649688E-1,6.128571391E0,7.187280860E0
9.517103542E0,2.511567988E0,-2.604098421E0,5.018311438E0,6.186497558E0
9.527158542E0,1.527987962E0,-3.572727701E0,3.281060983E0,5.085714464E0
9.537213542E0,1.696912707E0,-3.981836330E0,-2.016761981E0,4.775129546E0
9.547268542E0,3.577745197E0,-3.948381486E0,-6.486906892E0,8.394637460E0
9.557322542E0,4.150214506E0,-4.318224893E0,-7.382316753E0,9.506310920E0
9.567377542E0,3.521231858E0,-4.872174316E0,-6.412201695E0,8.789396279E0
9.577432542E0,2.477885394E0,-5.154184942E0,-4.584165908E0,7.329400761E0
9.587487542E0,1.277951666E0,-5.194621362E0,-1.721009521E0,5.619530703E0
9.597541542E0,-2.159113616E-1,-5.408967424E0,5.155680075E-1,5.437771297E0
9.607596542E0,-2.757498955E0,-5.144366298E0,-3.601861453E-1,5.847908955E0
9.617651542E0,-6.284366359E0,-4.341086921E0,-1.512268600E0,7.786221966E0
9.627706542E0,-6.993036616E0,-2.465795984E0,-1.378122656E0,7.542011204E0
9.637761542E0,-6.066865139E0,-6.418389219E-1,-1.687521055E-1,6.103055554E0
9.647815542E0,-5.053394732E0,5.421854103E-1,1.091803801E-1,5.083569975E0
9.657870542E0,-4.150348992E0,1.225407416E0,-9.541515738E-2,4.328524477E0
9.667925542E0,-4.085241123E0,1.453303231E0,-2.230005258E-1,4.341775507E0
9.677980542E0,-5.049750747E0,7.510263187E-1,-8.209487852E-1,5.170878073E0
9.688034542E0,-5.651307031E0,1.993567246E-1,-7.851796129E-1,5.709073593E0
9.698089542E0,-7.121882937E0,-9.809522867E-1,5.270104238E-1,7.208413414E0
9.708144542E0,-8.008086357E0,-1.729267251E0,8.501494879E-1,8.236659910E0
9.718199542E0,-8.292007853E0,-2.168319472E0,1.922224199E0,8.783732090E0
9.728254542E0,-7.432572986E0,-2.615495814E0,3.667742032E0,8.691161669E0
9.738308542E0,-4.661724839E0,-1.867795392E0,4.685573585E0,6.868401409E0
9.748363542E0,-2.740946949E0,-4.825671995E-1,3.872251615E0,4.768646962E0
9.758418542E0,-1.686926540E0,1.218858535E0,3.081424177E0,3.718401839E0
9.768473542E0,-5.031216243E-1,2.050513864E0,3.622441898E0,4.192830044E0
9.778527542E0,-1.147910759E-1,2.750526735E0,4.477338740E0,5.255961996E0
9.788582542E0,6.537362516E-2,3.661532874E0,4.304404998E0,5.651459907E0
9.798637542E0,1.053261294E0,3.300091916E0,3.306290549E0,4.788687002E0
9.808692542E0,1.181365018E0,2.473318427E0,4.534117543E0,5.298221328E0
9.818746542E0,1.487158025E0,2.445966906E0,3.304634033E0,4.372070355E0
9.828801542E0,1.705011539E0,1.210811597E0,-9.389643082E-1,2.292331355E0
9.838856542E0,5.005960657E-1,-6.751066554E-1,-4.880787849E0,4.952621069E0
9.848911542E0,3.016319816E-1,-2.225827423E0,-8.561612442E0,8.851355668E0
9.858966542E0,5.118110253E-1,-2.248846157E0,-7.491189569E0,7.838187337E0
9.869020542E0,7.957833923E-1,-1.393124857E0,-3.896204734E0,4.213606461E0
9.879075542E0,1.104818387E0,-4.258679187E-1,-1.084209437E0,1.605458582E0
9.889130542E0,1.006882642E0,2.170077145E-2,-1.892024499E-1,1.024734670E0
9.899185542E0,6.685937342E-1,1.535642552E-1,-6.823800069E-1,9.675960085E-1
9.909239542E0,9.600408894E-1,3.819623458E-1,-7.897188064E-1,1.300472813E0
9.919294542E0,8.061497748E-1,2.766908294E-1,-5.915297708E-1,1.037469394E0
9.929349542E0,5.390180832E-1,2.780573237E-1,-7.126791090E-2,6.106844393E-1
9.939404542E0,4.571620707E-1,2.341961896E-1,8.523161736E-1,9.951320887E-1
9.949459542E0,4.814921158E-1,4.422494781E-1,1.297429179E0,1.452839198E0
9.959513542E0,4.231833524E-1,4.833115500E-1,1.571618131E0,1.697839143E0
9.969568542E0,1.606580424E-1,3.405675673E-1,1.660737884E0,1.702893888E0
9.979623542E0,-1.773958617E-1,4.724836761E-1,1.735565580E0,1.807456223E0
9.989678542E0,-6.711073060E-1,5.970223528E-1,2.067264090E0,2.253974606E0
9.999732542E0,-8.580710763E-1,1.042539255E0,2.597247531E0,2.927263023E0
1.000978754E1,-6.796530848E-1,2.194180537E0,3.207256258E0,3.944977725E0
1.001984254E1,-7.844946116E-2,3.099358172E0,3.132703089E0,4.407494077E0
1.002989754E1,7.372863121E-1,3.512252873E0,2.056284335E0,4.136159646E0
1.003995208E1,9.641193954E-1,2.932027232E0,2.195155853E0,3.787481897E0
1.005000608E1,6.777986404E-1,1.763220279E0,3.529687516E0,4.003379911E0
1.006006108E1,2.386325635E-1,1.162847471E0,4.575476654E0,4.726959525E0
1.007011608E1,-2.211359219E-1,7.980016798E-1,5.311626486E0,5.375786799E0
1.008017108E1,-1.810238215E-1,6.316998500E-1,5.071752065E0,5.114145416E0
1.009022508E1,2.426154127E-1,9.492679793E-1,4.360526574E0,4.469246462E0
1.010028008E1,4.854927807E-1,1.212918933E0,3.548611445E0,3.781470450E0
1.011033508E1,1.025151975E0,1.105445355E0,2.632474959E0,3.033623314E0
1.012039008E1,1.642062023E0,9.522085440E-1,2.333480072E0,3.008022281E0
1.013044508E1,1.864094835E0,9.935208768E-1,2.329077118E0,3.144285850E0
1.014049908E1,1.997250115E0,1.291458734E0,2.066313041E0,3.150638549E0
1.015055408E1,2.080960024E0,1.793157438E0,1.941832690E0,3.364003926E0
1.016060908E1,2.160867634E0,2.458913811E0,1.866366332E0,3.768146673E0
1.017066408E1,1.813876170E0,2.618490758E0,1.989974278E0,3.755880488E0
1.018071808E1,1.050029831E0,2.082404578E0,2.733151733E0,3.592922191E0
1.019077308E1,2.437120215E-1,1.046848653E0,3.072251649E0,3.254845288E0
1.020082808E1,-5.530153673E-1,-2.095718104E-1,3.590479263E0,3.638858018E0
1.021088308E1,-1.524689987E0,-1.437415761E0,3.382967427E0,3.979360782E0
1.022093808E1,-2.789420367E0,-2.662044328E0,1.349626250E0,4.085197303E0
1.023099208E1,-3.317839969E0,-3.183254022E0,7.550901335E-1,4.659541752E0
1.024104708E1,-3.182695613E0,-4.008729429E0,5.312423462E-1,5.146035506E0
1.025110208E1,-2.373667692E0,-5.143327832E0,-2.654981477E0,6.255960849E0
1.026115708E1,-3.621575341E-1,-5.765220732E0,-4.857327358E0,7.547354320E0
1.027121108E1,3.180766909E-1,-6.719005101E0,-5.509360024E0,8.694782930E0
1.028126608E1,-2.952626096E-1,-7.646553013E0,-5.617296116E0,9.492679740E0
1.029132108E1,2.540525300E-1,-6.950976425E0,-3.602784728E0,7.833305416E0
1.030137608E1,9.456583469E-1,-6.861568404E0,-1.909979544E0,7.184943461E0
1.031143108E1,1.674822365E0,-6.123155115E0,-3.620058573E0,7.307727594E0
1.032148508E1,3.289354089E0,-4.276739482E0,-4.302721877E0,6.900997499E0
1.033154008E1,4.329453301E0,-2.780834607E0,-3.862166630E0,6.433781009E0
1.034159508E1,5.360282337E0,-9.742168790E-1,-4.090157754E0,6.812570419E0
1.035165008E1,6.002762114E0,1.283124697E-1,-4.272678591E0,7.369219730E0
1.036170508E1,3.572418968E0,-3.407271963E-1,-4.930550578E0,6.098245757E0
1.037175908E1,2.331344376E0,6.170169067E-1,-5.852458266E0,6.329861311E0
1.038181408E1,2.655891596E0,2.281659561E0,-5.248003517E0,6.308824886E0
1.039186908E1,1.760826429E0,3.053927645E0,-2.670540333E0,4.422529756E0
1.040192408E1,7.645185495E-1,3.474536578E0,-6.295644468E-1,3.612927406E0
1.041197808E1,2.358693704E-2,3.704292392E0,4.578714842E-1,3.732557403E0
1.042203308E1,-9.479099634E-1,3.386435410E0,2.235455740E0,4.166982176E0
1.043208808E1,-1.690634990E0,3.137331744E0,3.318132330E0,4.869404410E0
1.044214308E1,-2.651474901E0,2.607890341E0,3.399199297E0,5.038448873E0
1.045219808E1,-3.550162126E0,2.112771508E0,3.072542841E0,5.148589523E0
1.046225208E1,-3.909409209E0,1.516753122E0,1.870655850E0,4.591663501E0
1.047230708E1,-3.486563131E0,9.785379714E-1,-3.202812374E-2,3.621420278E0
1.048236208E1,-2.687665073E0,4.219485301E-1,-1.893467007E0,3.314634432E0
1.049241708E1,-2.305812947E0,-1.989778250E-1,-3.029125510E0,3.812081699E0
1.050247108E1,-2.445900394E0,-6.267595375E-1,-3.801939139E0,4.563989206E0
1.051252608E1,-2.818104760E0,-8.617638123E-1,-3.985737008E0,4.956858965E0
1.052258108E1,-2.950437191E0,-3.899911577E-1,-3.594486945E0,4.666637881E0
1.053263608E1,-2.551595103E0,2.528797978E-1,-2.590741042E0,3.645068574E0
1.054269108E1,-1.822049408E0,9.027019233E-1,-1.491874389E0,2.521988104E0
1.055274508E1,-8.811821231E-1,1.457775766E0,-2.020160383E-1,1.715343289E0
1.056280008E1,3.764639897E-1,1.884609645E0,1.016094345E0,2.173919586E0
1.057285508E1,2.038501344E0,2.271676025E0,1.783617413E0,3.535150743E0
1.058291008E1,3.866050058E0,2.571581470E0,2.029747185E0,5.067469580E0
1.059296408E1,5.819116273E0,2.543299658E0,2.499328304E0,6.824743901E0
1.060301908E1,7.218470753E0,2.231953551E0,3.386764901E0,8.279982679E0
1.061307408E1,7.522590871E0,1.935171103E0,4.809438662E0,9.135915984E0
1.062312908E1,6.457269110E0,1.421723004E0,5.982764636E0,8.916899313E0
1.063318408E1,4.383331592E0,7.307686400E-1,5.941927682E0,7.419846578E0
1.064323808E1,1.836927356E0,-4.450017625E-1,3.761591890E0,4.209738973E0
1.065329308E1,5.632440113E-1,-1.681976141E0,1.740679555E0,2.485206806E0
1.066334808E1,9.605096899E-1,-2.898268332E0,3.616906339E-1,3.074631410E0
1.067340308E1,2.765000932E0,-3.736447985E0,-1.260679283E0,4.816179602E0
1.068345708E1,3.913149673E0,-5.703161893E0,-2.795073162E0,7.459975196E0
1.069351208E1,4.027673823E0,-8.781477106E0,-3.192280954E0,1.017482945E1
1.070356708E1,2.580615126E0,-1.078366549E1,-1.686404822E0,1.121565767E1
1.071362208E1,-2.010260170E0,-9.490276002E0,-1.450008910E0,9.808619189E0
1.072367708E1,-6.260026739E0,-4.558362438E0,-3.067706609E0,8.329311299E0
1.073373108E1,-6.903732677E0,5.418433481E-1,-2.749076040E0,7.450673671E0
1.074378608E1,-5.309511548E0,3.661727586E0,-1.042392490E0,6.533432780E0
1.075384108E1,-4.053523194E0,4.272200289E0,1.366370045E0,6.045635839E0
1.076389608E1,-3.678207378E0,4.117143239E0,2.699153390E0,6.145364676E0
1.077395108E1,-3.702966244E0,3.529724938E0,2.579430773E0,5.729256518E0
1.078400508E1,-3.403297026E0,3.261096250E0,1.490464041E0,4.943547558E0
1.079406008E1,-3.384217854E0,2.235323301E0,1.339686276E0,4.271341717E0
1.080411508E1,-2.567061280E0,8.790879428E-1,1.434995891E0,3.069497098E0
1.081417008E1,-1.816498938E0,-7.716751760E-1,1.388388320E0,2.413042291E0
1.082422408E1,-2.331410742E0,-2.430249006E0,9.001428893E-1,3.485949440E0
1.083427908E1,-3.407999357E0,-3.988488708E0,4.960742676E-1,5.269591205E0
1.084433408E1,-4.019516373E0,-5.171226068E0,-1.080318700E0,6.638160845E0
1.085438908E1,-4.745552569E0,-6.059877716E0,-3.991840039E0,8.670477151E0
1.086444408E1,-4.706189113E0,-6.086662642E0,-5.384450049E0,9.390845564E0
1.087449808E1,-3.834874751E0,-4.455907525E0,-4.753056008E0,7.559954871E0
1.088455308E1,-2.889247541E0,-2.115440762E0,-3.678868114E0,5.133898282E0
1.089460808E1,-2.113859383E0,-1.306823462E-1,-2.244190603E0,3.085752879E0
1.090466308E1,-1.629904054E0,1.605879307E0,1.988646230E0,3.031525919E0
1.091471708E1,9.121481001E-2,3.785922446E0,4.949922988E0,6.232436642E0
1.092477208E1,2.047053190E-1,4.762560073E0,5.966736249E0,7.637134553E0
1.093482708E1,-5.346466682E-1,4.591826638E0,4.972590305E0,6.789504641E0
1.094488208E1,-1.062834063E0,3.423038396E0,3.947542995E0,5.331969974E0
1.095493708E1,-7.400161578E-1,2.927568145E0,3.957369533E0,4.977856244E0
1.096499108E1,-5.423387535E-1,2.566852242E0,4.701372761E0,5.383843200E0
1.097504608E1,-6.689501951E-1,5.357698452E-1,2.806679885E0,2.934620192E0
1.098510108E1,-1.633085524E0,-9.123393041E-1,-3.425904701E0,3.903351682E0
1.099515608E1,-1.790875270E0,-1.382319202E0,-5.379538972E0,5.835878697E0
1.100521008E1,-1.029263737E0,-1.261350251E0,-3.341972013E0,3.717413783E0
1.101526508E1,-5.158351156E-1,-4.521575850E-1,-6.694044507E-1,9.584543113E-1
1.102532008E1,1.925326220E-1,4.061119312E-1,3.663742536E-1,5.798498124E-1
1.103537521E1,3.759063480E-1,5.623395932E-1,2.994090164E-1,7.397142419E-1
1.104543021E1,1.501708236E-1,4.943148404E-1,1.387319157E-1,5.349252118E-1
1.105548421E1,-1.492549121E-1,3.906536472E-1,-7.071096361E-2,4.241312783E-1
1.106553921E1,-4.853935242E-1,2.541509825E-1,1.267115021E-1,5.623658952E-1
1.107559421E1,-4.479288421E-1,2.181982076E-1,2.629982583E-1,5.633993160E-1
1.108564921E1,-2.196680149E-2,2.684883553E-1,7.754792283E-1,8.209363988E-1
1.109570321E1,3.589514692E-1,3.443454534E-1,1.314961032E0,1.405895610E0
1.110575821E1,6.581222481E-1,6.644506896E-1,1.612087880E0,1.863718580E0
1.111581321E1,8.029387763E-1,7.760266739E-1,1.799645070E0,2.117935423E0
1.112586821E1,9.911548740E-1,8.691652179E-1,1.873206990E0,2.290576475E0
1.113592321E1,1.420414982E0,1.479730307E0,2.263768251E0,3.054803954E0
1.114597721E1,1.935455717E0,2.138842489E0,2.696744045E0,3.948805448E0
1.115603221E1,2.246413715E0,3.019439013E0,4.270632066E0,5.692247778E0
1.116608721E1,2.532075927E0,3.471835164E0,3.831043071E0,5.756903588E0
1.117614221E1,2.947917041E0,3.645665869E0,3.381474633E0,5.780611144E0
1.118619621E1,3.149897411E0,3.910375754E0,4.427484210E0,6.694438637E0
1.119625121E1,3.175703512E0,3.657125242E0,4.642563513E0,6.709176835E0
1.120630621E1,3.425212098E0,3.338223948E0,4.422257384E0,6.513998573E0
1.121636121E1,3.558303497E0,3.441531385E0,4.039795686E0,6.389492252E0
1.122641621E1,3.055356997E0,4.055323552E0,3.849547754E0,6.371802994E0
1.123647021E1,2.292796607E0,4.372226268E0,3.740621728E0,6.193991421E0
1.124652521E1,1.845993025E0,4.161469812E0,4.128810189E0,6.145941329E0
1.125658021E1,1.393356261E0,3.815760788E0,4.011170642E0,5.708849444E0
1.126663521E1,7.033193978E-1,3.781808930E0,3.879045787E0,5.462941806E0
1.127668921E1,-2.541989662E-1,3.735946294E0,4.291028323E0,5.695158988E0
1.128674421E1,-1.557253861E0,2.530509458E0,4.820144622E0,5.662359215E0
1.129679921E1,-3.048457282E0,2.786040384E-1,5.682001989E0,6.454135002E0
1.130685421E1,-4.085134996E0,-2.191689624E0,6.299763247E0,7.821690886E0
1.131690921E1,-4.572672329E0,-4.200214632E0,5.565352961E0,8.338122616E0
1.132696321E1,-5.512642066E0,-6.568739260E0,3.450675260E0,9.243631200E0
1.133701821E1,-5.982375212E0,-8.505654003E0,1.754834056E0,1.054582409E1
1.134707321E1,-5.052636348E0,-9.503340436E0,-9.705003887E-1,1.080668703E1
1.135712821E1,-2.881698785E0,-9.525218963E0,-4.620667444E0,1.097198942E1
1.136718221E1,-1.306447779E0,-9.771973802E0,-8.051269798E0,1.272875576E1
1.137723721E1,-1.961277021E0,-1.059378184E1,-8.333865146E0,1.362087110E1
1.138729221E1,-2.204549551E0,-1.016838871E1,-7.640991141E0,1.290894703E1
1.139734721E1,2.492989630E-1,-8.248099356E0,-6.409927713E0,1.044894570E1
1.140740221E1,4.566596780E0,-6.035768477E0,-4.559020250E0,8.835664824E0
1.141745621E1,5.472596240E0,-4.637810311E0,-4.805698491E0,8.634427142E0
1.142751121E1,6.672378234E0,-2.583270639E0,-5.398987981E0,8.963425110E0
1.143756621E1,6.657052681E0,-6.446859312E-1,-4.574719439E0,8.103087578E0
1.144762121E1,6.917045617E0,1.070575485E0,-2.520889034E0,7.439525083E0
1.145767621E1,6.362184028E0,1.143627673E0,-2.235008136E0,6.839629466E0
1.146773021E1,3.946258070E0,1.281399769E0,-2.134926608E0,4.666138633E0
1.147778521E1,1.473093717E0,1.991020199E0,-1.220653338E0,2.761188350E0
1.148784021E1,7.191071724E-1,3.051408080E0,2.504400471E-1,3.144984358E0
1.149789521E1,-1.282680601E0,2.992731856E0,1.128849421E0,3.446159384E0
1.150794921E1,-3.497172904E0,2.400159234E0,4.192617345E-1,4.262248593E0
1.151800421E1,-4.315027050E0,2.381117776E0,-3.778049755E-1,4.942865253E0
1.152805921E1,-4.261453691E0,2.300981686E0,-7.480196804E-1,4.900411995E0
1.153811421E1,-3.696841870E0,1.868599384E0,-8.345432693E-1,4.225490023E0
1.154816921E1,-3.341670882E0,1.483764886E0,-1.181778417E0,3.842515158E0
1.155822321E1,-3.204621795E0,1.126954338E0,-1.683460749E0,3.791261930E0
1.156827821E1,-2.879518066E0,1.154636811E0,-2.222137245E0,3.816111161E0
1.157833321E1,-2.736721751E0,1.144690112E0,-2.342199878E0,3.779664226E0
1.158838821E1,-2.964686270E0,8.521889967E-1,-2.540128713E0,3.995978559E0
1.159844221E1,-3.685340397E0,9.270526528E-2,-2.397112542E0,4.397326079E0
1.160849721E1,-3.878104386E0,-3.614982605E-1,-1.930329901E0,4.347016005E0
1.161855221E1,-3.748273686E0,-5.155659610E-1,-1.301344621E0,4.001107561E0
1.162860721E1,-3.559736650E0,-4.366495997E-1,-9.765478715E-1,3.716992552E0
1.163866221E1,-3.116338486E0,-9.430857182E-2,-6.104037058E-1,3.176956460E0
1.164871621E1,-2.552849038E0,3.304857981E-1,-1.683433852E-1,2.579650862E0
1.165877121E1,-1.795918055E0,7.468245095E-1,5.956883106E-1,2.034186095E0
1.166882621E1,-6.389065433E-1,1.164100530E0,8.597362903E-1,1.581922281E0
1.167888121E1,8.795741388E-1,1.576961902E0,1.134383225E-1,1.809234025E0
1.168893521E1,2.420171037E0,1.756830441E0,-4.749640650E-1,3.028080565E0
1.169899021E1,3.859054742E0,1.541075200E0,-8.792633593E-1,4.247389825E0
1.170904521E1,5.110199847E0,1.226391503E0,-3.885547891E-1,5.269644525E0
1.171910021E1,5.256652719E0,1.065301296E0,9.813621765E-1,5.452553198E0
1.172915521E1,4.700268222E0,1.290043123E0,3.050708753E0,5.750091870E0
1.173920921E1,3.887118453E0,1.754399754E0,4.555914794E0,6.240510233E0
1.174926421E1,3.027480689E0,1.783163377E0,6.085145874E0,7.026685652E0
1.175931921E1,2.841089288E0,1.783932871E0,6.950276513E0,7.717548084E0
1.176937421E1,2.946528035E0,1.776868265E0,5.793321281E0,6.738090216E0
1.177942821E1,2.486103071E0,1.048277128E0,4.822180330E0,5.525668878E0
1.178948321E1,2.276668086E0,4.750967968E-1,4.072711417E0,4.689980045E0
1.179953821E1,2.336290097E0,-4.488808054E-1,2.617062576E0,3.536772811E0
1.180959321E1,2.743500428E0,-1.339050391E0,1.134476781E-1,3.054950233E0
1.181964821E1,3.422859178E0,-1.730319166E0,-2.612058528E0,4.640346876E0
1.182970221E1,4.036261044E0,-1.807460312E0,-4.934507974E0,6.626287418E0
1.183975721E1,3.675581101E0,-3.370909299E0,-6.515751792E0,8.205360890E0
1.184981221E1,2.196222093E0,-6.321278077E0,-6.155597806E0,9.092487688E0
1.185986721E1,9.058613200E-1,-9.433748630E0,-3.896020839E0,1.024671539E1
1.186992121E1,-1.549860642E0,-1.186689493E1,-1.305986141E0,1.203872348E1
1.187997621E1,-6.619432281E0,-1.153069523E1,-2.646771694E0,1.355651934E1
1.189003121E1,-9.652838538E0,-6.878432944E0,-4.718418272E0,1.275749202E1
1.190008621E1,-9.183717595E0,-2.357724236E0,-3.214551536E0,1.001163693E1
1.191014121E1,-6.841507192E0,6.551927930E-1,-4.269496536E-1,6.886057237E0
1.192019521E1,-5.081728585E0,2.616391023E0,1.206015126E0,5.841569984E0
1.193025021E1,-5.013833640E0,2.771897138E0,2.182500724E0,6.130681115E0
1.194030521E1,-4.593743940E0,2.169405885E0,5.517871231E-1,5.110114902E0
1.195036021E1,-4.696352634E0,3.649913871E-1,3.799748772E-1,4.725815029E0
1.196041421E1,-5.148743523E0,6.020316625E-1,1.640241639E0,5.437131103E0
1.197046921E1,-5.821885514E0,-3.806093001E-1,1.183625844E0,5.953165924E0
1.198052421E1,-6.319826798E0,-1.143922958E0,1.391770349E0,6.571590005E0
1.199057921E1,-5.439531990E0,-9.332027543E-1,3.067424188E0,6.314148145E0
1.200063421E1,-2.931179678E0,-1.556265682E-1,4.128030170E0,5.065241062E0
1.201068821E1,-1.987710529E0,6.187985533E-1,4.032903573E0,4.538525755E0
1.202074321E1,-1.324651915E0,1.606052384E0,3.350019828E0,3.944203317E0
1.203079821E1,3.718098253E-3,2.654386230E0,3.321430745E0,4.251785775E0
1.204085408E1,1.301526177E0,3.830908585E0,4.193587690E0,5.827178450E0
1.205090808E1,2.787517390E0,4.878202795E0,3.858565330E0,6.815837595E0
1.206096308E1,3.136895250E0,3.966105566E0,4.038019594E0,6.471144212E0
1.207101808E1,8.739974300E-1,1.932832802E0,1.177781845E0,2.426290218E0
1.208107308E1,-1.322584924E0,6.129221016E-1,-5.921005760E0,6.097803998E0
1.209112808E1,-1.949679069E0,-1.990988624E-1,-7.632243122E0,7.879849231E0
1.210118208E1,-1.131928930E0,-4.076690447E-1,-3.924655239E0,4.104920937E0
1.211123708E1,-2.968135835E-1,-6.916817576E-1,-8.893685174E-1,1.165117297E0
1.212129208E1,4.887691949E-1,-9.572307175E-1,2.106038439E-1,1.095235112E0
1.213134708E1,1.082453519E0,-9.679112417E-1,5.488871965E-1,1.552364308E0
1.214140208E1,1.563883142E0,-7.129235226E-1,2.342514458E-1,1.734607786E0
1.215145608E1,1.226405682E0,-2.380992061E-1,-7.225389764E-1,1.443199467E0
1.216151108E1,9.649092811E-1,1.626882505E-1,-1.460490336E0,1.757995850E0
1.217156608E1,1.345928179E0,4.650717455E-1,-1.567883807E0,2.118035416E0
1.218162108E1,1.689435434E0,3.642201394E-1,-1.493847824E0,2.284388259E0
1.219167508E1,1.808413408E0,4.715311646E-2,-7.638495550E-1,1.963682412E0
1.220173008E1,1.856746201E0,1.865554154E-2,-1.276417941E-2,1.856883789E0
1.221178508E1,1.391859373E0,-3.419059950E-1,5.021860698E-1,1.518671483E0
1.222184008E1,8.325799935E-1,-7.632855910E-1,7.341287425E-1,1.347122619E0
1.223189508E1,4.748672935E-1,-7.735527170E-1,8.215209353E-1,1.224246462E0
1.224194908E1,2.430498060E-1,-3.604913700E-1,1.809254823E0,1.860760664E0
1.225200408E1,1.710284814E-1,1.000253946E-1,2.828410478E0,2.835341540E0
1.226205908E1,1.898720292E-1,1.168042138E0,3.706874815E0,3.891181661E0
1.227211408E1,2.802223649E-1,2.443508152E0,3.522375865E0,4.296089896E0
1.228216908E1,6.379419719E-1,3.451371079E0,3.056926974E0,4.654431739E0
1.229222308E1,8.300452255E-1,3.916759159E0,3.076938193E0,5.049507504E0
1.230227808E1,8.081530309E-1,3.752361183E0,3.907008927E0,5.477047062E0
1.231233308E1,5.549798856E-1,3.373522419E0,4.651519108E0,5.772805748E0
1.232238808E1,3.083711169E-1,3.482930256E0,4.606593781E0,5.783303743E0
1.233244208E1,6.965740498E-2,3.679217193E0,3.305957258E0,4.946801461E0
1.234249708E1,1.748757118E-1,3.565060247E0,2.586832763E0,4.408167400E0
1.235255208E1,3.438437257E-1,2.872186242E0,2.505619031E0,3.826984328E0
1.236260708E1,4.608497635E-1,1.931492620E0,3.248972633E0,3.807738097E0
1.237266208E1,7.273819327E-1,1.222576194E0,4.082750502E0,4.323497275E0
1.238271608E1,8.112417495E-1,9.617932999E-1,4.919106408E0,5.077476477E0
1.239277108E1,8.921267221E-1,1.179581033E0,4.753135530E0,4.977911095E0
1.240282608E1,1.348435172E0,1.891774238E0,3.917926848E0,4.554913607E0
1.241288108E1,1.942033980E0,2.602079378E0,2.660879855E0,4.197927426E0
1.242293608E1,2.351022157E0,2.646876651E0,1.524016826E0,3.854333726E0
1.243299008E1,2.208860849E0,1.932153940E0,2.242662141E0,3.693483259E0
1.244304508E1,1.503794231E0,1.039621494E0,2.569832568E0,3.153767488E0
1.245310008E1,-3.437687717E-3,-8.743335718E-1,3.533189706E0,3.639766546E0
1.246315508E1,-1.273335873E0,-2.842776502E0,3.721374156E0,4.852977240E0
1.247320908E1,-2.739676057E0,-4.875676798E0,1.379712806E0,5.760352121E0
1.248326408E1,-3.805818767E0,-6.861218156E0,-1.361810386E0,7.963359756E0
1.249331908E1,-4.497929125E0,-9.047679784E0,-3.830803627E0,1.080587490E1
1.250337408E1,-2.584670463E0,-9.723284038E0,-7.517545309E0,1.255930975E1
1.251342908E1,-1.283357709E0,-9.597644330E0,-7.090744175E0,1.200168474E1
1.252348308E1,-1.488455522E0,-9.681361256E0,-5.609001841E0,1.128738930E1
1.253353808E1,-1.296992831E0,-8.834233609E0,-4.408400068E0,9.957904650E0
1.254359308E1,-1.100230516E0,-7.680773258E0,-3.440626820E0,8.487797002E0
1.255364808E1,-2.228878938E-1,-5.864148020E0,-2.818380749E0,6.510083030E0
1.256370308E1,1.614680536E0,-3.689712360E0,-1.968607821E0,4.482921735E0
1.257375708E1,3.655792662E0,-2.201231695E0,-3.476325241E0,5.504096488E0
1.258381208E1,7.188200887E0,-3.353384024E-1,-4.241978370E0,8.353266686E0
1.259386708E1,7.032280204E0,1.123647738E-1,-3.536629331E0,7.872314636E0
1.260392208E1,6.207069091E0,1.311728107E0,-4.445716413E0,7.746788480E0
1.261397708E1,5.850691822E0,2.741447763E0,-5.080825775E0,8.219545072E0
1.262403108E1,4.746603606E0,4.370420063E0,-5.150698832E0,8.255938213E0
1.263408608E1,1.955717927E0,4.530610968E0,-4.663059758E0,6.789358928E0
1.264414108E1,4.189497124E-1,4.367632111E0,-2.998025925E0,5.314121617E0
1.265419608E1,-1.536094835E0,3.641641231E0,-7.051584202E-1,4.014771051E0
1.266425008E1,-2.951614820E0,3.180359650E0,4.233278883E-1,4.359578426E0
1.267430508E1,-3.624225883E0,3.191454157E0,1.164985213E0,4.967653716E0
1.268436008E1,-3.900734280E0,3.054058623E0,1.942725706E0,5.321389401E0
1.269441508E1,-3.797488824E0,2.888112304E0,2.515345289E0,5.393428962E0
1.270447008E1,-3.398973887E0,2.921769462E0,2.935662446E0,5.357972963E0
1.271452408E1,-3.674128945E0,2.411578846E0,3.086513593E0,5.370428493E0
1.272457908E1,-4.236814986E0,1.465711023E0,1.785613068E0,4.825694153E0
1.273463408E1,-4.244562255E0,4.247961241E-1,-4.706499892E-1,4.291651418E0
1.274468908E1,-4.574232951E0,-8.063503343E-1,-2.410463197E0,5.232985837E0
1.275474408E1,-4.566935626E0,-1.673412309E0,-3.142944487E0,5.790967951E0
1.276479808E1,-3.981224419E0,-1.594234577E0,-3.169372732E0,5.332603049E0
1.277485308E1,-3.196897915E0,-1.231825320E0,-3.192068700E0,4.682611716E0
1.278490808E1,-2.114671561E0,-8.018222505E-1,-2.403181367E0,3.300005366E0
1.279496308E1,-9.596239829E-1,-3.074097615E-1,-1.161849352E0,1.537944364E0
1.280501808E1,4.255770198E-1,2.577037507E-1,-2.895400858E-1,5.756391962E-1
1.281507208E1,2.029440791E0,9.616675848E-1,-4.398781398E-1,2.288433361E0
1.282512708E1,3.334955939E0,1.620842916E0,-1.113188823E0,3.871466419E0
1.283518208E1,4.390872454E0,2.030297701E0,-1.431435522E0,5.044886254E0
1.284523708E1,5.582162536E0,2.431776298E0,-6.767810056E-1,6.126345328E0
1.285529108E1,5.998368516E0,2.980021178E0,1.235321955E0,6.810798148E0
1.286534608E1,5.300892752E0,3.032086540E0,3.360643050E0,6.970432875E0
1.287540108E1,4.554564672E0,2.848373457E0,4.868304629E0,7.249667624E0
1.288545608E1,3.982410527E0,2.643005210E0,6.175245620E0,7.808887796E0
1.289551108E1,3.348858864E0,1.688336157E0,7.141632493E0,8.066489281E0
1.290556508E1,2.534517432E0,-4.141290486E-2,6.705239586E0,7.168384165E0
1.291562008E1,1.373436989E0,-2.114462523E0,5.761922318E0,6.289437949E0
1.292567508E1,7.159216824E-1,-3.372707902E0,5.203624320E0,6.242227849E0
1.293573008E1,4.192886317E-1,-4.106690757E0,4.047135111E0,5.781004630E0
1.294578508E1,1.948261265E0,-4.318155895E0,7.142783225E-1,4.790864830E0
1.295583908E1,4.239411442E0,-4.763335998E0,-6.883193747E0,9.382981155E0
1.296589408E1,5.067650828E0,-6.035493073E0,-8.121795405E0,1.131688217E1
1.297594908E1,4.693420256E0,-7.624652267E0,-6.294317735E0,1.094449412E1
1.298600408E1,2.425337344E0,-8.440568061E0,-4.220850041E0,9.743768547E0
1.299605908E1,-3.910325468E-1,-8.045322011E0,-2.049506389E0,8.311473344E0
1.300611308E1,-3.990161011E0,-7.037338631E0,-1.459522622E0,8.220445619E0
1.301616808E1,-7.231265046E0,-4.887015719E0,-2.634876995E0,9.116835722E0
1.302622308E1,-7.972539963E0,-2.074529548E0,-2.602675501E0,8.639385746E0
1.303627729E1,-7.165983807E0,3.295560908E-1,-9.071744585E-1,7.230691297E0
1.304633229E1,-6.072453908E0,2.316169243E0,4.955781314E-1,6.518046802E0
1.305638629E1,-5.245590371E0,3.515515620E0,1.923645949E0,6.601172786E0
1.306644129E1,-5.027896194E0,3.689317673E0,1.897786638E0,6.518619421E0
1.307649629E1,-4.860491579E0,3.412705196E0,1.235578355E0,6.066101633E0
1.308655129E1,-4.531452675E0,2.724482067E0,6.251875135E-1,5.324258192E0
1.309660629E1,-4.123373740E0,1.700902993E0,2.160335684E-1,4.465641331E0
1.310666029E1,-5.045439010E0,-9.641584986E-1,5.903781617E-1,5.170551498E0
1.311671529E1,-5.662308567E0,-2.253556674E0,5.323626727E-2,6.094513114E0
1.312677029E1,-4.814032527E0,-1.835360302E0,6.289928815E-1,5.190287916E0
1.313682529E1,-4.378192182E0,-2.057666763E0,1.917936728E0,5.203944714E0
1.314687929E1,-3.016638781E0,-1.728693640E0,3.071334221E0,4.639136249E0
1.315693429E1,-1.574348196E-1,-3.275610209E-2,3.383725518E0,3.387544401E0
1.316698929E1,2.036475576E0,1.355123802E0,1.318655888E0,2.778929046E0
1.317704429E1,1.704482512E0,1.383919585E0,-1.633284622E0,2.736441614E0
1.318709929E1,2.861569599E-1,1.659605863E0,-2.675767744E0,3.161630978E0
1.319715329E1,-5.709470601E-1,1.929184139E0,-2.365643997E0,3.105479594E0
1.320720829E1,-9.156204692E-1,2.085770236E0,-1.107001592E0,2.532637132E0
1.321726329E1,-7.533526334E-1,2.259560595E0,-1.659708774E-1,2.387613998E0
1.322731829E1,-5.740405295E-1,2.832308232E0,8.361378050E-1,3.008424650E0
1.323737329E1,-2.173625674E-1,2.820379912E0,3.549465723E0,4.538776955E0
1.324742729E1,7.885569647E-2,1.924014031E0,5.554719799E0,5.879027153E0
1.325748229E1,-5.524362371E-1,7.858728004E-1,3.066998511E0,3.213916881E0
1.326753729E1,-5.813500242E-1,-4.450684208E-1,-2.663264350E0,2.762070011E0
1.327759229E1,-8.254465366E-1,-1.778559864E0,-5.500386887E0,5.839425749E0
1.328764729E1,-5.194551999E-1,-1.979634501E0,-4.296382911E0,4.758959191E0
1.329770129E1,-1.553164100E-1,-1.472167518E0,-2.763043284E0,3.134614582E0
1.330775629E1,3.602393184E-1,-6.809415919E-1,-1.661743605E0,1.831623768E0
1.331781129E1,1.180668030E0,1.512253690E-1,-9.174047470E-1,1.502823203E0
1.332786629E1,1.380224584E0,4.626159149E-1,-2.787022716E-1,1.482129664E0
1.333792129E1,1.372480239E0,2.525207788E-1,5.105496347E-2,1.396450987E0
1.334797529E1,1.293323265E0,-1.654756182E-1,1.893497998E-1,1.317543393E0
1.335803029E1,1.290454767E0,-2.176965165E-1,4.035356480E-1,1.369491255E0
1.336808529E1,1.329659471E0,-3.799772161E-1,5.352678618E-1,1.482865023E0
1.337814029E1,1.567194420E0,-2.333044893E-1,9.627347016E-1,1.854019267E0
1.338819529E1,1.358550709E0,-1.162952721E-1,1.436825777E0,1.980821278E0
1.339824929E1,9.161182865E-1,3.995402455E-3,1.820757758E0,2.038246180E0
1.340830429E1,5.718869269E-1,2.870632052E-1,2.512076696E0,2.592294209E0
1.341835929E1,2.743130592E-1,6.030642807E-1,3.125541419E0,3.194987221E0
1.342841429E1,4.271784625E-1,1.400695247E0,3.290336713E0,3.601491955E0
1.343846929E1,8.450254266E-1,2.603209645E0,3.671208846E0,4.579142148E0
1.344852329E1,1.325137088E0,3.760739073E0,3.653873606E0,5.408321274E0
1.345857829E1,1.502151309E0,4.219277725E0,2.687732316E0,5.223281351E0
1.346863329E1,1.264415069E0,3.681024567E0,3.093947158E0,4.972041467E0
1.347868829E1,9.580733744E-1,2.571087965E0,4.584438681E0,5.342796640E0
1.348874329E1,5.573732606E-1,2.021440338E0,5.032991458E0,5.452328769E0
1.349879729E1,4.339577974E-1,1.786593938E0,4.897452999E0,5.231183723E0
1.350885229E1,7.053632189E-1,1.740586876E0,4.250557989E0,4.646980005E0
1.351890729E1,9.188612884E-1,1.766815147E0,3.905178164E0,4.383646692E0
1.352896229E1,7.375984072E-1,1.716309822E0,4.263047642E0,4.654389972E0
1.353901729E1,6.367855389E-1,1.531064767E0,4.974997019E0,5.244068123E0
1.354907129E1,9.985512364E-1,1.234252499E0,5.209811259E0,5.446339795E0
1.355912629E1,1.417322243E0,1.708426021E0,4.634871501E0,5.139022829E0
1.356918129E1,1.299545725E0,2.781799983E0,3.906098515E0,4.968383625E0
1.357923629E1,1.260207413E0,3.937789255E0,3.030557494E0,5.126264299E0
1.358929129E1,1.394031760E0,4.935084509E0,1.991665732E0,5.501374015E0
1.359934529E1,1.119227973E0,5.345839130E0,1.148463905E0,5.581185949E0
1.360940029E1,5.950112761E-1,5.226340168E0,8.215604040E-1,5.323873728E0
1.361945529E1,1.043387978E0,4.555638220E0,1.513294787E0,4.912490120E0
1.362951029E1,-4.831328810E-1,1.961542631E0,2.412167514E0,3.146365998E0
1.363956529E1,-3.741429228E0,-2.581312991E0,4.171675542E0,6.169630966E0
1.364961929E1,-4.934975166E0,-6.668256531E0,2.308594176E0,8.610994840E0
1.365967429E1,-4.920226150E0,-9.285483706E0,6.811611548E-1,1.053056568E1
1.366972929E1,-3.903462006E0,-1.072164173E1,-3.716674456E-1,1.141616195E1
1.367978429E1,-1.726388667E0,-1.170947502E1,-3.268951399E0,1.227918020E1
1.368983929E1,-1.525927111E0,-1.253805822E1,-5.017118021E0,1.359054196E1
1.369989329E1,-2.485078931E0,-1.318484681E1,-5.293274415E0,1.442340309E1
1.370994829E1,-1.394381570E0,-1.197218107E1,-4.992562054E0,1.304619083E1
1.372000329E1,2.439179166E0,-8.763110417E0,-5.604190167E0,1.068403700E1
1.373005829E1,4.585677998E0,-6.509994038E0,-7.379384959E0,1.085650899E1
1.374011329E1,5.560476968E0,-4.725544859E0,-7.833271565E0,1.070559768E1
1.375016729E1,7.352878945E0,-2.632398945E0,-7.549422575E0,1.086223431E1
1.376022229E1,7.948275772E0,-1.525902845E0,-6.314616344E0,1.026537125E1
1.377027729E1,7.217329377E0,-3.474357069E-1,-7.349303958E0,1.030644573E1
1.378033229E1,6.241473523E0,1.379823026E0,-5.390058113E0,8.361377266E0
1.379038729E1,4.557071958E0,2.593725461E0,-1.546742322E0,5.466875561E0
1.380044129E1,2.541534383E0,3.325149574E0,-6.248381424E-1,4.231600101E0
1.381049629E1,6.210571135E-1,3.658984072E0,9.871386409E-2,3.712629904E0
1.382055129E1,-1.113163095E0,4.164827283E0,1.719077309E0,4.641136194E0
1.383060629E1,-1.992837660E0,4.804314455E0,2.958546402E0,5.983797802E0
1.384066129E1,-2.968851242E0,4.863561367E0,3.498227157E0,6.686247087E0
1.385071529E1,-4.317008672E0,4.601633588E0,4.335762447E0,7.655745003E0
1.386077029E1,-5.247446862E0,4.118767596E0,4.757605142E0,8.193579912E0
1.387082529E1,-5.386121768E0,3.784722598E0,3.540780269E0,7.474727938E0
1.388088029E1,-5.590941546E0,3.091323513E0,2.041246320E0,6.706831962E0
1.389093529E1,-5.762949674E0,1.971446645E0,-2.729892495E-1,6.096943000E0
1.390098929E1,-5.730340337E0,8.324540591E-1,-3.329164272E0,6.679304970E0
1.391104429E1,-5.932984951E0,-4.309655213E-1,-4.805143590E0,7.646923998E0
1.392109929E1,-5.403042440E0,-7.725399792E-1,-4.156313152E0,6.860366219E0
1.393115429E1,-4.648089716E0,-5.025319326E-1,-3.814773778E0,6.034051320E0
1.394120929E1,-3.901597329E0,-1.589378464E-1,-3.354830040E0,5.148068332E0
1.395126329E1,-3.016350514E0,2.375963455E-1,-1.976498639E0,3.614051648E0
1.396131829E1,-1.530335766E0,7.421900064E-1,-6.518136871E-1,1.821437521E0
1.397137329E1,1.325043386E-1,1.046781410E0,6.434042215E-2,1.057094324E0
1.398142829E1,1.914121858E0,1.556414201E0,-8.060708374E-2,2.468356772E0
1.399148329E1,3.777869076E0,2.256297264E0,-2.834730148E-3,4.400361364E0
1.400153729E1,4.941370266E0,2.651108281E0,5.685668778E-1,5.636380356E0
1.401159229E1,5.280432175E0,2.684012902E0,1.645478990E0,6.147722369E0
1.402164729E1,5.336136845E0,2.632307144E0,3.197856858E0,6.754974894E0
1.403170229E1,4.645182773E0,1.904810606E0,4.701308734E0,6.878105136E0
1.404176042E1,3.948286761E0,9.609548092E-1,5.383677047E0,6.745100521E0
1.405181442E1,4.375383472E0,5.559789920E-1,6.114198350E0,7.538999577E0
1.406186942E1,4.443582764E0,2.156160772E-1,5.677055245E0,7.212549780E0
1.407192442E1,3.929201742E0,-5.957406431E-1,5.335446289E0,6.652858058E0
1.408197942E1,3.145392131E0,-1.609746655E0,4.343498020E0,5.599174136E0
1.409203442E1,2.237240895E0,-2.725688932E0,2.133577071E0,4.121501922E0
1.410208842E1,2.256936949E0,-3.927078910E0,-1.111518858E0,4.663816820E0
1.411214342E1,2.759367725E0,-5.016933249E0,-3.099743503E0,6.510924608E0
1.412219842E1,3.168093946E0,-5.878679520E0,-3.819291337E0,7.693027912E0
1.413225342E1,3.649339382E0,-6.460386261E0,-4.055674385E0,8.455930657E0
1.414230842E1,3.865191979E0,-6.710460564E0,-3.566274422E0,8.525743561E0
1.415236242E1,2.662326749E0,-7.142423036E0,-3.030392017E0,8.202771868E0
1.416241742E1,-6.094854006E-1,-7.043131467E0,-2.180076469E0,7.397966391E0
1.417247242E1,-4.460103195E0,-4.880213068E0,-9.483610761E-1,6.678951177E0
1.418252742E1,-6.578896458E0,-1.425930076E0,-1.397191011E0,6.875121665E0
1.419258242E1,-7.433913168E0,5.503814524E-1,-9.468308598E-1,7.514151543E0
1.420263642E1,-6.988077593E0,1.814422592E0,5.002994657E-1,7.237102828E0
1.421269142E1,-5.931213244E0,3.028684630E0,1.184490063E0,6.764261811E0
1.422274642E1,-5.322392964E0,3.530376318E0,1.269108921E0,6.511686515E0
1.423280142E1,-4.692863601E0,3.188395479E0,8.660024589E-1,5.739232942E0
1.424285642E1,-4.046857076E0,2.131134104E0,9.388804007E-1,4.669077122E0
1.425291042E1,-4.502379441E0,1.886990047E-1,6.922167778E-1,4.559187649E0
1.426296542E1,-4.533352727E0,-1.739155478E0,2.227233678E-1,4.860612557E0
1.427302042E1,-4.356499597E0,-2.865619234E0,-5.044123971E-1,5.238825651E0
1.428307542E1,-4.522345344E0,-3.903745596E0,-9.320309722E-1,6.046446793E0
1.429313042E1,-4.278345712E0,-3.936015794E0,-1.536236337E0,6.013026231E0
1.430318442E1,-3.412075159E0,-2.900586753E0,-1.437157314E0,4.703305385E0
1.431323942E1,-1.744115379E0,-1.696910514E0,-9.155175582E-1,2.599926181E0
1.432329442E1,-4.091131608E-1,-3.341508329E-1,2.317649174E-1,5.768408224E-1
1.433334942E1,1.045993059E0,9.300540286E-1,1.410690477E0,1.987246738E0
1.434340442E1,1.751949478E0,2.460038230E0,2.224935722E0,3.751193682E0
1.435345842E1,1.461238195E0,3.129596463E0,1.928233382E0,3.955714229E0
1.436351342E1,9.785430877E-1,3.458657295E0,1.365363446E0,3.845006397E0
1.437356842E1,1.880217144E-1,3.428991446E0,1.044560053E0,3.589490243E0
1.438362342E1,-4.678617810E-1,3.328121129E0,8.609104112E-1,3.469358965E0
1.439367842E1,-5.534548221E-1,2.266462648E0,1.491803053E0,2.769231215E0
1.440373242E1,-1.412455898E0,1.692096502E-1,8.805576405E-1,1.673034766E0
1.441378742E1,-1.955403054E0,-6.276395434E-1,-2.225363154E0,3.028163415E0
1.442384242E1,-8.978115314E-1,-6.570036757E-1,-2.922372894E0,3.126976608E0
1.443389742E1,1.470711781E-1,-3.759777206E-1,-1.579613614E0,1.630389017E0
1.444395242E1,9.615341952E-1,-3.013052684E-1,1.742619368E-1,1.022594786E0
1.445400642E1,1.253588511E0,1.213139373E-1,8.564951786E-1,1.523084113E0
1.446406142E1,8.926631311E-1,5.205530512E-1,-6.332534552E-4,1.033355382E0
1.447411642E1,3.358807682E-1,6.455893260E-1,-1.229994265E0,1.429156170E0
1.448417142E1,7.431405444E-2,7.110863274E-1,-1.193794445E0,1.391514111E0
1.449422642E1,-9.240702074E-2,4.020796913E-1,-5.499177682E-1,6.874712266E-1
1.450428042E1,2.032764056E-1,8.663644016E-2,1.242325750E-1,2.534973423E-1
1.451433542E1,3.627573122E-1,-3.417761868E-1,8.691666797E-1,1.001925420E0
1.452439042E1,6.946243688E-1,-3.742405128E-1,1.756907625E0,1.925949993E0
1.453444542E1,9.064983011E-1,-1.324704248E-1,2.844361097E0,2.988256621E0
1.454450042E1,7.607838598E-1,2.118563175E-1,3.516177817E0,3.603773247E0
1.455455442E1,1.236084140E0,1.730247830E0,3.217971280E0,3.857071520E0
1.456460942E1,1.988775161E0,3.472040402E0,2.359884051E0,4.645357244E0
1.457466442E1,2.309299496E0,4.807762558E0,1.300962798E0,5.489986264E0
1.458471942E1,1.803714294E0,5.073448343E0,1.541901997E0,5.600957517E0
1.459477442E1,1.169889200E0,4.185121799E0,2.931463560E0,5.241885521E0
1.460482842E1,6.617655019E-1,3.210370485E0,3.664337783E0,4.916480816E0
1.461488342E1,2.781896900E-2,3.166190677E0,4.795878092E0,5.746823816E0
1.462493842E1,-7.389779115E-1,2.776945624E0,5.883575394E0,6.547822139E0
1.463499342E1,-9.084116562E-1,2.720404218E0,6.066545881E0,6.710349453E0
1.464504842E1,-8.925582466E-1,2.994492452E0,5.468785025E0,6.298512119E0
1.465510242E1,-6.333788048E-1,2.158627712E0,5.110184644E0,5.583442434E0
1.466515742E1,-1.228829097E-1,1.328737657E0,5.067668955E0,5.240411492E0
1.467521242E1,7.869765719E-2,9.779099804E-1,4.854157875E0,4.952307536E0
1.468526742E1,5.353817729E-1,7.296050441E-1,4.911671673E0,4.994344380E0
1.469532242E1,1.340924570E0,9.232531321E-1,4.262588636E0,4.562908823E0
1.470537642E1,2.399354657E0,1.510511804E0,2.285421221E0,3.641661549E0
1.471543142E1,2.989795091E0,2.424318759E0,7.866610050E-1,3.928744287E0
1.472548642E1,2.844444128E0,3.246748352E0,3.024530768E-1,4.327090838E0
1.473554142E1,1.936544907E0,3.320543722E0,4.702933091E-1,3.872646715E0
1.474559642E1,6.735605054E-1,2.259220871E0,3.438528255E-1,2.382435196E0
1.475565042E1,9.441785993E-2,3.512416595E-1,3.993700916E-1,5.401684049E-1
1.476570542E1,-7.544725214E-1,-3.089205067E0,2.857580775E0,4.275299359E0
1.477576042E1,-1.620471618E0,-7.743412140E0,2.744465218E0,8.373675965E0
1.478581542E1,-1.780240792E0,-1.083486020E1,5.484202963E-1,1.099382634E1
1.479587042E1,-1.848596351E0,-1.226560136E1,-2.006515905E0,1.256536475E1
1.480592442E1,-2.035007487E0,-1.270343152E1,-4.120036149E0,1.350900165E1
1.481597942E1,-2.427801215E0,-1.283361626E1,-5.319810834E0,1.410306039E1
1.482603442E1,-1.699209932E0,-1.222233314E1,-5.508565387E0,1.351358703E1
1.483608942E1,-1.065163740E0,-1.156111128E1,-5.925726217E0,1.303488009E1
1.484614442E1,-8.420122102E-2,-1.001467126E1,-5.653183987E0,1.150040084E1
1.485619942E1,1.973906714E0,-7.128522450E0,-6.293668694E0,9.711972285E0
1.486625342E1,4.806110135E0,-4.438966972E0,-6.536978939E0,9.248525074E0
1.487630842E1,6.868908999E0,-2.727041393E0,-5.760573365E0,9.370318623E0
1.488636342E1,1.007575244E1,1.480263573E-1,-6.427316748E0,1.195211695E1
1.489641842E1,9.520714853E0,1.810649968E0,-5.729642179E0,1.125838639E1
1.490647342E1,6.484362769E0,1.778000870E0,-6.221426929E0,9.160480372E0
1.491652742E1,4.476580356E0,1.499886244E0,-5.820996737E0,7.494893825E0
1.492658242E1,3.901928866E0,2.330293778E0,-4.848968471E0,6.645886939E0
1.493663742E1,3.084883389E0,3.331587358E0,-3.971687318E0,6.032435661E0
1.494669242E1,7.935545068E-1,3.095439953E0,-2.381682325E0,3.985459566E0
1.495674742E1,-6.424054440E-1,3.241554270E0,-1.217023094E0,3.521576927E0
1.496680142E1,-1.545076889E0,3.273133913E0,-4.843494308E-1,3.651747879E0
1.497685642E1,-2.451114210E0,2.972421552E0,9.166042632E-1,3.960229050E0
1.498691142E1,-3.067048212E0,2.720514146E0,1.761493303E0,4.462156498E0
1.499696642E1,-3.654200465E0,2.409109567E0,2.037928902E0,4.828058011E0
1.500702142E1,-4.017479787E0,1.969494844E0,2.149432966E0,4.963780400E0
1.501707542E1,-3.925763871E0,1.506524588E0,1.267868727E0,4.391893602E0
1.502713042E1,-3.608107449E0,1.073263450E0,-8.553067321E-1,3.860295766E0
1.503718192E1,-3.375778275E0,9.335331219E-1,-3.128865561E0,4.696505376E0
1.504723692E1,-3.602858111E0,6.149727201E-1,-4.113270628E0,5.502524264E0
1.505729192E1,-4.112944061E0,2.716470212E-1,-3.805670248E0,5.610100444E0
1.506734592E1,-4.311715187E0,3.608439571E-1,-2.935519189E0,5.228610631E0
1.507740092E1,-3.891634843E0,1.018625312E0,-2.133029771E0,4.553266441E0
1.508745592E1,-3.217584487E0,1.742505348E0,-1.183410959E0,3.845729621E0
1.509751092E1,-2.397228902E0,2.272264840E0,-3.088519773E-1,3.317421205E0
1.510756592E1,-1.376818727E0,2.763830904E0,5.409335214E-1,3.134804643E0
1.511761992E1,-1.077315132E-1,3.244786611E0,1.466168567E0,3.562288099E0
1.512767492E1,1.459872578E0,3.530972734E0,2.423950677E0,4.524879366E0
1.513772992E1,3.334287310E0,3.707689624E0,3.235109177E0,5.943935195E0
1.514778492E1,5.381221801E0,3.763935161E0,3.805031732E0,7.589665503E0
1.515783992E1,6.974472876E0,3.074035050E0,5.419814594E0,9.352398282E0
1.516789392E1,8.519371571E0,2.313104133E0,6.925990688E0,1.122049418E1
1.517794892E1,8.741007357E0,1.187694629E0,7.788309401E0,1.176748025E1
1.518800392E1,8.582845436E0,3.341262746E-1,7.674614385E0,1.151853212E1
1.519805892E1,7.079250303E0,-6.692711341E-1,5.742602533E0,9.140087119E0
1.520811392E1,4.985650645E0,-1.663133488E0,3.087058554E0,6.095297849E0
1.521816792E1,4.652483607E0,-1.523488530E0,-1.321936761E0,5.070910945E0
1.522822292E1,4.589762571E0,-1.514320096E0,-4.966213331E0,6.929816784E0
1.523827792E1,3.927661877E0,-2.415207043E0,-6.890958849E0,8.291264484E0
1.524833292E1,2.990057339E0,-4.654438623E0,-5.769218473E0,7.993004665E0
1.525838792E1,2.342745716E0,-7.780717376E0,-3.687231386E0,8.923211063E0
1.526844192E1,7.628990901E-1,-1.084400057E1,-1.337136598E0,1.095273014E1
1.527849692E1,-7.368548606E-1,-1.283754208E1,1.622528669E0,1.296063429E1
1.528855192E1,-3.711685027E0,-1.116067875E1,1.105182523E0,1.181350009E1
1.529860692E1,-8.198575194E0,-5.337030299E0,-2.779344152E0,1.016982210E1
1.530866192E1,-8.546152403E0,6.049657953E-1,-5.455746903E0,1.015715899E1
1.531871592E1,-6.753266276E0,3.554992511E0,-5.084008999E0,9.170154015E0
1.532877092E1,-6.315525001E0,3.270831864E0,-1.399778696E0,7.248694884E0
1.533882592E1,-5.062856112E0,2.935850726E0,1.663534607E0,6.084330603E0
1.534888092E1,-3.906569216E0,2.287368198E0,2.654177485E0,5.247665618E0
1.535893592E1,-3.596377349E0,1.123435484E0,1.903963052E0,4.221505967E0
1.536898992E1,-2.824830812E0,4.188044822E-1,1.249152667E0,3.116961453E0
1.537904492E1,-2.658481035E0,-9.893108815E-1,1.455095987E0,3.188034154E0
1.538909992E1,-2.962712250E0,-2.452552040E0,1.402715752E0,4.093932934E0
1.539915492E1,-3.286919016E0,-3.582026528E0,1.572348156E0,5.109503830E0
1.540920992E1,-4.915551885E0,-4.723650361E0,1.473609149E0,6.974743507E0
1.541926392E1,-5.554399956E0,-4.899662662E0,1.595716554E0,7.576566795E0
1.542931892E1,-5.423507110E0,-4.186044490E0,1.204851530E0,6.956224914E0
1.543937392E1,-4.697345492E0,-3.429632301E0,5.488421729E-1,5.841973991E0
1.544942892E1,-2.922983928E0,-2.370698038E0,-7.386691055E-1,3.835319580E0
1.545948392E1,-1.313673914E0,-1.346616688E0,-3.157425409E0,3.675384452E0
1.546953792E1,-8.894195344E-1,-1.641944933E-1,-3.111478573E0,3.240266324E0
1.547959292E1,-1.150298542E0,9.668406165E-1,-1.997693334E0,2.499749222E0
1.548964792E1,-6.031619292E-1,2.233395474E0,1.365132481E0,2.686158288E0
1.549970292E1,8.520097064E-1,4.020951864E0,4.189422134E0,5.869006070E0
1.550975792E1,1.569644842E0,5.956834574E0,8.608276731E0,1.058537157E1
1.551981192E1,4.347610952E-1,5.366900216E0,6.949907554E0,8.791692109E0
1.552986692E1,-7.601545532E-1,3.404460622E0,1.736568377E0,3.896646866E0
1.553992192E1,-1.365378357E0,1.410465944E0,-4.708311945E0,5.101163946E0
1.554997692E1,-4.175363673E-1,4.866789615E-1,-6.311561759E0,6.344052716E0
1.556003192E1,9.063604530E-1,6.261964506E-1,-3.700020709E0,3.860539407E0
1.557008592E1,1.341059348E0,4.448409641E-1,-1.950561852E0,2.408529676E0
1.558014092E1,1.724957854E0,4.780607504E-1,7.064021230E-2,1.791371463E0
1.559019592E1,1.443197196E0,4.520733851E-1,4.269759661E-1,1.571463320E0
1.560025092E1,5.266236305E-1,2.946897286E-1,-7.932174879E-1,9.966787183E-1
1.561030592E1,-4.262713035E-1,-3.748883843E-2,-1.301869116E0,1.370392584E0
1.562035992E1,-4.260021123E-1,1.217448771E-2,-9.000361776E-1,9.958369038E-1
1.563041492E1,1.724441837E-1,3.482625031E-1,-8.797340602E-2,3.984508599E-1
1.564046992E1,8.490271879E-1,5.414504153E-1,9.238062787E-1,1.366540800E0
1.565052492E1,1.413998978E0,4.647612584E-1,1.370668333E0,2.023395121E0
1.566057992E1,1.571846758E0,2.684871858E-1,2.032146006E0,2.583099879E0
1.567063392E1,1.379850069E0,3.455920798E-1,2.588530210E0,2.953626372E0
1.568068892E1,1.015918490E0,6.796587127E-1,3.236560163E0,3.459674556E0
1.569074392E1,7.726233020E-1,1.143197318E0,4.479647221E0,4.687332514E0
1.570079892E1,1.129765533E0,2.431780976E0,4.256274812E0,5.030487467E0
1.571085392E1,1.925987174E0,3.928586907E0,3.507993177E0,5.607962001E0
1.572090792E1,2.506506346E0,4.724406406E0,3.702219554E0,6.504538383E0
1.573096292E1,2.441468204E0,4.548377733E0,3.978234445E0,6.517273686E0
1.574101792E1,2.070009358E0,3.482613922E0,4.472055196E0,6.034303286E0
1.575107292E1,1.779522754E0,2.464202617E0,4.608430976E0,5.520564449E0
1.576112792E1,8.671994571E-1,2.254194605E0,5.314864674E0,5.837911846E0
1.577118192E1,-1.539937150E-1,2.355163155E0,5.671750651E0,6.143229037E0
1.578123692E1,-5.105433855E-1,2.427951635E0,5.395560928E0,5.938659901E0
1.579129192E1,-3.294132726E-1,2.705140062E0,5.209394352E0,5.879122841E0
1.580134692E1,3.019318524E-2,2.643416269E0,5.015934545E0,5.669934793E0
1.581140192E1,4.328938234E-1,2.801053694E0,4.669995140E0,5.462797221E0
1.582145592E1,4.932677503E-1,3.255474737E0,4.373790398E0,5.474620652E0
1.583151092E1,6.561792183E-1,3.817252412E0,3.717371444E0,5.368504224E0
1.584156592E1,1.053333873E0,4.156785607E0,2.952463251E0,5.206286400E0
1.585162092E1,1.363946812E0,3.896232508E0,1.986913553E0,4.581353963E0
1.586167492E1,4.779520652E-1,2.301730714E0,1.973401223E0,3.069318302E0
1.587172992E1,-1.647873133E0,-6.770467615E-1,3.251878114E0,3.707909040E0
1.588178492E1,-3.575375028E0,-4.511587636E0,4.972138900E0,7.606569189E0
1.589183992E1,-3.947521068E0,-7.706746005E0,4.159971755E0,9.606363598E0
1.590189492E1,-4.321737900E0,-9.983606172E0,2.616079951E0,1.118899839E1
1.591194892E1,-3.349759920E0,-1.103697272E1,5.480323336E-1,1.154712075E1
1.592200392E1,-2.314425165E0,-1.184150749E1,-3.791489288E0,1.264726273E1
1.593205892E1,2.397731470E0,-1.148535826E1,-7.876951436E0,1.413184116E1
1.594211392E1,3.918041161E0,-1.203420599E1,-7.587998410E0,1.475638439E1
1.595216892E1,2.001456894E0,-1.170045628E1,-7.535490999E0,1.406023227E1
1.596222292E1,1.780365192E0,-9.573785936E0,-7.238164176E0,1.213334653E1
1.597227792E1,2.999842070E0,-6.870721636E0,-6.607782873E0,9.993430979E0
1.598233292E1,5.229737400E0,-4.621096045E0,-5.923689632E0,9.153948918E0
1.599238792E1,5.034729835E0,-4.134943333E0,-4.966900379E0,8.192457522E0
1.600244292E1,5.863903021E0,-2.793192698E0,-4.192569690E0,7.730777755E0
1.601249692E1,6.284041838E0,-1.428032150E0,-5.726132095E0,8.620733520E0
1.602255192E1,5.927459332E0,-1.873237395E-1,-5.989375498E0,8.428670309E0
1.603260692E1,5.651412281E0,1.413504158E0,-6.558791977E0,8.772354699E0
1.604266604E1,4.189371555E0,2.443018740E0,-6.687614908E0,8.260954409E0
1.605272104E1,1.458234919E0,2.937598459E0,-5.232033017E0,6.174957755E0
1.606277504E1,-9.523067772E-3,3.005609763E0,-2.950093374E0,4.211511802E0
1.607283004E1,-1.281224352E0,2.698442076E0,1.402059987E-1,2.990448662E0
1.608288504E1,-2.032471403E0,2.644602084E0,2.422925660E0,4.122551266E0
1.609294004E1,-2.688056252E0,2.661526850E0,3.076352009E0,4.875788477E0
1.610299504E1,-3.342816936E0,2.794111880E0,3.438304891E0,5.550083494E0
1.611304904E1,-3.650936842E0,3.156634573E0,3.100446339E0,5.736414311E0
1.612310404E1,-3.562334860E0,3.036200057E0,1.804323866E0,5.016405591E0
1.613315904E1,-4.018877564E0,2.301950569E0,-4.759224236E-2,4.631697132E0
1.614321404E1,-4.722929691E0,1.009006643E0,-2.642730683E0,5.505286980E0
1.615326804E1,-4.880399594E0,2.003706318E-1,-4.611137360E0,6.717219391E0
1.616332304E1,-4.567697518E0,-7.399651408E-3,-4.330942587E0,6.294519764E0
1.617337804E1,-3.878128359E0,3.171845520E-1,-3.725029250E0,5.386680659E0
1.618343304E1,-3.939901561E0,3.546102405E-1,-3.511480456E0,5.289524339E0
1.619348804E1,-3.796482225E0,7.943769908E-1,-2.768132116E0,4.765172348E0
1.620354204E1,-3.215742906E0,1.415873449E0,-1.474987046E0,3.810680628E0
1.621359704E1,-2.559149120E0,1.952575926E0,-7.522209048E-1,3.305697091E0
1.622365204E1,-1.474782393E0,2.333878121E0,-2.724954522E-1,2.774206907E0
1.623370704E1,-1.550264977E-2,2.618279673E0,9.605455041E-2,2.620086880E0
1.624376204E1,1.462303265E0,2.836352751E0,-1.104205745E-1,3.193026851E0
1.625381604E1,2.817166282E0,2.974585606E0,-3.822243011E-1,4.114690852E0
1.626387104E1,4.297687425E0,3.047995645E0,-6.395509064E-2,5.269201543E0
1.627392604E1,6.059219320E0,3.236104665E0,1.162844255E0,6.966973441E0
1.628398104E1,7.366191886E0,3.158722029E0,3.569803801E0,8.773927680E0
1.629403604E1,8.111692001E0,2.950468765E0,5.921412141E0,1.046747032E1
1.630409004E1,8.953868226E0,2.911511106E0,7.693300917E0,1.215876359E1
1.631414504E1,8.636268522E0,2.416290532E0,8.644569229E0,1.245600944E1
1.632420004E1,6.980711271E0,9.262170857E-1,7.837621309E0,1.053643753E1
1.633425504E1,3.879283184E0,-1.567014034E0,6.279959897E0,7.546010026E0
1.634431004E1,1.824909719E0,-2.662675243E0,4.384539335E0,5.444659779E0
1.635436404E1,1.934664735E0,-2.554793530E0,1.838387990E-1,3.209936809E0
1.636441904E1,2.646452143E0,-3.006413755E0,-6.825690474E0,7.914056044E0
1.637447404E1,2.576891912E0,-3.805666155E0,-9.161364859E0,1.024958891E1
1.638452904E1,2.546924931E0,-4.584051011E0,-6.515106844E0,8.363430364E0
1.639458404E1,2.205210287E0,-5.874936717E0,-4.599945205E0,7.780573869E0
1.640463804E1,1.952012985E0,-7.013611799E0,-1.855073605E0,7.512815933E0
1.641469304E1,1.410915303E0,-8.570499625E0,1.704498738E0,8.851523132E0
1.642474804E1,-1.915031539E0,-9.471393589E0,1.641770686E0,9.801533211E0
1.643480304E1,-7.354215619E0,-6.969547766E0,-2.995127460E0,1.056550387E1
1.644485704E1,-9.965008518E0,-2.578520946E0,-7.212972032E0,1.256889536E1
1.645491204E1,-8.701307686E0,-2.531142712E-1,-6.739499592E0,1.100898165E1
1.646496704E1,-6.586552218E0,8.854906440E-1,-2.953383018E0,7.272498542E0
1.647502204E1,-5.836236920E0,1.580579574E0,8.023414832E-1,6.099479079E0
1.648507704E1,-5.416454199E0,2.341768354E0,2.192482798E0,6.295143837E0
1.649513104E1,-5.533479204E0,2.157676955E0,2.629120411E0,6.495170211E0
1.650518604E1,-6.469186905E0,6.092442030E-1,2.397068688E0,6.925857059E0
1.651524104E1,-6.333795211E0,-2.839004463E-1,2.419547431E0,6.786145520E0
1.652529604E1,-6.035441033E0,-1.564241869E0,3.327100790E0,7.067036207E0
1.653535104E1,-7.110807141E0,-2.747064598E0,2.413757519E0,7.996009471E0
1.654540504E1,-7.237654299E0,-4.017677423E0,2.031052576E0,8.523528975E0
1.655546004E1,-5.572341553E0,-4.086545345E0,2.178438956E0,7.245442673E0
1.656551504E1,-4.483546144E0,-3.988067708E0,2.292197998E0,6.423475830E0
1.657557004E1,-3.830388182E0,-3.489801904E0,2.083807618E0,5.585055518E0
1.658562504E1,-1.971933133E0,-2.083645357E0,1.991599658E0,3.492358437E0
1.659567904E1,-7.114152333E-1,-7.085340178E-1,1.556277084E0,1.852061136E0
1.660573404E1,2.893016656E-1,2.503918076E-1,1.355367924E0,1.408337218E0
1.661578904E1,1.372768068E0,1.121798263E0,8.782459438E-1,1.978443694E0
1.662584404E1,1.996065908E0,1.898781542E0,1.685794373E0,3.229791497E0
1.663589804E1,2.900789652E0,2.928781443E0,3.212086642E0,5.225881930E0
1.664595304E1,2.374453558E0,3.245858406E0,1.361848978E0,4.245969751E0
1.665600804E1,1.203250197E0,2.226760638E0,-9.166919714E-1,2.691950621E0
