"Time (s)","Linear Acceleration x (m/s^2)","Linear Acceleration y (m/s^2)","Linear Acceleration z (m/s^2)","Absolute acceleration (m/s^2)"
8.094041666E-3,-1.309386005E0,7.162114120E-1,-1.272581583E0,1.961355241E0
1.814904166E-2,-1.389316565E0,1.056153327E0,-1.608315842E0,2.373255194E0
2.820404165E-2,-1.298855169E0,1.189895521E0,-1.484886966E0,2.303858808E0
3.826004165E-2,-9.088771677E-1,1.374229580E0,-1.155807424E0,2.012574332E0
4.831504164E-2,-6.824925658E-1,1.353883023E0,-7.217218280E-1,1.679189608E0
5.837004166E-2,-6.187003201E-1,1.283148671E0,-1.271371794E-1,1.430183366E0
6.842504165E-2,-6.190377045E-1,1.133457611E0,2.160540336E-1,1.309432389E0
7.848004164E-2,-7.365167454E-1,1.098554996E0,3.157683563E-1,1.359775588E0
8.853504166E-2,-9.217930824E-1,1.097832280E0,1.268173367E-1,1.439104179E0
9.859004166E-2,-9.953282511E-1,1.163466107E0,-4.675609052E-1,1.600920020E0
1.086450416E-1,-1.410023018E0,1.083868252E0,-9.536270785E-1,2.018003941E0
1.187010416E-1,-1.991747154E0,1.102029704E0,-8.961086029E-1,2.446331299E0
1.287560416E-1,-2.318846537E0,1.247452881E0,-1.214532180E0,2.899702807E0
1.388110417E-1,-2.914839634E0,1.160343986E0,-1.563461266E0,3.505295906E0
1.488660417E-1,-3.437837114E0,8.920711005E-1,-1.528287340E0,3.866545883E0
1.589210416E-1,-3.554175655E0,4.894373855E-1,-9.032416213E-1,3.699670116E0
1.689760417E-1,-2.960317816E0,3.543979865E-1,3.132008439E-1,2.997861616E0
1.790310417E-1,-1.627315638E0,7.894346318E-1,1.905878892E0,2.627496446E0
1.890860416E-1,-2.041536342E-1,1.770339264E0,3.606121150E0,4.022423344E0
1.991420416E-1,5.302365520E-1,2.790690382E0,3.952605515E0,4.867462785E0
2.091970417E-1,2.754882399E-1,2.798054365E0,3.875742111E0,4.788149842E0
2.192520417E-1,3.923761273E-2,2.011590411E0,4.742083123E0,5.151251103E0
2.293070416E-1,6.702682306E-1,9.184133917E-1,6.476431605E0,6.575477853E0
2.393620416E-1,1.177832131E0,-3.782043403E-1,6.687689753E0,6.801141175E0
2.494170417E-1,5.901960574E-1,-1.084067935E0,4.210737281E0,4.387920137E0
2.594720417E-1,1.494056424E-1,-1.206229134E0,1.796161153E0,2.168756707E0
2.695270416E-1,-4.787320838E-1,-1.109279959E0,7.852712388E0,7.945110338E0
2.795830416E-1,-1.322675702E0,-2.697418229E0,5.209386751E0,6.013588483E0
2.896380417E-1,-2.428948000E0,-4.244788542E0,3.881262467E0,6.243574016E0
2.996930417E-1,-2.615215148E0,-3.512460449E0,3.700406333E0,5.733213384E0
3.097480416E-1,-3.529667343E-1,-1.177560820E0,2.970444024E0,3.214774129E0
3.198030416E-1,4.559772786E-1,-5.752309495E-1,2.869355605E0,2.961757504E0
3.298580417E-1,-1.037874931E-1,-1.501279635E0,2.224007185E0,2.685297068E0
3.399130417E-1,-1.666955813E0,-3.061226724E0,1.266456624E0,3.708606628E0
3.499680416E-1,-2.407701703E0,-4.021828946E0,2.441966826E-1,4.693800974E0
3.600240416E-1,-1.672893076E0,-3.946422084E0,5.961552107E-1,4.327611298E0
3.700790417E-1,-1.229104465E0,-5.132858393E0,2.339527701E0,5.773241977E0
3.801340417E-1,-1.302445652E0,-6.012158005E0,3.725220162E0,7.191639160E0
3.901890416E-1,6.694506437E-2,-5.936445917E0,3.697540612E0,6.994117411E0
4.002440417E-1,-1.483581868E-1,-6.212950805E0,3.080730112E0,6.936401508E0
4.102990417E-1,-5.941864532E-1,-6.252570954E0,1.176788988E0,6.390033912E0
4.203540416E-1,-6.358972737E-1,-5.961233434E0,-1.431216543E0,6.163525792E0
4.304090416E-1,-1.411923655E0,-5.404200189E0,-3.761209774E0,6.733914690E0
4.404650416E-1,-1.778361351E0,-4.648638185E0,-5.885060586E0,7.707551114E0
4.505200417E-1,-2.093745253E0,-4.014521681E0,-7.463133459E0,8.729176052E0
4.605754167E-1,-2.716169665E0,-3.376426147E0,-7.989548929E0,9.089044133E0
4.706304166E-1,-3.352987583E0,-2.776082575E0,-6.817363454E0,8.088609563E0
4.806854167E-1,-3.801850846E0,-2.348788521E0,-4.641791680E0,6.443377017E0
4.907404167E-1,-3.849438996E0,-1.856220244E0,-3.087286887E0,5.272103423E0
5.007954167E-1,-3.461957463E0,-1.193239544E0,-2.679645032E0,4.537561855E0
5.108504166E-1,-2.811582191E0,-4.613271886E-1,-2.974639108E0,4.119016268E0
5.209064166E-1,-1.639168090E0,5.528080469E-1,-3.963379886E0,4.324447813E0
5.309614167E-1,-3.581232476E-1,1.736828871E0,-4.787822675E0,5.105690233E0
5.410164167E-1,4.661558193E-1,2.576359815E0,-5.673373253E0,6.248367404E0
5.510714166E-1,8.280563682E-1,2.700433930E0,-5.687015392E0,6.349816126E0
5.611264167E-1,1.241444575E0,2.438778631E0,-5.092291580E0,5.781025807E0
5.711814167E-1,1.223288385E0,1.774501604E0,-4.301245748E0,4.811029557E0
5.812364166E-1,1.186188387E0,8.296693227E-1,-4.123222589E0,4.369938054E0
5.912914166E-1,6.495280105E-1,-9.068563700E-2,-4.388536491E0,4.437269775E0
6.013464167E-1,-6.079233170E-2,-6.965399167E-1,-5.067599373E0,5.115606217E0
6.114024167E-1,-1.042429912E0,-9.184791729E-1,-5.489502879E0,5.662588275E0
6.214574167E-1,-1.173250837E0,-8.432117665E-1,-6.037161283E0,6.207643673E0
6.315124166E-1,-1.317398152E0,-1.232942431E0,-6.269804453E0,6.524272588E0
6.415674167E-1,-1.356645833E0,-1.663413424E0,-5.560188700E0,5.960128397E0
6.516224167E-1,-8.443455416E-1,-1.574081271E0,-4.198008478E0,4.562228230E0
6.616774166E-1,-1.427413514E0,-3.491464560E-1,-4.476809567E0,4.711818809E0
6.717324166E-1,2.132292438E-1,5.558567121E-1,-3.124840338E0,3.181048653E0
6.817874167E-1,1.057195301E0,1.515310176E0,-2.538886764E0,3.140027521E0
6.918424167E-1,1.105740055E0,2.922551234E0,-3.225105468E0,4.490575917E0
7.018984166E-1,9.910720628E-1,3.701768734E0,-3.456252919E0,5.160523213E0
7.119534166E-1,3.876072478E-1,2.623497436E0,-2.714106767E0,3.794648036E0
7.220084167E-1,-5.368480718E-1,5.987681852E-1,-1.233908683E0,1.472840735E0
7.320634167E-1,-8.841814524E-1,-9.778238071E-1,1.840546782E0,2.263963051E0
7.421184166E-1,2.517869532E-2,-1.571578370E0,4.936746873E0,5.180922913E0
7.521734167E-1,1.286049474E0,-1.717415822E0,8.351695061E0,8.622891090E0
7.622284167E-1,2.140694886E0,-3.472433627E0,1.071579335E1,1.146597562E1
7.722834166E-1,2.037316114E0,-4.261832591E0,1.032947366E1,1.135834055E1
7.823394166E-1,2.930866560E0,-4.959288474E0,1.075680806E1,1.220218999E1
7.923944166E-1,5.562449818E0,-4.162995643E0,9.708425678E0,1.193837970E1
8.024494167E-1,5.216473576E0,-3.773246852E0,5.567777216E0,8.511705558E0
8.125044167E-1,2.621691524E0,-3.426957200E0,3.531705390E0,5.575862719E0
8.225594166E-1,4.820111293E-1,-1.932451856E0,2.321121397E0,3.058481558E0
8.326144167E-1,-9.241717297E-1,-6.377739376E-1,1.069741233E0,1.550869204E0
8.426694167E-1,-1.615937102E0,-8.473346382E-2,3.154094835E-1,1.648610209E0
8.527244166E-1,-2.304982935E0,-3.987789381E-1,-1.570339930E-1,2.344489422E0
8.627794166E-1,-3.153066602E0,-5.185965729E-1,-3.854543030E-1,3.218593858E0
8.728354167E-1,-3.622600942E0,-4.470459491E-2,-3.845327818E-1,3.643226804E0
8.828904167E-1,-3.613783926E0,5.768301630E-1,-1.007436811E0,3.795668087E0
8.929454167E-1,-1.925706800E0,1.678047689E0,-3.088328277E-1,2.572852200E0
9.030004166E-1,-1.037308336E0,1.516751953E0,-8.800550723E-1,2.037410612E0
9.130554167E-1,-9.039158052E-1,-2.913644171E-1,-2.114836160E0,2.318294414E0
9.231104167E-1,-7.872258461E-1,-1.697720354E0,-2.416615638E0,3.056470198E0
9.331654166E-1,-9.534692037E-1,-1.034916240E0,3.785414323E-1,1.457205806E0
9.432204167E-1,-9.232987404E-2,5.002053255E-1,1.588180662E0,1.667647441E0
9.532754167E-1,1.455387763E0,3.267301900E0,2.178615396E0,4.188052088E0
9.633314167E-1,3.119494228E0,5.135638159E0,2.353517164E0,6.453298891E0
9.733864166E-1,3.950778552E0,6.304024113E0,-5.183110826E-1,7.457748827E0
9.834414166E-1,3.311781669E0,5.000764529E0,-3.088881716E0,6.746609070E0
9.934964167E-1,9.515197420E-1,-6.850843441E-1,-5.180035483E0,5.311073148E0
1.003551417E0,3.433514267E-1,-5.065420116E0,-5.747724109E0,7.668944098E0
1.013606417E0,9.298213094E-2,-7.476725897E0,-4.768744673E0,8.868539990E0
1.023661417E0,8.674987614E-2,-7.143093127E0,-2.472533730E0,7.559413205E0
1.033716417E0,1.138172221E-1,-4.303505697E0,3.945226036E-2,4.305191299E0
1.043771417E0,-1.403738138E-1,-1.926045939E0,4.606986129E-1,1.985346564E0
1.053827417E0,-1.151264137E0,-4.996983719E-1,9.158330154E-1,1.553659451E0
1.063882417E0,-2.511678793E0,-4.948732495E-2,8.128916144E-1,2.640411356E0
1.073937417E0,-2.696418063E0,7.219264805E-1,1.352789594E0,3.101916810E0
1.083992417E0,-2.594632949E0,8.668438733E-1,1.315434072E0,3.035441523E0
1.094047417E0,-1.820230339E0,9.433815873E-1,4.309959269E-1,2.094985631E0
1.104102417E0,-1.174384320E0,9.998709530E-1,-2.435566317E0,2.882863809E0
1.114157417E0,-5.060952258E-1,5.679195911E-1,-4.825617031E0,4.885206727E0
1.124212417E0,2.260328919E-2,4.757236183E-1,-4.563784561E0,4.588567684E0
1.134267417E0,2.838975227E-1,1.043264310E0,-3.625400004E0,3.783189582E0
1.144323417E0,1.203477434E0,6.388983572E-1,-3.000037951E0,3.294962330E0
1.154378417E0,1.652317016E0,1.099177725E0,-2.018521993E0,2.830684410E0
1.164433417E0,3.897496676E-1,5.914809465E-1,-2.399530073E0,2.501899096E0
1.174488417E0,-1.108497309E0,-1.719328154E0,-2.580870942E0,3.293288692E0
1.184543417E0,-1.883294314E0,-2.664607163E0,-2.826786121E0,4.317134302E0
1.194598417E0,-1.826913999E0,-2.215064453E0,-2.054899861E0,3.530826918E0
1.204653417E0,-1.425536119E0,-1.110217853E0,1.162227666E-1,1.810592345E0
1.214708417E0,-9.287699801E-1,-1.105994993E-1,4.220031431E0,4.322442735E0
1.224763417E0,-1.520282355E0,-1.148910633E0,-1.385281402E0,2.355898691E0
1.234819417E0,-5.018665195E-1,1.259431779E-2,-8.604821026E-1,9.962218975E-1
1.244874417E0,-2.479386082E-1,6.373564464E-1,3.163191640E-1,7.534949281E-1
1.254929417E0,-7.797539815E-2,5.548130572E-1,1.963190961E-1,5.936656286E-1
1.264984417E0,6.195158605E-1,2.193699896E-1,-2.225233930E0,2.320256266E0
1.275039417E0,1.214262916E0,8.848334169E-1,1.048982229E0,1.832410522E0
1.285094417E0,1.174124119E0,1.245621241E0,4.354985168E0,4.679319986E0
1.295149417E0,8.331893465E-1,5.927322507E-3,2.759366555E0,2.882419714E0
1.305204417E0,7.358886082E-1,-1.991147668E0,9.240215293E-1,2.315171023E0
1.315259417E0,1.326513376E0,-2.583391677E0,3.500133934E0,4.548020212E0
1.325315417E0,2.160555539E0,-2.357782708E0,2.736558906E0,4.209025324E0
1.335370417E0,1.570053855E0,-2.437603633E0,1.769577956E0,3.396820090E0
1.345425417E0,4.648572989E-1,-2.609988906E0,6.661370265E-1,2.733472688E0
1.355480417E0,-5.082483168E-1,-2.914387937E0,-6.290569085E-1,3.024514174E0
1.365535417E0,-1.102992302E0,-3.294947535E0,-1.374113805E0,3.736503717E0
1.375590417E0,-1.296886558E0,-2.674187826E0,-2.178529295E0,3.684994595E0
1.385645417E0,-1.290667167E0,-1.512631420E0,-2.113940951E0,2.902175373E0
1.395700417E0,-1.406375232E0,-6.439795876E-1,-1.628198129E0,2.245802785E0
1.405755417E0,-1.571179298E0,1.478445089E-1,-7.710903814E-1,1.756428980E0
1.415811417E0,-1.476308809E0,1.086965230E0,-1.468882699E-2,1.833356722E0
1.425866417E0,-7.237409446E-1,2.365187037E0,-8.123460692E-1,2.603424055E0
1.435921417E0,-6.178058423E-2,1.338139980E0,-2.239764846E0,2.609785817E0
1.445976417E0,6.469365245E-1,2.227648830E-1,-3.173803752E0,3.246718546E0
1.456031417E0,1.236012950E0,-4.532586157E-1,-2.337425042E0,2.682671655E0
1.466086875E0,1.699459900E0,-6.319892871E-1,-5.991899157E-1,1.909608066E0
1.476141875E0,2.102683892E0,-4.088227004E-1,6.976874328E-1,2.252816749E0
1.486196875E0,2.886017539E0,2.655279100E-2,2.141426958E0,3.593815758E0
1.496251875E0,3.176670057E0,-2.317105383E-1,3.764043335E0,4.930815820E0
1.506307875E0,2.122833251E0,-3.397366780E-1,5.626250104E-1,2.222248619E0
1.516362875E0,1.096937145E0,-6.572820032E-1,-7.487791606E-1,1.481877513E0
1.526417875E0,9.757867102E-1,-5.235672909E-1,-1.311362071E0,1.716377841E0
1.536472875E0,1.057668926E0,-1.022561073E-1,-7.060897355E-1,1.275806640E0
1.546527875E0,1.083017482E0,-7.549690962E-2,3.100603044E-1,1.129054491E0
1.556582875E0,9.675766347E-1,-1.185376793E-1,1.264066136E0,1.596282845E0
1.566637875E0,6.558516280E-1,-1.789487725E-1,1.750648326E0,1.878013201E0
1.576692875E0,3.313252025E-1,1.688968241E-1,1.851278615E0,1.888262439E0
1.586747875E0,2.037734190E-1,7.201904422E-1,1.718568016E0,1.874479636E0
1.596802875E0,1.894603121E-1,1.150198774E0,1.670797434E0,2.037257101E0
1.606858875E0,8.420451008E-2,1.448524302E0,1.724894704E0,2.254013041E0
1.616913875E0,2.106922465E-1,1.683022208E0,2.132865465E0,2.725081662E0
1.626968875E0,7.941797204E-1,-3.830813275E0,4.530080041E0,5.985605813E0
1.637023875E0,6.358886198E0,-1.962129107E0,3.536860296E0,7.536230163E0
1.647078875E0,9.349422424E0,8.492148689E0,1.204354516E0,1.268774049E1
1.657133875E0,4.631990285E0,1.520473706E0,1.921875851E0,5.240303529E0
1.667188875E0,7.374759811E-1,-1.858569655E0,-7.928801036E-1,2.151002288E0
1.677243875E0,-1.034327718E0,-7.005899906E-2,-3.945206448E0,4.079141577E0
1.687298875E0,-3.156809697E0,-1.943824983E-1,-5.016346189E0,5.930173784E0
1.697354875E0,-3.888107802E0,1.192095829E0,-4.889425356E0,6.359634821E0
1.707409875E0,-4.265300574E0,2.943445090E0,-4.074984230E0,6.592583292E0
1.717464875E0,-3.970980682E0,3.777969648E0,-3.151703616E0,6.322576842E0
1.727519875E0,-3.023620065E0,3.453842112E0,-3.210423110E0,5.601617639E0
1.737574875E0,-1.422141080E0,3.327567397E0,-3.186199849E0,4.821520457E0
1.747629875E0,-2.259131701E-1,2.244896362E0,-3.444822198E0,4.117935941E0
1.757684875E0,-3.202305128E-1,9.127877855E-1,-2.954056032E0,3.108404119E0
1.767739875E0,4.662151685E-1,1.417910619E0,-2.511870289E0,2.921869172E0
1.777794875E0,-4.416970624E-1,1.505941036E0,-1.983037580E0,2.528911375E0
1.787850875E0,-8.747976945E-1,1.613440341E0,-1.466600969E0,2.349335894E0
1.797905875E0,-6.243684648E-1,4.877536798E-1,-8.023110777E-1,1.127582679E0
1.807960875E0,-5.188848406E-2,-3.535530639E-1,-2.662032634E-1,4.455966351E-1
1.818015875E0,7.795382193E-1,-3.137516516E-1,-2.530382756E-1,8.775809382E-1
1.828070875E0,1.404426063E0,-1.679782265E-1,-3.654948324E-1,1.460895521E0
1.838125875E0,1.735649049E0,-3.444466102E-1,-4.151207364E-1,1.817538532E0
1.848180875E0,1.797276363E0,-8.261536843E-1,-4.955456793E-1,2.039190466E0
1.858235875E0,1.804094509E0,-1.275885260E0,-4.685865068E-1,2.258807983E0
1.868290875E0,1.665788270E0,-1.870644155E0,-3.795953929E-1,2.533427082E0
1.878345875E0,1.541135719E0,-2.303380213E0,-1.800579894E-1,2.777243344E0
1.888401875E0,2.236598433E0,-2.168786665E0,-1.446402530E-1,3.118802486E0
1.898456875E0,2.354704441E0,-2.433957894E0,-7.602386069E-1,3.470842373E0
1.908511875E0,1.842376522E0,-3.206910687E0,-3.346805906E-1,3.713574895E0
1.918566875E0,1.328467662E0,-3.749209533E0,4.548779290E-2,3.977872244E0
1.928621875E0,1.017913999E0,-3.643248045E0,-1.206946989E-1,3.784702424E0
1.938676875E0,1.001209234E0,-2.933646326E0,-4.206895880E-1,3.128207223E0
1.948731875E0,6.288544486E-1,-2.401915153E0,-7.319450998E-1,2.588512690E0
1.958786875E0,2.373004764E-2,-1.696154469E0,-8.253005755E-1,1.886431589E0
1.968841875E0,-1.970684168E-1,-7.842993146E-1,-7.068324780E-1,1.074045403E0
1.978897875E0,1.566439837E-2,1.509710151E-1,-3.541670581E-1,3.853205494E-1
1.988952875E0,2.588920511E-1,8.324979132E-1,7.655755799E-2,8.751793698E-1
1.999007875E0,6.189459032E-1,1.366250469E0,3.917621696E-1,1.550229652E0
2.009062875E0,9.277807774E-1,1.659952603E0,8.385608912E-1,2.078317633E0
2.019117875E0,9.529751140E-1,1.793870798E0,1.161344737E0,2.339840936E0
2.029172875E0,5.881513958E-1,1.533512996E0,2.086044470E0,2.655026498E0
2.039227875E0,-2.694130924E-1,1.210336218E0,3.582158675E0,3.790693597E0
2.049282875E0,-5.777736112E-1,1.391661884E0,3.971376246E0,4.247631626E0
2.059337875E0,8.197211623E-2,1.460242707E0,3.146911823E0,3.470170343E0
2.069393875E0,-3.636817570E-1,3.465369898E-1,2.043991295E0,2.104816553E0
2.079448875E0,-4.881284863E-1,5.259512007E-2,8.508681107E-1,9.823503487E-1
2.089503875E0,-2.642809913E-2,7.688386917E-2,1.366622937E-1,1.590162139E-1
2.099558875E0,9.017766014E-2,1.402957535E-1,1.905888247E-1,2.532568044E-1
2.109613875E0,-5.668214840E-1,6.889481843E-2,8.627917528E-1,1.034622008E0
2.119668875E0,7.007200912E-2,5.523396850E-2,8.892164898E-1,8.936816231E-1
2.129723875E0,5.069623679E-1,-6.253450960E-1,2.103271537E0,2.252069823E0
2.139778875E0,1.171638468E0,-6.157363665E-1,3.045264995E0,3.320467868E0
2.149833875E0,1.601030942E0,-3.594318545E-1,2.054729122E0,2.629525261E0
2.159888875E0,9.705756716E-1,-7.341360515E-1,6.049880147E-1,1.359037665E0
2.169944875E0,6.119073173E-1,-4.908544582E-1,1.475276081E-1,7.982061509E-1
2.179999875E0,2.612461402E-1,-5.061349869E-3,2.599449885E-1,3.685736833E-1
2.190054875E0,-1.207872494E-1,2.419121754E-1,-1.172477835E-1,2.947169879E-1
2.200109875E0,-1.343893348E-1,2.017254317E-1,-6.484129465E-1,6.922376703E-1
2.210164875E0,-7.554164082E-3,1.825027102E-1,-1.363413400E0,1.375594564E0
2.220219875E0,-1.175668222E-1,1.789101809E-1,-1.999381133E0,2.010809719E0
2.230274875E0,-2.285941185E-1,4.054792625E-1,-2.193058457E0,2.241913044E0
2.240329875E0,-4.208723500E-1,6.368565094E-1,-2.012988188E0,2.152868132E0
2.250384875E0,-4.400762873E-1,8.400121701E-1,-1.706903406E0,1.952640986E0
2.260440875E0,-3.518401220E-1,8.724776655E-1,-1.517313285E0,1.785286631E0
2.270495875E0,-1.362214867E-1,7.678499275E-1,-1.317374178E0,1.530890110E0
2.280550875E0,3.035797622E-1,7.250851464E-1,-1.222704833E0,1.453587373E0
2.290605875E0,7.673616850E-1,6.534257644E-1,-1.147055896E0,1.526940213E0
2.300660875E0,1.040387333E0,4.717948741E-1,-8.323950022E-1,1.413462998E0
2.310715875E0,1.102043299E0,2.184461296E-1,-4.166649860E-1,1.198260345E0
2.320770875E0,1.044082481E0,6.919711947E-2,-1.414716194E-1,1.055893313E0
2.330825875E0,9.700661599E-1,6.941522062E-2,-1.204684299E-1,9.799793212E-1
2.340880875E0,7.513851915E-1,1.737394881E-1,-1.452378201E-1,7.847669337E-1
2.350935875E0,3.585601077E-1,1.571439207E-1,-1.377487520E-2,3.917260648E-1
2.360991875E0,-1.443922397E-1,1.643377501E-1,1.849474311E-1,2.864639022E-1
2.371046875E0,-5.786432019E-1,2.584551179E-1,3.014239486E-1,7.017716152E-1
2.381101875E0,-9.404633881E-1,4.126824474E-1,4.415220845E-1,1.117908734E0
2.391156875E0,-1.344561684E0,5.537301528E-1,5.887374330E-1,1.568781365E0
2.401211875E0,-1.717847639E0,6.722426891E-1,7.783006561E-1,2.002164493E0
2.411266875E0,-1.923642295E0,8.478421766E-1,9.922876990E-1,2.324622746E0
2.421321875E0,-2.083291601E0,9.460280371E-1,1.002247846E0,2.497913867E0
2.431376875E0,-2.037522667E0,8.630800205E-1,9.967292440E-1,2.426906452E0
2.441431875E0,-1.767590195E0,9.006922352E-1,9.215165091E-1,2.187421833E0
2.451487875E0,-1.567745374E0,7.816154426E-1,6.797318029E-1,1.879037941E0
2.461543000E0,-1.277284791E0,4.536620736E-1,4.303854775E-1,1.422145342E0
2.471598000E0,-1.134575014E0,5.860079527E-2,1.641126323E-1,1.147879555E0
2.481653000E0,-1.275374944E0,-3.909179413E-1,-1.292942172E-1,1.340192180E0
2.491708000E0,-1.383218504E0,-7.091567463E-1,-4.337628293E-1,1.613798907E0
2.501763000E0,-1.399465139E0,-9.748092020E-1,-7.245805317E-1,1.853044145E0
2.511818000E0,-1.328679770E0,-1.143782625E0,-9.566436571E-1,1.997196963E0
2.521873000E0,-1.388932988E0,-1.281574600E0,-9.586773187E-1,2.119110781E0
2.531928000E0,-1.585281759E0,-1.022870976E0,-1.013319549E0,2.141541453E0
2.541983000E0,-1.721405378E0,-6.259210467E-1,-1.100253612E0,2.136719833E0
2.552039000E0,-1.801566319E0,-5.805946004E-1,-1.160196928E0,2.220087432E0
2.562094000E0,-1.729267836E0,-7.683147812E-1,-1.308634930E0,2.300695597E0
2.572149000E0,-1.322925086E0,-1.276295149E0,-1.413549181E0,2.318875025E0
2.582204000E0,-5.083634339E-1,-2.040596402E0,-1.146988068E0,2.395422444E0
2.592259000E0,3.398698483E-1,-2.627987221E0,-1.087807814E0,2.864464031E0
2.602314000E0,1.024943814E0,-3.125056100E0,-1.137357119E0,3.479952107E0
2.612369000E0,1.684518510E0,-3.363179280E0,-9.901125348E-1,3.889588707E0
2.622424000E0,2.378682849E0,-3.130513306E0,-6.291744375E-1,3.981721503E0
2.632479000E0,2.818412616E0,-2.580434740E0,-5.024278522E-2,3.821598809E0
2.642535000E0,2.937713357E0,-1.721995069E0,3.527169120E-1,3.423424602E0
2.652590000E0,2.699897156E0,-5.259196258E-1,3.572496736E-1,2.773745380E0
2.662645000E0,2.247940277E0,4.180969691E-1,2.776795936E-1,2.303290368E0
2.672700000E0,1.854044495E0,9.907908118E-1,3.188685501E-1,2.126223077E0
2.682755000E0,1.607553365E0,1.228125787E0,4.677223615E-1,2.076363402E0
2.692810000E0,1.489810760E0,1.383111500E0,8.167367435E-1,2.190797214E0
2.702865000E0,1.661026590E0,1.364770539E0,1.139269159E0,2.433010928E0
2.712920000E0,1.834704536E0,9.233952194E-1,1.476072289E0,2.529345542E0
2.722975000E0,1.927332911E0,2.497164541E-1,1.888663520E0,2.709985304E0
2.733030000E0,2.028676122E0,-4.998521537E-1,2.512159141E0,3.267464236E0
2.743086000E0,2.085112862E0,-1.182582409E0,3.176266015E0,3.979304286E0
2.753141000E0,1.728710889E0,-1.732335286E0,3.761912609E0,4.487918600E0
2.763196000E0,1.475921577E0,-1.941283198E0,4.149557279E0,4.813081193E0
2.773251000E0,1.213689158E0,-1.425245367E0,4.250959693E0,4.644892253E0
2.783306000E0,6.450994755E-1,-8.021374154E-1,3.858717942E0,3.993655208E0
2.793361000E0,1.572393034E-1,-6.777256233E-1,3.118509557E0,3.195174186E0
2.803416000E0,-1.385641737E-1,-3.018256706E-1,2.234618711E0,2.259163463E0
2.813471000E0,-2.672785664E-1,1.156585103E-1,1.177808157E0,1.213279349E0
2.823526000E0,-2.922320708E-1,4.220491022E-1,1.289006996E-1,5.292829283E-1
2.833581000E0,-2.572897861E-1,7.333525246E-1,-6.370705906E-1,1.004919348E0
2.843637000E0,-1.808645945E-1,9.393277127E-1,-1.222544108E0,1.552308812E0
2.853692000E0,-1.764538387E-1,1.096501454E0,-1.776032113E0,2.094693644E0
2.863747000E0,-8.232735286E-2,1.314867477E0,-2.258119987E0,2.614337421E0
2.873802000E0,5.977195602E-2,1.545583988E0,-2.506220709E0,2.945088249E0
2.883857000E0,2.678284970E-1,1.734716272E0,-2.326149856E0,2.914094336E0
2.893912000E0,4.367596735E-1,1.835832757E0,-2.008056647E0,2.755600192E0
2.903967000E0,5.826997808E-1,1.976316206E0,-1.659900563E0,2.645871247E0
2.914022000E0,7.654452601E-1,2.071015372E0,-1.299439598E0,2.561943478E0
2.924077000E0,9.832078502E-1,2.040114006E0,-9.563238144E-1,2.458316105E0
2.934132000E0,1.058980602E0,1.838420734E0,-8.476650059E-1,2.284680869E0
2.944188000E0,9.652292700E-1,1.455390102E0,-9.773971796E-1,2.001282874E0
2.954243000E0,8.539100515E-1,9.829754233E-1,-1.132312142E0,1.725553200E0
2.964298000E0,7.486466481E-1,4.793939155E-1,-1.236349311E0,1.522777051E0
2.974353000E0,5.383910058E-1,4.043057263E-2,-1.224426838E0,1.338178085E0
2.984408000E0,4.110535959E-1,-1.584531122E-1,-1.145946679E0,1.227707717E0
2.994463000E0,2.363170478E-1,-2.263346082E-1,-1.122675930E0,1.169390588E0
3.004518000E0,3.068436049E-2,-7.786152363E-2,-1.120286758E0,1.123408370E0
3.014573000E0,-1.848934174E-1,1.924991101E-1,-1.200881270E0,1.230185884E0
3.024628000E0,-4.082170750E-1,4.240786707E-1,-1.285779333E0,1.414111874E0
3.034684000E0,-5.488228771E-1,6.171128011E-1,-1.433999233E0,1.654807711E0
3.044739000E0,-5.991210647E-1,8.263875729E-1,-1.624812591E0,1.918822146E0
3.054794000E0,-5.686596293E-1,1.013909533E0,-1.838558729E0,2.175243553E0
3.064849000E0,-5.488573757E-1,1.170552347E0,-1.972635968E0,2.358544017E0
3.074904000E0,-5.469569940E-1,1.347531778E0,-1.952271286E0,2.434413075E0
3.084959000E0,-4.949313928E-1,1.367166728E0,-1.756891252E0,2.280519418E0
3.095014000E0,-4.583758431E-1,1.256709900E0,-1.411965755E0,1.945012977E0
3.105069000E0,-4.115935862E-1,1.096392111E0,-1.072519099E0,1.588012015E0
3.115124000E0,-3.497534700E-1,7.700350320E-1,-7.691398233E-1,1.143178686E0
3.125179000E0,-2.255902211E-1,3.223803878E-1,-5.043013000E-1,6.396404174E-1
3.135235000E0,-7.758948192E-2,-1.380439907E-1,-3.956927776E-1,4.262030565E-1
3.145290000E0,1.023658523E-1,-5.065822989E-1,-3.731277877E-1,6.374392043E-1
3.155345000E0,2.397877358E-1,-7.854769439E-1,-4.272683269E-1,9.257593698E-1
3.165400000E0,3.616153875E-1,-9.855213010E-1,-5.138685143E-1,1.168793726E0
3.175455000E0,4.828155965E-1,-1.090555421E0,-6.407969481E-1,1.353899093E0
3.185510000E0,6.121940867E-1,-1.084373744E0,-8.938743818E-1,1.532859885E0
3.195565000E0,7.494636503E-1,-9.810230380E-1,-1.243698676E0,1.752395036E0
3.205620000E0,7.992631435E-1,-9.453965378E-1,-1.629154149E0,2.046152347E0
3.215675000E0,7.822352475E-1,-1.112014702E0,-1.897913230E0,2.334639867E0
3.225731000E0,6.221427952E-1,-1.430354664E0,-2.033058756E0,2.562480054E0
3.235786000E0,2.655571095E-1,-1.893397425E0,-1.884785646E0,2.684751631E0
3.245841000E0,-4.572544567E-2,-2.297419562E0,-1.372960149E0,2.676797906E0
3.255896000E0,-2.302520234E-1,-2.441784977E0,-7.143204224E-1,2.554522174E0
3.265951000E0,-3.540408678E-1,-2.338638924E0,-1.635243658E-1,2.370931709E0
3.276006000E0,-4.300358140E-1,-2.166600391E0,1.934329104E-1,2.217319180E0
3.286061000E0,-5.419480133E-1,-2.090932742E0,5.278796490E-1,2.223592657E0
3.296116000E0,-6.910515739E-1,-2.107567486E0,8.612001407E-1,2.379297936E0
3.306171000E0,-8.508629943E-1,-2.113620524E0,1.212040097E0,2.580775223E0
3.316226000E0,-1.023088127E0,-1.990096924E0,1.580859071E0,2.739764677E0
3.326282000E0,-1.209956734E0,-1.734313983E0,1.886022917E0,2.833535377E0
3.336337000E0,-1.300302209E0,-1.296965641E0,1.929175369E0,2.663573410E0
3.346392000E0,-1.398934066E0,-7.639322931E-1,1.722234221E0,2.346635843E0
3.356447000E0,-1.521957144E0,-2.635457039E-1,1.433315109E0,2.107178703E0
3.366502000E0,-1.641111412E0,1.363699329E-1,1.094332210E0,1.977221893E0
3.376557000E0,-1.798285300E0,4.627568328E-1,7.929830146E-1,2.019107716E0
3.386612000E0,-1.957158681E0,7.706548369E-1,5.348027158E-1,2.170343965E0
3.396667000E0,-2.144418393E0,1.004531769E0,2.972771215E-1,2.386626910E0
3.406722000E0,-2.279246854E0,1.225754741E0,1.928727837E-1,2.595118652E0
3.416777000E0,-2.309388520E0,1.404625161E0,1.634155711E-1,2.707942360E0
3.426833000E0,-2.346987432E0,1.406396867E0,2.459863691E-1,2.747146055E0
3.436888000E0,-2.252137408E0,1.224585882E0,4.226050993E-1,2.598139442E0
3.446943000E0,-2.068658651E0,9.940845484E-1,6.699049723E-1,2.390883807E0
3.456998000E0,-1.811769272E0,8.018859851E-1,9.159850430E-1,2.182786665E0
3.467052125E0,-1.612689705E0,6.984300292E-1,1.048288822E0,2.046333806E0
3.477107125E0,-1.481239912E0,6.095371485E-1,1.096186874E0,1.940936082E0
3.487162125E0,-1.367213652E0,5.126844531E-1,1.128895029E0,1.845676706E0
3.497217125E0,-1.249623806E0,3.763665605E-1,1.039022155E0,1.668166204E0
3.507272125E0,-1.225485038E0,2.863866824E-1,9.528213322E-1,1.578511768E0
3.517328125E0,-1.154054501E0,2.909796703E-1,8.514857228E-1,1.463399773E0
3.527383125E0,-1.124076923E0,4.424658251E-1,7.093818641E-1,1.400909549E0
3.537438125E0,-1.171245169E0,5.948828566E-1,7.497464363E-1,1.512554322E0
3.547493125E0,-1.221019008E0,7.279350793E-1,8.093517101E-1,1.635795552E0
3.557548125E0,-1.389551770E0,7.579576081E-1,8.568615067E-1,1.799879301E0
3.567603125E0,-1.471652086E0,8.183634388E-1,9.897335621E-1,1.953215581E0
3.577658125E0,-1.360033271E0,8.979843897E-1,9.430717579E-1,1.882936749E0
3.587713125E0,-1.465987304E0,8.994350839E-1,8.274511814E-1,1.908606220E0
3.597768125E0,-1.349729015E0,9.260048318E-1,8.145826292E-1,1.828332088E0
3.607823125E0,-1.184681705E0,9.173047596E-1,7.367140889E-1,1.669630622E0
3.617879125E0,-1.194485586E0,8.823319781E-1,4.995417031E-1,1.566795279E0
3.627934125E0,-1.272808162E0,8.511768436E-1,2.383477128E-1,1.549629720E0
3.637989125E0,-1.307051211E0,8.240644741E-1,6.509138737E-3,1.545156139E0
3.648044125E0,-1.357601268E0,7.561800545E-1,-1.317880182E-1,1.559569671E0
3.658099125E0,-1.444661631E0,6.967220575E-1,-2.351060164E-1,1.621031675E0
3.668154125E0,-1.552506653E0,6.157281804E-1,-3.923996258E-1,1.715626873E0
3.678209125E0,-1.667111788E0,4.463238180E-1,-6.227249587E-1,1.834735141E0
3.688264125E0,-1.777441438E0,3.201403195E-1,-8.160947192E-1,1.981867422E0
3.698319125E0,-1.864135766E0,2.270538157E-1,-9.484639871E-1,2.103839234E0
3.708375125E0,-1.939601246E0,2.129035538E-1,-1.038105311E0,2.210213464E0
3.718430125E0,-1.935746616E0,1.787663394E-1,-1.100926627E0,2.234079632E0
3.728485125E0,-1.878488780E0,1.218091965E-1,-1.085840811E0,2.173156194E0
3.738540125E0,-1.818680827E0,5.583038449E-2,-9.649648297E-1,2.059581051E0
3.748595125E0,-1.744845111E0,-6.060171247E-2,-8.641512305E-1,1.948053998E0
3.758650125E0,-1.686864852E0,-1.978364486E-1,-8.037319511E-1,1.878999025E0
3.768705125E0,-1.596602407E0,-2.906077874E-1,-7.377619100E-1,1.782662270E0
3.778760125E0,-1.517491333E0,-3.742568851E-1,-6.412430906E-1,1.689390678E0
3.788815125E0,-1.401843786E0,-4.525546110E-1,-5.193415082E-1,1.561949833E0
3.798870125E0,-1.260585289E0,-5.271381855E-1,-3.976609504E-1,1.423054521E0
3.808926125E0,-1.071803546E0,-5.611923695E-1,-2.513834953E-1,1.235675272E0
3.818981125E0,-9.030988761E-1,-5.472473449E-1,-1.013462806E-1,1.060819638E0
3.829036125E0,-8.233211468E-1,-5.542803758E-1,1.715340097E-2,9.926624225E-1
3.839091125E0,-7.897718699E-1,-6.059083664E-1,1.411377434E-1,1.005377749E0
3.849146125E0,-7.706835613E-1,-6.393673038E-1,2.405860269E-1,1.029866660E0
3.859201125E0,-7.572457827E-1,-5.955465156E-1,3.015210307E-1,1.009461123E0
3.869256125E0,-6.931937744E-1,-5.566783190E-1,3.039324041E-1,9.395654666E-1
3.879311125E0,-6.532196501E-1,-6.097400469E-1,2.468928520E-1,9.270571268E-1
3.889366125E0,-6.078914496E-1,-8.036395651E-1,2.096226994E-1,1.029227983E0
3.899421125E0,-5.647819752E-1,-1.091634817E0,1.460283637E-1,1.237727569E0
3.909477125E0,-4.698424157E-1,-1.353238075E0,5.615081191E-2,1.433582261E0
3.919532125E0,-3.641338930E-1,-1.507211636E0,-4.488092501E-2,1.551223615E0
3.929587125E0,-3.197374463E-1,-1.415935430E0,-9.987157624E-2,1.455018731E0
3.939642125E0,-3.369859285E-1,-1.150922660E0,-4.988142729E-2,1.200279401E0
3.949697125E0,-4.765927338E-1,-8.085974193E-1,7.676575541E-2,9.417342521E-1
3.959752125E0,-6.231067088E-1,-4.473172599E-1,2.882057877E-1,8.194005599E-1
3.969807125E0,-6.918706957E-1,-8.798597753E-2,5.604684842E-1,8.947354433E-1
3.979862125E0,-6.963191112E-1,1.932358593E-1,8.442864116E-1,1.111314513E0
3.989917125E0,-6.834232964E-1,3.409166461E-1,1.095040820E0,1.335067773E0
3.999973125E0,-7.096296398E-1,2.998434645E-1,1.351601440E0,1.555733519E0
4.010028125E0,-7.283774212E-1,2.200038278E-1,1.615648835E0,1.785848960E0
4.020083125E0,-7.069290302E-1,4.592520118E-2,1.844050434E0,1.975444198E0
4.030138125E0,-7.837034833E-1,-2.293459243E-1,1.965505289E0,2.128380075E0
4.040193125E0,-7.814605645E-1,-4.510776043E-1,1.987577358E0,2.182799893E0
4.050248125E0,-5.727016268E-1,-6.963992912E-1,1.979530420E0,2.175201097E0
4.060303125E0,-4.496791696E-1,-9.866100526E-1,1.799429162E0,2.100846510E0
4.070358125E0,-4.725474473E-1,-1.122672422E0,1.502382420E0,1.934127037E0
4.080413125E0,-4.656999923E-1,-1.041294383E0,1.069102644E0,1.563378053E0
4.090469125E0,-1.888258527E-1,-8.795948964E-1,5.919697738E-1,1.076926459E0
4.100524125E0,-3.466601468E-1,-7.193466890E-1,3.599662900E-1,8.759044733E-1
4.110579125E0,-5.333141974E-1,-2.038362765E-1,1.621736225E-1,5.935263639E-1
4.120634125E0,-7.329930671E-1,3.256583369E-1,-8.460994139E-3,8.021245397E-1
4.130689125E0,-7.547916332E-1,5.395576715E-1,-2.296645975E-1,9.558131187E-1
4.140744125E0,-8.998891933E-1,5.792421395E-1,-4.791115681E-1,1.172548468E0
4.150799125E0,-1.224079660E0,1.032521220E0,-7.671231917E-1,1.775654548E0
4.160854125E0,-1.254911443E0,1.621497805E0,-9.507619429E-1,2.260089850E0
4.170909125E0,-1.256458470E0,1.652986815E0,-9.518366611E-1,2.284085447E0
4.180964125E0,-1.264956521E0,1.487724620E0,-8.730372441E-1,2.139073064E0
4.191020125E0,-1.352602483E0,1.624002167E0,-8.757994688E-1,2.287780852E0
4.201075125E0,-1.412897363E0,1.901319818E0,-7.969509351E-1,2.499285258E0
4.211130125E0,-1.411811973E0,1.767702754E0,-5.733744586E-1,2.333826117E0
4.221185125E0,-1.236511717E0,1.451473637E0,-2.880116236E-1,1.928389909E0
4.231240125E0,-9.114511851E-1,1.238851919E0,-1.053574340E-1,1.541621721E0
4.241295125E0,-5.403021317E-1,1.111428226E0,3.534177739E-2,1.236304225E0
4.251350125E0,-1.395342633E-1,9.186145359E-1,9.118268687E-2,9.336148878E-1
4.261405125E0,2.404448166E-1,7.568442982E-1,1.042429547E-1,8.009329530E-1
4.271460125E0,5.666886060E-1,5.503943163E-1,8.677622516E-2,7.947326550E-1
4.281515125E0,7.620183532E-1,3.480771464E-1,3.401679832E-2,8.384430887E-1
4.291571125E0,8.747257007E-1,2.668891418E-1,-2.379232049E-2,9.148447628E-1
4.301626125E0,9.842131327E-1,3.633108974E-1,-1.741335905E-1,1.063481455E0
4.311681125E0,1.087387765E0,5.378613943E-1,-3.601522315E-1,1.265470924E0
4.321736125E0,1.138016174E0,8.122150916E-1,-6.395883286E-1,1.537480861E0
4.331791125E0,1.166015639E0,9.818036413E-1,-7.922415876E-1,1.717899180E0
4.341846125E0,1.137472456E0,1.079851508E0,-8.187797606E-1,1.769271930E0
4.351901125E0,1.067685060E0,1.198233651E0,-9.762639892E-1,1.878511817E0
4.361956125E0,1.029020785E0,1.241580230E0,-1.308473547E0,2.076657956E0
4.372011125E0,8.888224605E-1,1.249609627E0,-1.641414006E0,2.246279040E0
4.382067125E0,6.285705663E-1,1.244266441E0,-1.835149802E0,2.304576909E0
4.392122125E0,3.499802689E-1,1.169486400E0,-1.919809299E0,2.275049971E0
4.402177125E0,7.215314280E-2,1.015151482E0,-1.945880864E0,2.195948757E0
4.412232125E0,-9.984414915E-2,6.791909355E-1,-1.886438069E0,2.007465509E0
4.422287125E0,-1.656104148E-1,2.129216802E-1,-1.708148278E0,1.729315758E0
4.432342125E0,-1.960604482E-1,-3.784125012E-1,-1.390230485E0,1.454089585E0
4.442397125E0,-2.263237360E-1,-9.484423524E-1,-1.191070812E0,1.539290424E0
4.452452125E0,-1.388967340E-1,-1.396628509E0,-1.176115973E0,1.831150533E0
4.462507042E0,-3.375299754E-2,-1.659411151E0,-1.297067968E0,2.106459101E0
4.472563042E0,5.781826423E-2,-1.804939578E0,-1.507849567E0,2.352607096E0
4.482618042E0,1.923360093E-1,-1.714679033E0,-1.670498056E0,2.401599693E0
4.492673042E0,3.670558197E-1,-1.515871947E0,-1.740972208E0,2.337430633E0
4.502728042E0,5.330880563E-1,-1.258993823E0,-1.756494226E0,2.225875174E0
4.512783042E0,5.899119924E-1,-1.071778842E0,-1.699661629E0,2.094171841E0
4.522838042E0,5.340050094E-1,-1.268521861E0,-1.517637806E0,2.048788318E0
4.532893042E0,5.315471688E-1,-1.791095125E0,-1.226825366E0,2.235098346E0
4.542948042E0,3.877367637E-1,-2.629601052E0,-9.230695295E-1,2.813751739E0
4.553003042E0,1.597067187E-1,-3.567214361E0,-5.126476522E-1,3.607399638E0
4.563058042E0,7.640671810E-2,-4.127732547E0,7.630733371E-2,4.129144799E0
4.573114042E0,6.731363995E-2,-4.079897645E0,4.098700098E-1,4.100986387E0
4.583169042E0,2.294452904E-1,-3.485488413E0,6.906988406E-1,3.560665599E0
4.593224042E0,6.793132885E-1,-2.535312946E0,1.050915318E0,2.827313439E0
4.603279042E0,1.066029786E0,-1.565915342E0,1.251633933E0,2.270484059E0
4.613334042E0,1.590722739E0,-5.589476234E-1,1.331861240E0,2.148645071E0
4.623389042E0,1.726603991E0,1.454658616E-1,1.218212344E0,2.118103627E0
4.633444042E0,2.117070966E0,8.645184356E-1,1.488787644E0,2.728712196E0
4.643499042E0,2.213079908E0,1.332543025E0,1.534553801E0,3.004704471E0
4.653554042E0,1.982524779E0,1.659374313E0,1.271733152E0,2.881186010E0
4.663609042E0,1.730345478E0,1.867359774E0,1.208605442E0,2.818129719E0
4.673665042E0,1.156960933E0,1.762665963E0,1.400245596E0,2.531054647E0
4.683720042E0,6.350723778E-1,1.776572980E0,1.630290263E0,2.493466426E0
4.693775042E0,1.809624440E-1,1.749327879E0,1.737580823E0,2.472262638E0
4.703830042E0,-7.426409729E-1,1.124363437E0,1.742515873E0,2.202741546E0
4.713885042E0,-1.640546425E0,5.386706489E-1,1.785857774E0,2.484118884E0
4.723940042E0,-2.207765520E0,1.464125258E-1,1.697071313E0,2.788497133E0
4.733995042E0,-2.334771137E0,-6.795400143E-2,1.576780053E0,2.818157083E0
4.744050042E0,-2.140732893E0,-4.086484534E-1,1.621533473E0,2.716450199E0
4.754105042E0,-1.117760907E0,-6.936739039E-1,1.625169271E0,2.090872567E0
4.764161042E0,-2.272516161E-1,-7.094017446E-1,1.394769094E0,1.581225777E0
4.774216042E0,3.223980391E-1,-5.119938970E-1,1.171563258E0,1.318574500E0
4.784271042E0,7.871230081E-1,-7.849009931E-2,1.133184619E0,1.381966247E0
4.794326042E0,9.871134979E-1,2.694806278E-1,1.074112465E0,1.483485913E0
4.804381042E0,1.003423867E0,4.530410993E-1,8.216355407E-1,1.373750580E0
4.814436042E0,9.940965351E-1,6.815654898E-1,4.720902316E-1,1.294460747E0
4.824491042E0,9.454099864E-1,8.214098382E-1,1.678969868E-1,1.263607361E0
4.834546042E0,8.627673407E-1,8.951835734E-1,-7.877833050E-2,1.245763677E0
4.844601042E0,6.388058250E-1,1.045147698E0,-2.423997967E-1,1.248664989E0
4.854656042E0,4.562792873E-1,1.229436733E0,-3.691008103E-1,1.362329210E0
4.864712042E0,1.955694830E-1,1.293036312E0,-5.118044472E-1,1.404326928E0
4.874767042E0,-1.157499462E-1,1.294477066E0,-6.287604547E-1,1.443748120E0
4.884822042E0,-2.417557624E-1,1.268589689E0,-7.330572402E-1,1.484970897E0
4.894877042E0,-3.269528739E-1,1.368647828E0,-6.940528035E-1,1.569013815E0
4.904932042E0,-3.569272728E-1,1.564426641E0,-5.378444374E-1,1.692366518E0
4.914987042E0,-2.954127003E-1,1.658321815E0,-3.529519701E-1,1.721009877E0
4.925042042E0,-1.392241416E-1,1.749384012E0,-2.237425375E-1,1.769120829E0
4.935097042E0,-2.321567539E-2,1.754075818E0,-3.052305043E-1,1.780586028E0
4.945152042E0,8.678254746E-3,1.746665057E0,-4.007669914E-1,1.792073747E0
4.955207042E0,6.932305388E-2,1.789777163E0,-2.828017545E-1,1.813307699E0
4.965263042E0,-5.245690651E-2,1.752032216E0,-5.767453784E-1,1.845265251E0
4.975318042E0,-2.745608349E-1,1.617769620E0,-8.170396292E-1,1.833061906E0
4.985373042E0,-4.557704334E-1,1.458931176E0,-9.459759969E-1,1.797519805E0
4.995428042E0,-6.449280059E-1,1.284079548E0,-1.099430909E0,1.809292884E0
5.005483042E0,-8.397806203E-1,1.032355744E0,-1.172724003E0,1.773773227E0
5.015538042E0,-9.955674022E-1,6.387936920E-1,-1.180630608E0,1.671257151E0
5.025593042E0,-1.065015367E0,2.345932156E-1,-1.171133561E0,1.600264205E0
5.035648042E0,-1.078769626E0,-3.040727556E-2,-1.176601292E0,1.596577311E0
5.045703042E0,-1.140533838E0,-1.645131665E-1,-1.130303623E0,1.614146307E0
5.055758042E0,-1.331869426E0,-2.834607357E-1,-1.080012306E0,1.738002514E0
5.065814042E0,-1.537512492E0,-4.516681731E-1,-1.074808284E0,1.929549597E0
5.075869042E0,-1.689983318E0,-6.513991195E-1,-1.090720312E0,2.114245782E0
5.085924042E0,-1.926222232E0,-9.014500344E-1,-1.222731146E0,2.453164427E0
5.095979042E0,-2.018834234E0,-1.245887874E0,-1.385313562E0,2.747184363E0
5.106034042E0,-2.013294582E0,-1.736540603E0,-1.218931625E0,2.924845748E0
5.116089042E0,-1.875337423E0,-2.167092726E0,-9.898558420E-1,3.031995370E0
5.126144042E0,-1.783193052E0,-2.754509858E0,-6.560470712E-1,3.346266543E0
5.136199042E0,-1.617664224E0,-3.583883604E0,-4.685853374E-1,3.959877706E0
5.146254042E0,-1.327935419E0,-4.057926148E0,-6.406197774E-1,4.317472732E0
5.156310042E0,-1.141143338E0,-4.346288604E0,-1.078109037E0,4.621120194E0
5.166365042E0,-4.419991442E-1,-4.797833401E0,-1.224529749E0,4.971321926E0
5.176420042E0,6.308991469E-1,-5.383886377E0,-9.434973621E-1,5.502222599E0
5.186475042E0,1.607238346E0,-5.559477094E0,-6.448999393E-1,5.822962870E0
5.196530042E0,2.167216102E0,-4.821453229E0,-2.252487620E-1,5.290933176E0
5.206585042E0,2.209512375E0,-3.043343600E0,4.028977533E-1,3.782355325E0
5.216640042E0,1.926620428E0,-1.186330474E0,9.326051688E-1,2.447243075E0
5.226695042E0,1.243431166E0,-1.188417345E-1,1.378925478E0,1.860559028E0
5.236750042E0,6.954604476E-1,5.027383393E-1,1.734485307E0,1.935161583E0
5.246805042E0,3.876057860E-1,9.118650949E-1,1.934747765E0,2.173703087E0
5.256861042E0,1.929685684E-1,9.182736433E-1,2.048370860E0,2.253061591E0
5.266916042E0,4.943907811E-1,7.484377563E-1,2.583408633E0,2.734699524E0
5.276971042E0,5.810525836E-1,6.318682498E-1,3.002758076E0,3.123049096E0
5.287026042E0,7.957359568E-1,6.955543685E-1,3.184167942E0,3.354983916E0
5.297081042E0,1.119343017E0,9.184180695E-1,3.610095502E0,3.889628527E0
5.307136042E0,1.024174174E0,9.574944270E-1,3.487025646E0,3.758334228E0
5.317191042E0,8.355040399E-1,1.118120365E0,3.252248243E0,3.539121188E0
5.327246042E0,5.943864645E-1,1.330602334E0,3.041481847E0,3.372596872E0
5.337301042E0,7.436481558E-2,1.235395630E0,2.560364757E0,2.843800305E0
5.347356042E0,-2.100433883E-1,1.035386941E0,1.785553719E0,2.074691887E0
5.357412042E0,-1.937067063E-1,6.598693961E-1,1.016668176E0,1.227421724E0
5.367467042E0,-1.520365605E-1,4.147207868E-1,3.116296240E-1,5.405751283E-1
5.377522042E0,-7.504727335E-1,3.951577574E-1,-4.647122148E-1,9.671175831E-1
5.387577042E0,-1.248697022E0,3.127593791E-1,-1.353836246E0,1.868136843E0
5.397632042E0,-1.264283799E0,2.197044504E-1,-2.343344178E0,2.671693378E0
5.407687042E0,-1.498723964E0,2.465361536E-1,-2.862810817E0,3.240777587E0
5.417742042E0,-2.221976885E0,5.186182076E-1,-2.934166728E0,3.716918147E0
5.427797042E0,-2.613090854E0,9.961796057E-1,-2.515088596E0,3.761155177E0
5.437852042E0,-2.234627482E0,1.453889122E0,-1.703731291E0,3.163866918E0
5.447907042E0,-1.268124981E0,1.356475094E0,-8.637074999E-1,2.047963939E0
5.457963042E0,-8.061902668E-1,1.456842551E0,-2.504595987E-1,1.683764525E0
5.468018542E0,-6.080117926E-1,1.744032056E0,3.982187748E-2,1.847406813E0
5.478073542E0,-2.178267267E-1,1.860789843E0,-1.577099311E-1,1.880122268E0
5.488128542E0,6.345321681E-2,1.813782322E0,-4.188769877E-1,1.862603166E0
5.498183542E0,1.142344210E-1,1.628282329E0,-6.367278707E-1,1.752077403E0
5.508238542E0,2.305241748E-1,1.469503527E0,-8.278862143E-1,1.702344734E0
5.518293542E0,4.681935009E-2,1.319074548E0,-1.008445895E0,1.661057747E0
5.528348542E0,-2.183495774E-1,1.105185739E0,-1.136483545E0,1.600220892E0
5.538403542E0,-4.210100885E-1,9.283524889E-1,-1.213957983E0,1.585175644E0
5.548458542E0,-6.665594879E-1,7.758600283E-1,-1.390484254E0,1.726182724E0
5.558514542E0,-8.501260990E-1,8.262495786E-1,-1.703478692E0,2.075389699E0
5.568569542E0,-9.671864793E-1,9.501631880E-1,-2.024946914E0,2.436938607E0
5.578624542E0,-1.051463276E0,1.129649904E0,-2.243845618E0,2.723330146E0
5.588679542E0,-1.135611579E0,1.426107246E0,-2.331450942E0,2.959570751E0
5.598734542E0,-1.193929223E0,1.610876922E0,-2.260146486E0,3.021366178E0
5.608789542E0,-1.272384824E0,1.547500706E0,-2.195078670E0,2.971883568E0
5.618844542E0,-1.388481144E0,1.334096630E0,-2.098261642E0,2.847875634E0
5.628899542E0,-1.446670442E0,1.057844927E0,-1.755299056E0,2.508578488E0
5.638954542E0,-1.346807308E0,5.938783050E-1,-1.155843676E0,1.871511680E0
5.649010542E0,-1.004205202E0,7.687919140E-3,-5.391261470E-1,1.139800067E0
5.659065542E0,-6.512853912E-1,-4.904895920E-1,-1.581063724E-1,8.305120863E-1
5.669120542E0,-4.188254591E-1,-7.388436449E-1,1.390466969E-2,8.494104053E-1
5.679175542E0,-3.435244678E-1,-8.033618224E-1,-1.779073834E-2,8.739083407E-1
5.689230542E0,-2.979651196E-1,-8.232078570E-1,-3.081178594E-1,9.281115254E-1
5.699285542E0,-4.036762735E-1,-9.331939834E-1,-7.490259862E-1,1.262871915E0
5.709340542E0,-5.405330237E-1,-1.215790501E0,-1.269220018E0,1.838815365E0
5.719395542E0,-7.030436285E-1,-1.817323980E0,-1.751402471E0,2.619989963E0
5.729450542E0,-6.490252961E-1,-2.424524581E0,-2.188965991E0,3.330334126E0
5.739505542E0,-7.130296496E-1,-3.075747115E0,-2.377815853E0,3.952548523E0
5.749561542E0,-9.280429519E-1,-3.529806215E0,-1.534839145E0,3.959359397E0
5.759616542E0,-1.059008815E0,-3.532136330E0,-2.083269564E-1,3.693357124E0
5.769671542E0,-9.176134195E-1,-3.198117644E0,6.991691172E-1,3.399824747E0
5.779726542E0,-7.841124961E-1,-2.615081246E0,1.503482866E0,3.116719920E0
5.789781542E0,-7.775573288E-1,-1.869662992E0,2.002177856E0,2.847622038E0
5.799836542E0,-6.406546415E-1,-1.191265524E0,2.278332496E0,2.649594474E0
5.809891542E0,-4.805201258E-1,-8.274313009E-1,2.570224332E0,2.742552691E0
5.819946542E0,-5.156242504E-1,-7.575547349E-1,2.746726044E0,2.895558928E0
5.830001542E0,-7.462797683E-1,-7.389091337E-1,2.865422183E0,3.051813312E0
5.840056542E0,-1.020072791E0,-6.402765459E-1,2.964470508E0,3.199779359E0
5.850112542E0,-1.220635577E0,-5.046404386E-1,2.972573580E0,3.252815222E0
5.860167542E0,-1.601742986E0,-3.691937810E-1,3.030587314E0,3.447657772E0
5.870222542E0,-1.992849062E0,-3.516556424E-1,2.921631467E0,3.554017376E0
5.880277542E0,-1.843438523E0,-4.265561360E-1,2.404012549E0,3.059328694E0
5.890332542E0,-1.776501644E0,-3.593687046E-1,1.871513636E0,2.605315192E0
5.900387542E0,-1.239034645E0,-2.063716292E-1,1.526486982E0,1.976855737E0
5.910442542E0,-5.151389681E-1,-7.724090016E-1,1.507867255E0,1.770775954E0
5.920497542E0,-5.303029910E-1,-1.333231827E0,1.353417585E0,1.972426811E0
5.930552542E0,4.137980231E-1,-8.658404911E-1,1.222949905E0,1.554514403E0
5.940607542E0,9.250235228E-1,-4.008833510E-1,1.032983224E0,1.443409269E0
5.950662542E0,9.203551058E-1,-4.112112880E-2,9.357486320E-1,1.313152684E0
5.960718542E0,1.001932316E0,4.611640513E-1,1.091303279E0,1.551606746E0
5.970773542E0,1.040838885E0,8.402507365E-1,1.161206669E0,1.771374555E0
5.980828542E0,7.405549056E-1,1.005473755E0,1.074946351E0,1.647698000E0
5.990883542E0,4.718578047E-1,1.338265110E0,9.686672866E-1,1.718115132E0
6.000938542E0,4.560138603E-1,1.863951432E0,1.026340714E0,2.176152302E0
6.010993542E0,3.377629869E-1,2.158040067E0,9.420857712E-1,2.378811965E0
6.021048542E0,-1.071973928E-2,2.221757761E0,8.255800724E-1,2.370211998E0
6.031103542E0,-5.473232856E-1,2.290045053E0,6.263186574E-1,2.436420363E0
6.041158542E0,-8.786168765E-1,2.327683581E0,4.889886117E-1,2.535584416E0
6.051214542E0,-6.506663172E-1,2.289826367E0,1.893188461E-1,2.387993525E0
6.061269542E0,-3.314020203E-1,1.998961303E0,4.428556882E-2,2.026730076E0
6.071324542E0,-2.027897346E-1,1.672707719E0,4.828400452E-2,1.685647097E0
6.081379542E0,4.910955828E-2,1.703076988E0,-2.229309440E-1,1.718307650E0
6.091434542E0,1.054377235E-1,1.658791931E0,-2.823713629E-1,1.685954142E0
6.101489542E0,1.478826254E-1,1.676751069E0,-1.600675285E-1,1.690853344E0
6.111544542E0,1.415714515E-1,1.668628117E0,7.076300383E-3,1.674637973E0
6.121599542E0,-1.372333108E-1,1.811462731E0,2.382880712E-1,1.832214893E0
6.131654542E0,-4.904756683E-1,1.970495887E0,4.167428271E-1,2.072943561E0
6.141709542E0,-8.855951630E-1,1.932715273E0,5.089018893E-1,2.186011951E0
6.151765542E0,-1.351120214E0,1.687406450E0,5.304664207E-1,2.225816925E0
6.161820542E0,-1.815554613E0,1.353308242E0,4.061428849E-1,2.300572492E0
6.171875542E0,-2.234815616E0,9.889495236E-1,1.061608779E-1,2.446158648E0
6.181930542E0,-2.662423813E0,6.396310133E-1,-3.358441865E-1,2.758698916E0
6.191985542E0,-2.972298760E0,3.597283083E-1,-7.694175661E-1,3.091272839E0
6.202040542E0,-2.844551716E0,3.264810401E-1,-1.140657288E0,3.082071282E0
6.212095542E0,-2.485334455E0,3.325475264E-1,-1.437691165E0,2.890403276E0
6.222150542E0,-2.047452116E0,2.460900110E-1,-1.536309135E0,2.571549381E0
6.232205542E0,-1.665929042E0,1.309834778E-2,-1.523494377E0,2.257548728E0
6.242260542E0,-1.432683317E0,-3.657889473E-1,-1.427051572E0,2.054959666E0
6.252316542E0,-1.243757441E0,-7.986325943E-1,-1.298974160E0,1.967760265E0
6.262371542E0,-1.081407744E0,-1.223451523E0,-1.152102628E0,1.998403563E0
6.272426542E0,-1.031907263E0,-1.536189267E0,-9.645099163E-1,2.086861146E0
6.282481542E0,-8.649406777E-1,-1.830631074E0,-7.155085766E-1,2.147390283E0
6.292536542E0,-6.461217150E-1,-2.313277211E0,-6.818847477E-1,2.496736176E0
6.302591542E0,-4.700269684E-1,-2.567877844E0,-8.195936930E-1,2.736175395E0
6.312646542E0,-2.256061548E-1,-2.618363289E0,-8.086441970E-1,2.749659958E0
6.322701542E0,7.388344355E-2,-2.674224663E0,-6.255667055E-1,2.747411512E0
6.332756542E0,4.514331881E-1,-2.846583624E0,-5.149162988E-1,2.927792521E0
6.342811542E0,8.574801421E-1,-2.867163484E0,-2.907375956E-1,3.006730282E0
6.352866542E0,1.250190547E0,-2.707977716E0,2.095221456E-1,2.989986495E0
6.362922542E0,1.246554603E0,-2.494695847E0,5.952911019E-1,2.851627122E0
6.372977542E0,1.138188009E0,-2.005701973E0,8.747399533E-1,2.466471636E0
6.383032542E0,1.068345357E0,-1.724003588E0,1.143074454E0,2.328125722E0
6.393087542E0,1.151742147E0,-1.735909104E0,1.517348953E0,2.577254011E0
6.403142542E0,1.340971640E0,-1.748826188E0,1.849342164E0,2.876919257E0
6.413197542E0,1.329462273E0,-2.043092578E0,2.053595785E0,3.187311229E0
6.423252542E0,9.885819530E-1,-2.361883360E0,2.126349328E0,3.328235080E0
6.433307542E0,4.944270339E-1,-2.328626736E0,2.339335327E0,3.337581511E0
6.443362542E0,-1.474263781E-1,-1.968845218E0,2.529921813E0,3.209141694E0
6.453417542E0,-5.801291255E-1,-1.882152645E0,2.481674098E0,3.168241580E0
6.463473542E0,-4.398850103E-1,-1.918068582E0,2.457823305E0,3.148552256E0
6.473529250E0,-2.173696023E-1,-1.641315188E0,2.615051426E0,3.095102429E0
6.483584250E0,-2.638263702E-1,-7.689334166E-1,3.150162874E0,3.253365809E0
6.493639250E0,-1.659270233E-1,-9.798179269E-2,2.924404217E0,2.930746020E0
6.503694250E0,-2.500714532E-1,4.837272871E-1,2.772550857E0,2.825520496E0
6.513749250E0,-5.452887103E-1,1.135222886E0,2.512023486E0,2.810041418E0
6.523804250E0,-5.819454900E-1,1.688639628E0,2.045238945E0,2.715357561E0
6.533859250E0,-5.060795480E-1,2.242681437E0,1.495606521E0,2.742731376E0
6.543914250E0,-4.243629916E-1,2.597582869E0,8.661726129E-1,2.770879951E0
6.553969250E0,-2.309241791E-1,2.777232723E0,2.180460338E-1,2.795333906E0
6.564025250E0,-2.293686919E-1,3.035197259E0,-4.026275754E-1,3.070365021E0
6.574080250E0,-1.766012251E-1,3.380556035E0,-8.662790322E-1,3.494250486E0
6.584135250E0,-8.563514102E-2,3.535069293E0,-1.134794723E0,3.713732267E0
6.594190250E0,-1.181462722E-1,3.493822449E0,-1.178519106E0,3.689127421E0
6.604245250E0,-2.474491963E-1,3.454170726E0,-9.729263254E-1,3.597097739E0
6.614300250E0,-3.365904740E-1,3.298695016E0,-6.401941732E-1,3.377059451E0
6.624355250E0,-3.644714235E-1,2.886363986E0,-3.817226831E-1,2.934220286E0
6.634410250E0,-4.459531776E-1,2.371316673E0,-2.899844742E-1,2.430248546E0
6.644465250E0,-6.482528058E-1,1.937683067E0,-3.610351610E-1,2.074896083E0
6.654520250E0,-5.423598400E-1,1.489329681E0,-7.105992544E-1,1.737011340E0
6.664575250E0,-3.418022435E-1,9.715493792E-1,-1.168493543E0,1.557598834E0
6.674631250E0,-1.064712737E-1,7.248840022E-1,-1.384763339E0,1.566640499E0
6.684686250E0,1.899155179E-1,5.207179427E-1,-1.352016592E0,1.461220019E0
6.694741250E0,4.098752357E-1,4.254399025E-1,-1.218572606E0,1.354221553E0
6.704796250E0,6.408401444E-1,5.956687224E-1,-1.047936820E0,1.365162589E0
6.714851250E0,8.696030281E-1,8.793715328E-1,-9.313842702E-1,1.548218453E0
6.724906250E0,1.021125509E0,1.025246115E0,-1.067334373E0,1.798062725E0
6.734961250E0,1.034762677E0,1.035645388E0,-1.424539608E0,2.042696322E0
6.745016250E0,8.385670307E-1,9.143571782E-1,-1.854730958E0,2.231427937E0
6.755071250E0,5.276334812E-1,6.705873424E-1,-2.249853047E0,2.406225926E0
6.765127250E0,1.692783001E-1,3.039938182E-1,-2.488103696E0,2.512315145E0
6.775182250E0,-1.587614250E-1,-1.951438057E-1,-2.368142220E0,2.381466747E0
6.785237250E0,-3.643328445E-1,-7.239116102E-1,-1.937759081E0,2.100403937E0
6.795292250E0,-6.056230954E-1,-1.273089121E0,-1.339050976E0,1.944374645E0
6.805347250E0,-8.169603994E-1,-1.889290926E0,-7.091105533E-1,2.177081136E0
6.815402250E0,-1.016289057E0,-2.354133461E0,-3.116588966E-1,2.583005820E0
6.825457250E0,-9.318159409E-1,-2.286978773E0,-2.291547569E-1,2.480134021E0
6.835512250E0,-4.628290094E-1,-1.771615711E0,-7.199091911E-1,1.967511668E0
6.845567250E0,-9.754029136E-2,-1.386574806E0,-1.516609865E0,2.057233406E0
6.855622250E0,1.443223654E-1,-1.440352233E0,-2.202605206E0,2.635699754E0
6.865677250E0,2.968712151E-1,-1.905350304E0,-2.580178632E0,3.221151047E0
6.875733250E0,1.315129067E-1,-2.280019417E0,-2.532906232E0,3.410483568E0
6.885788250E0,-3.454136300E-1,-2.460757438E0,-1.922403123E0,3.141698826E0
6.895843250E0,-7.512075824E-1,-2.566285062E0,-9.293318975E-1,2.830863760E0
6.905898250E0,-8.676438455E-1,-2.785766734E0,-4.155853707E-2,2.918052304E0
6.915953250E0,-8.522783129E-1,-2.718224961E0,6.785330506E-1,2.928400991E0
6.926008250E0,-8.846973230E-1,-2.091391164E0,1.161572778E0,2.550658282E0
6.936063250E0,-6.273216011E-1,-1.205235692E0,1.433257806E0,1.974931240E0
6.946118250E0,-4.436666605E-1,-3.980439430E-1,1.723549844E0,1.823705884E0
6.956173250E0,-3.484777538E-1,2.255013800E-1,1.924073088E0,1.968335557E0
6.966228250E0,-1.811480200E-1,6.299573797E-1,2.200585577E0,2.296135403E0
6.976284250E0,-3.231080007E-1,7.720967603E-1,2.436180421E0,2.575947832E0
6.986339250E0,-7.492902803E-1,8.936632973E-1,2.494070195E0,2.753262819E0
6.996394250E0,-8.707897206E-1,9.101050830E-1,2.408123142E0,2.717650284E0
7.006449250E0,-8.515149589E-1,7.558034939E-1,2.221153743E0,2.495964863E0
7.016504250E0,-1.068008996E0,2.062809974E-1,1.935257642E0,2.220003875E0
7.026559250E0,-9.824626956E-1,-3.724085802E-1,1.461821455E0,1.800234169E0
7.036614250E0,-7.079547049E-1,-7.718406522E-1,9.397329247E-1,1.407137458E0
7.046669250E0,-3.486301834E-1,-7.944664532E-1,5.960873830E-1,1.052634846E0
7.056724250E0,-2.994074632E-1,-7.015290534E-1,3.379480513E-1,8.342641831E-1
7.066779250E0,-9.140690932E-2,-6.349918324E-1,5.154908974E-2,6.436048158E-1
7.076834250E0,7.289652491E-2,-6.918378782E-1,8.192881029E-2,7.004754693E-1
7.086890250E0,2.365488351E-1,-5.976743174E-1,4.181706806E-1,7.668354838E-1
7.096945250E0,3.790271898E-1,-4.214398223E-1,6.322910035E-1,8.491554908E-1
7.107000250E0,4.827017220E-1,-2.382728684E-1,7.297056162E-1,9.067773699E-1
7.117055250E0,4.601973604E-1,-6.480001330E-2,7.727458012E-1,9.017298517E-1
7.127110250E0,2.967309733E-1,1.544495237E-1,6.611189461E-1,7.409333214E-1
7.137165250E0,8.184806390E-2,3.670098460E-1,4.343101287E-1,5.744742122E-1
7.147220250E0,-1.030693454E-1,6.261561048E-1,2.252359164E-1,6.733691228E-1
7.157275250E0,-1.700187769E-1,9.612617880E-1,9.792215109E-2,9.810807088E-1
7.167330250E0,-2.260729088E-1,1.297840970E0,-2.441091936E-2,1.317609971E0
7.177385250E0,-2.649687700E-1,1.567386501E0,-3.123582602E-2,1.589932254E0
7.187441250E0,-2.897692236E-1,1.775344480E0,1.026606981E-1,1.801763982E0
7.197496250E0,-3.083669508E-1,1.877448560E0,3.163144863E-1,1.928719297E0
7.207551250E0,-7.028468331E-2,2.041424367E0,2.757605008E-1,2.061164049E0
7.217606250E0,-5.651712170E-2,2.131342265E0,2.083410080E-1,2.142246487E0
7.227661250E0,2.048681639E-3,2.244953665E0,1.797118707E-1,2.252136211E0
7.237716250E0,3.635849856E-2,2.338555309E0,1.894170793E-1,2.346495621E0
7.247771250E0,4.328894746E-2,2.448199958E0,1.658492919E-1,2.454192933E0
7.257826250E0,1.394491497E-2,2.417169954E0,1.899631727E-1,2.424663080E0
7.267881250E0,-1.699775723E-1,2.110882273E0,1.759661078E-1,2.125013039E0
7.277936250E0,-3.377424851E-1,1.804177101E0,1.540507436E-2,1.835582282E0
7.287991250E0,-5.644805146E-1,1.624796219E0,-4.256656051E-2,1.720585051E0
7.298047250E0,-8.950109343E-1,1.523527706E0,-8.934311628E-2,1.769226791E0
7.308102250E0,-1.267294969E0,1.380101354E0,-1.414839077E-1,1.879024742E0
7.318157250E0,-1.607733020E0,1.180963899E0,-2.935688174E-1,2.016349138E0
7.328212250E0,-1.970011884E0,9.775147086E-1,-5.367404830E-1,2.263751792E0
7.338267250E0,-2.314126811E0,7.269650263E-1,-8.779699552E-1,2.579630262E0
7.348322250E0,-2.516073560E0,5.240830153E-1,-1.173367782E0,2.825257708E0
7.358377250E0,-2.650084141E0,3.764332187E-1,-1.374321381E0,3.008888031E0
7.368432250E0,-2.722584353E0,2.413432413E-1,-1.479204057E0,3.107854044E0
7.378487250E0,-2.791608102E0,2.096051395E-1,-1.488411083E0,3.170548480E0
7.388542250E0,-2.393894819E0,1.685044760E-1,-1.390550913E0,2.773582161E0
7.398598250E0,-1.853281433E0,-2.442750353E-1,-1.314085119E0,2.284981852E0
7.408653250E0,-1.513422987E0,-9.707997662E-1,-1.225867592E0,2.176155481E0
7.418708250E0,-1.185306334E0,-1.600571789E0,-1.229706874E0,2.340717871E0
7.428763250E0,-8.443692228E-1,-1.982681485E0,-1.295792105E0,2.514570030E0
7.438818250E0,-3.925884178E-1,-2.234925690E0,-1.268482100E0,2.599627924E0
7.448873250E0,9.566300623E-3,-2.453526186E0,-1.084574304E0,2.682570350E0
7.458928250E0,3.461436915E-1,-2.576972018E0,-1.007279960E0,2.788406921E0
7.468982500E0,7.727516484E-1,-2.810875263E0,-1.057037426E0,3.100885837E0
7.479037500E0,1.069086857E0,-3.409497414E0,-1.085259597E0,3.734355060E0
7.489092500E0,1.474655508E0,-3.950169564E0,-9.855938065E-1,4.330108960E0
7.499147500E0,1.897126487E0,-4.430027749E0,-7.131626737E-1,4.871635841E0
7.509203500E0,1.900813888E0,-4.677791233E0,-2.340990893E-1,5.054663850E0
7.519258500E0,1.803847025E0,-4.161967995E0,4.214123039E-1,4.555593266E0
7.529313500E0,1.778203476E0,-2.857901495E0,7.738088250E-1,3.453749941E0
7.539368500E0,1.377821378E0,-2.046442448E0,8.471141251E-1,2.608432630E0
7.549423500E0,8.938410527E-1,-1.478658512E0,9.583773565E-1,1.975821343E0
7.559478500E0,3.835679182E-1,-7.012899023E-1,1.057239740E0,1.325400974E0
7.569533500E0,2.873098847E-1,1.578882712E-1,1.113316877E0,1.160581813E0
7.579588500E0,3.697121367E-1,6.054060906E-1,1.342236539E0,1.518157609E0
7.589643500E0,3.644332704E-1,5.318755996E-1,1.615957568E0,1.739833935E0
7.599698500E0,5.163148431E-1,1.173390001E-1,1.862483196E0,1.936283325E0
7.609754500E0,4.880938050E-1,-1.988661432E-1,2.155380753E0,2.218884742E0
7.619809500E0,1.779671164E-1,-7.498247159E-1,2.425255337E0,2.544753986E0
7.629864500E0,2.526841171E-1,-1.061086623E0,2.893113427E0,3.091902228E0
7.639919500E0,6.746621208E-1,-1.225507988E0,3.751313946E0,4.003672705E0
7.649974500E0,8.196978465E-1,-1.205566059E0,4.365862159E0,4.602830267E0
7.660029500E0,5.869318128E-1,-9.617588013E-1,4.447762939E0,4.588252838E0
7.670084500E0,4.878276105E-1,-3.889924532E-1,4.455427469E0,4.498902626E0
7.680139500E0,5.265281016E-1,1.500600189E-1,4.131109314E0,4.167230977E0
7.690194500E0,2.804728633E-1,4.338020056E-1,3.502036618E0,3.539930745E0
7.700249500E0,1.168698890E-1,7.569513023E-1,2.554036607E0,2.666408978E0
7.710304500E0,6.645808266E-2,1.078092665E0,1.563733746E0,1.900516693E0
7.720360500E0,-2.217843781E-1,1.374950541E0,6.866022813E-1,1.552771713E0
7.730415500E0,-3.401040293E-1,1.740447713E0,5.272777878E-2,1.774150278E0
7.740470500E0,-1.711707880E-1,2.023995572E0,-4.718257912E-1,2.085300240E0
7.750525500E0,-2.817374150E-1,2.031090583E0,-1.149414005E0,2.350714250E0
7.760580500E0,-5.067894730E-1,2.058487127E0,-1.869580547E0,2.826576771E0
7.770635500E0,-6.886841825E-1,2.193828535E0,-2.512615224E0,3.405936701E0
7.780690500E0,-1.009623232E0,2.499809822E0,-3.135775216E0,4.135392898E0
7.790745500E0,-8.788405325E-1,2.890651165E0,-3.381007440E0,4.534251443E0
7.800800500E0,-3.694495602E-1,3.059625172E0,-2.744828038E0,4.126969848E0
7.810855500E0,2.161445010E-1,3.097954840E0,-1.618373637E0,3.501881761E0
7.820910500E0,5.271144677E-1,3.079699833E0,-6.125694414E-1,3.183966401E0
7.830966500E0,6.894563073E-1,2.859293132E0,4.673913360E-2,2.941613802E0
7.841021500E0,6.994429131E-1,2.544380223E0,3.360079086E-1,2.660073763E0
7.851076500E0,6.099420316E-1,2.034993600E0,3.842427599E-1,2.158904984E0
7.861131500E0,5.060314912E-1,1.445155721E0,2.152862942E-1,1.546250664E0
7.871186500E0,4.584826278E-1,1.095711495E0,-1.975611178E-1,1.204084879E0
7.881241500E0,4.636521146E-1,9.962269682E-1,-7.534464812E-1,1.332337441E0
7.891296500E0,5.272988012E-1,9.244173127E-1,-1.349600523E0,1.718724226E0
7.901351500E0,5.724044786E-1,8.861502099E-1,-1.838269876E0,2.119468145E0
7.911406500E0,6.242025501E-1,7.260066676E-1,-2.185806155E0,2.386307410E0
7.921461500E0,6.277854314E-1,4.447877544E-1,-2.421179974E0,2.540484828E0
7.931516500E0,6.368069543E-1,2.017435580E-1,-2.725603563E0,2.806267689E0
7.941572500E0,6.326869331E-1,-2.174579501E-2,-2.998303667E0,3.064407042E0
7.951627500E0,5.588924403E-1,-2.610805178E-1,-3.126457093E0,3.186731515E0
7.961682500E0,4.657362816E-1,-5.388951820E-1,-2.858245311E0,2.945655200E0
7.971737500E0,3.537494572E-1,-8.077203369E-1,-2.339983199E0,2.500614363E0
7.981792500E0,1.244299185E-1,-1.123349530E0,-1.706873585E0,2.047147871E0
7.991847500E0,-1.945333564E-1,-1.487109493E0,-1.219882382E0,1.933248793E0
8.001902500E0,-5.508464523E-1,-1.835090160E0,-9.450188076E-1,2.136363325E0
8.011957500E0,-8.100327645E-1,-2.163991948E0,-8.465516961E-1,2.460825878E0
8.022012500E0,-7.240178834E-1,-2.603821848E0,-8.720198286E-1,2.839807862E0
8.032067500E0,-3.608215915E-1,-3.124857879E0,-9.116405618E-1,3.275059923E0
8.042122500E0,-1.260578747E-1,-3.465858141E0,-8.550792754E-1,3.572005572E0
8.052178500E0,1.129226347E-1,-3.544764562E0,-6.194306374E-1,3.600250218E0
8.062233500E0,4.035643724E-1,-3.713091282E0,-2.577125946E-1,3.743838519E0
8.072288500E0,4.500098296E-1,-3.954197127E0,6.600921750E-2,3.980268958E0
8.082343500E0,2.820927430E-1,-3.790841124E0,3.277270818E-1,3.815423670E0
8.092398500E0,2.772341819E-1,-3.136539447E0,5.535944974E-1,3.197061989E0
8.102453500E0,4.803716431E-1,-2.535863169E0,8.522386980E-1,2.718026807E0
8.112508500E0,8.581860472E-1,-1.897310967E0,1.133037196E0,2.370663512E0
8.122563500E0,1.199802971E0,-1.074213622E0,1.364217392E0,2.110580765E0
8.132618500E0,1.018738310E0,-3.196702033E-1,1.321053246E0,1.698587196E0
8.142673500E0,6.075585603E-1,3.905279320E-1,1.187950737E0,1.390275665E0
8.152729500E0,2.225810977E-1,8.432234609E-1,1.147149013E0,1.441013188E0
8.162784500E0,-2.012877310E-1,9.607267678E-1,1.222917014E0,1.568132232E0
8.172839500E0,-7.439599586E-1,9.002250427E-1,1.287183834E0,1.738022949E0
8.182894500E0,-1.237822078E0,6.702558053E-1,1.362974274E0,1.959373679E0
8.192949500E0,-1.617848411E0,4.078965014E-1,1.455698251E0,2.214242632E0
8.203004500E0,-1.932658993E0,2.365146106E-1,1.550650016E0,2.489101327E0
8.213059500E0,-2.094498228E0,1.878160751E-1,1.579170395E0,2.629824489E0
8.223114500E0,-1.960965072E0,2.128538525E-1,1.617579585E0,2.550932083E0
8.233169500E0,-1.640009943E0,1.360933596E-1,1.737482589E0,2.393115076E0
8.243224500E0,-1.357465028E0,-3.301244402E-1,1.865747112E0,2.330816538E0
8.253279500E0,-1.050405880E0,-4.557828587E-1,1.787173398E0,2.122517204E0
8.263335500E0,-7.362615144E-1,-4.429359412E-1,1.425706712E0,1.664605928E0
8.273390500E0,-5.485339881E-1,-3.672811568E-1,1.120291216E0,1.300322035E0
8.283445500E0,-2.079831401E-1,-1.460523373E-1,1.048965930E0,1.079313575E0
8.293500500E0,-1.360089587E-1,-4.029316306E-3,9.101319071E-1,9.202471193E-1
8.303555500E0,-1.488236800E-1,2.251084471E-1,6.816578758E-1,7.331301114E-1
8.313610500E0,1.266291112E-1,6.938013732E-1,5.656081136E-1,9.040507815E-1
8.323665500E0,2.159896777E-1,1.110762228E0,5.029330516E-1,1.238299610E0
8.333720500E0,1.197708114E-1,1.434844741E0,3.299525321E-1,1.477157118E0
8.343775500E0,4.237601893E-2,1.719378440E0,1.337117887E-1,1.725090372E0
8.353830500E0,5.810511127E-2,1.931949872E0,1.207676612E-2,1.932861185E0
8.363885500E0,2.922332402E-2,1.991535923E0,-7.743935466E-2,1.993255175E0
8.373941500E0,-9.714561344E-2,2.059776438E0,-1.150708652E-1,2.065274207E0
8.383996500E0,-2.298365970E-1,2.246852256E0,-9.083174430E-2,2.260402691E0
8.394051500E0,-2.989626545E-1,2.455217786E0,2.207206964E-2,2.473451075E0
8.404106500E0,-2.603516075E-1,2.607842394E0,9.608499248E-2,2.622566917E0
8.414161500E0,-2.325041699E-1,2.456842727E0,7.672365546E-2,2.469012129E0
8.424216500E0,-2.300557031E-1,2.193597570E0,-2.281934381E-2,2.205746279E0
8.434271500E0,-5.927691612E-2,1.998293551E0,-2.003735554E-1,2.009188998E0
8.444326500E0,-8.310388137E-2,1.809820833E0,-2.693917501E-1,1.831646696E0
8.454381500E0,-3.217218451E-1,1.640577854E0,-2.486037290E-1,1.690208406E0
8.464436500E0,-5.683038993E-1,1.466971098E0,-2.049530947E-1,1.586499068E0
8.474491792E0,-9.319597824E-1,1.353515818E0,-3.309617980E-1,1.676332252E0
8.484547792E0,-1.437459762E0,1.394969069E0,-5.587494028E-1,2.079526428E0
8.494602792E0,-2.043856224E0,1.100947677E0,-6.285125327E-1,2.405090863E0
8.504657792E0,-2.392849922E0,7.660495698E-1,-6.052207339E-1,2.584348047E0
8.514712792E0,-2.602212694E0,6.356595844E-1,-5.341618609E-1,2.731465341E0
8.524767792E0,-2.726464857E0,6.634098852E-1,-5.591236246E-1,2.861178520E0
8.534822792E0,-2.646150427E0,5.835451055E-1,-7.889332330E-1,2.822242480E0
8.544877792E0,-2.391008341E0,3.369545728E-1,-1.148265685E0,2.673756413E0
8.554932792E0,-2.070177466E0,5.965914130E-3,-1.481411966E0,2.545633859E0
8.564987792E0,-1.734105384E0,-4.107516968E-1,-1.616711859E0,2.406157865E0
8.575042792E0,-1.455406767E0,-9.298832899E-1,-1.635304835E0,2.378468771E0
8.585097792E0,-1.041836785E0,-1.329888974E0,-1.527821317E0,2.277776667E0
8.595153792E0,-7.717912433E-1,-1.755189128E0,-1.295602655E0,2.314073646E0
8.605208792E0,-5.339164972E-1,-2.026864800E0,-1.051921113E0,2.345162206E0
8.615263792E0,-2.891893990E-1,-2.111162939E0,-9.360129261E-1,2.327393319E0
8.625318792E0,-1.678206441E-1,-2.109057357E0,-8.472323120E-1,2.279054473E0
8.635373792E0,-1.339241888E-1,-2.193005247E0,-7.908745086E-1,2.335099610E0
8.645428792E0,8.936482407E-2,-2.545787648E0,-7.253377461E-1,2.648610139E0
8.655483792E0,2.858379212E-1,-3.223412114E0,-7.285958147E-1,3.317068109E0
8.665538792E0,5.449955821E-1,-3.881420926E0,-3.286497724E-1,3.933250471E0
8.675593792E0,8.782093987E-1,-4.079392446E0,-9.461145759E-2,4.173924508E0
8.685648792E0,1.096929178E0,-3.834813940E0,-5.970591903E-2,3.989062092E0
8.695703792E0,1.296713188E0,-3.056040244E0,1.267325521E-2,3.319790306E0
8.705759792E0,1.308737110E0,-2.257721645E0,1.111859751E-1,2.611984336E0
8.715814792E0,1.220880648E0,-1.533749224E0,2.317940804E-1,1.973997147E0
8.725869792E0,1.139884578E0,-8.109281194E-1,4.609336710E-1,1.472888698E0
8.735924792E0,1.115392638E0,-2.688081980E-1,8.224681842E-1,1.411670110E0
8.745979792E0,1.128551651E0,1.340123355E-1,1.322050781E0,1.743389344E0
8.756034792E0,9.739383323E-1,2.385020792E-1,1.782078134E0,2.044808449E0
8.766089792E0,8.153205478E-1,2.086608142E-1,2.098472288E0,2.260945129E0
8.776144792E0,8.068276133E-1,2.638708091E-1,2.358379709E0,2.506502234E0
8.786199792E0,3.759251688E-1,1.705480778E-1,2.447155791E0,2.481728802E0
8.796254792E0,4.046376654E-1,-1.737418270E-1,3.107503928E0,3.138550386E0
8.806309792E0,7.979895468E-1,-4.142120790E-1,3.756444293E0,3.862542258E0
8.816364792E0,6.548867644E-1,-5.962399954E-1,4.089230678E0,4.184039477E0
8.826420792E0,4.766474418E-1,-6.905678630E-1,4.611375342E0,4.687094974E0
8.836475792E0,5.893304868E-1,-3.534793890E-1,4.399639184E0,4.452985858E0
8.846530792E0,7.565470404E-1,6.107884526E-2,4.293791717E0,4.360360233E0
8.856585792E0,6.173462512E-1,1.975704002E-1,3.802798680E0,3.857645429E0
8.866640792E0,4.289667238E-1,4.454297787E-1,2.692192572E0,2.762303565E0
8.876695792E0,4.826333461E-1,8.459710675E-1,1.731740770E0,1.986838717E0
8.886750792E0,6.596728566E-1,1.160321474E0,1.062395815E0,1.705930558E0
8.896805792E0,6.188056431E-1,1.278697770E0,5.023566623E-1,1.506768273E0
8.906860792E0,5.195172170E-1,1.429126748E0,-9.479023620E-2,1.523576907E0
8.916915792E0,4.341429714E-1,1.574228913E0,-6.130546872E-1,1.744280035E0
8.926970792E0,2.157784288E-1,1.659176677E0,-1.184347683E0,2.049904147E0
8.937026792E0,3.105037792E-2,1.806606034E0,-1.712875167E0,2.489725050E0
8.947081792E0,-2.895702172E-1,1.998253790E0,-2.129099858E0,2.934269129E0
8.957136792E0,-6.061017631E-1,2.283399108E0,-2.322024060E0,3.312561935E0
8.967191792E0,-7.713756524E-1,2.548915324E0,-2.177824706E0,3.440190427E0
8.977246792E0,-1.017844855E0,2.668748746E0,-1.946619952E0,3.456523869E0
8.987301792E0,-1.204919796E0,2.746451225E0,-1.636544445E0,3.416592420E0
8.997356792E0,-8.858525135E-1,2.751759912E0,-1.204210675E0,3.131619492E0
9.007411792E0,-4.150193603E-1,2.654097962E0,-7.356405401E-1,2.785254758E0
9.017466792E0,-4.714713677E-2,2.352171720E0,-4.137057467E-1,2.388741739E0
9.027521792E0,3.134837761E-1,2.145794243E0,-3.093972301E-1,2.190532277E0
9.037576792E0,5.691135560E-1,1.980888728E0,-3.624970015E-1,2.092657275E0
9.047632792E0,7.942080794E-1,1.724409385E0,-5.044369555E-1,1.964385614E0
9.057687792E0,9.662064128E-1,1.319321886E0,-7.433845925E-1,1.796325617E0
9.067742792E0,1.136495167E0,8.656802773E-1,-1.110594413E0,1.809542361E0
9.077797792E0,1.220652753E0,4.072983313E-1,-1.441384267E0,1.932219883E0
9.087852792E0,1.186991502E0,3.355307758E-2,-1.818183521E0,2.171604465E0
9.097907792E0,9.883852673E-1,-1.102685469E-1,-2.212636104E0,2.425865437E0
9.107962792E0,6.374208388E-1,-6.773239195E-2,-2.557220124E0,2.636336049E0
9.118017792E0,1.893912236E-1,-8.029922783E-2,-2.649426037E0,2.657400107E0
9.128072792E0,-2.217440506E-1,-1.296128905E-1,-2.478064027E0,2.491339248E0
9.138127792E0,-4.929724659E-1,-2.989997113E-1,-2.214053469E0,2.287893233E0
9.148182792E0,-8.093956373E-1,-6.074473536E-1,-1.958564059E0,2.204560446E0
9.158237792E0,-1.079341265E0,-9.498807675E-1,-1.757145606E0,2.270421045E0
9.168293792E0,-1.204257526E0,-1.249716631E0,-1.620612536E0,2.374534236E0
9.178348792E0,-1.202796233E0,-1.539677131E0,-1.523771535E0,2.477741742E0
9.188403792E0,-1.108925545E0,-1.722985588E0,-1.449520667E0,2.509881544E0
9.198458792E0,-1.028316268E0,-1.723970259E0,-1.486583244E0,2.497886615E0
9.208513792E0,-9.041611690E-1,-1.731230747E0,-1.663252187E0,2.565360628E0
9.218568792E0,-8.114762228E-1,-2.015386716E0,-1.888964651E0,2.878969387E0
9.228623792E0,-7.492888185E-1,-2.453614479E0,-1.970254982E0,3.234743026E0
9.238678792E0,-7.638311362E-1,-2.875338476E0,-1.741360463E0,3.447222885E0
9.248733792E0,-8.593175565E-1,-3.227677073E0,-1.142853502E0,3.530218135E0
9.258788792E0,-8.302882504E-1,-3.536658567E0,-3.849385786E-1,3.653150709E0
9.268843792E0,-6.546212277E-1,-3.705893360E0,3.342186606E-1,3.778078435E0
9.278899792E0,-4.441220855E-1,-3.483833651E0,9.947242337E-1,3.650180494E0
9.288954792E0,-4.500430126E-2,-2.840424167E0,1.563642529E0,3.242686046E0
9.299009792E0,3.308471926E-1,-1.985905055E0,1.950006659E0,2.802820851E0
9.309064792E0,5.890547906E-1,-1.169295781E0,2.321872033E0,2.665582095E0
9.319119792E0,6.647449507E-1,-4.918736279E-1,2.658009750E0,2.783674073E0
9.329174792E0,6.889092272E-1,7.120154500E-3,2.759937243E0,2.844626550E0
9.339229792E0,6.023113786E-1,2.185355920E-1,2.808327631E0,2.880493167E0
9.349284792E0,5.049417163E-1,1.910302895E-1,2.751154726E0,2.803624624E0
9.359339792E0,2.321314099E-1,8.097575068E-2,2.715325327E0,2.726432412E0
9.369394792E0,-4.611132536E-2,2.798185050E-2,2.649145371E0,2.649694404E0
9.379449792E0,-3.580010408E-1,7.021395028E-2,2.344880826E0,2.373090987E0
9.389505792E0,-5.119425146E-1,2.164873123E-1,1.634326011E0,1.726259947E0
9.399560792E0,-6.827919798E-2,4.593935144E-1,7.188520145E-1,8.558344868E-1
9.409615792E0,8.011726979E-2,2.896219468E-1,3.506528449E-1,4.617976468E-1
9.419670792E0,3.230701034E-1,2.488832259E-1,3.736698246E-1,5.531241178E-1
9.429725792E0,7.038855544E-1,2.960731798E-1,4.067907929E-1,8.652126622E-1
9.439780792E0,9.227284176E-1,4.182063121E-1,3.447424793E-1,1.070126922E0
9.449835792E0,1.218733331E0,6.300871879E-1,3.998127258E-1,1.429045490E0
9.459890792E0,1.424440790E0,8.322821510E-1,6.386165214E-1,1.769055173E0
9.469945792E0,1.259975132E0,9.280858558E-1,9.340073311E-1,1.822429802E0
9.480000792E0,9.381513990E-1,1.072795672E0,1.028809408E0,1.757688084E0
9.490055792E0,7.995029524E-1,1.287745752E0,1.028404781E0,1.831696068E0
9.500110792E0,7.812935534E-1,1.455647964E0,8.715801179E-1,1.867881826E0
9.510166792E0,7.495702158E-1,1.565946332E0,6.209895051E-1,1.843819782E0
9.520221792E0,6.598982667E-1,1.646701643E0,3.564380801E-1,1.809458518E0
9.530276792E0,3.181010299E-1,1.661061235E0,1.192048466E-1,1.695441679E0
9.540331792E0,6.821038356E-2,1.648124270E0,4.667364478E-2,1.650195351E0
9.550386792E0,-1.975643886E-1,1.554048418E0,-3.693119679E-3,1.566560504E0
9.560441792E0,-5.611213258E-1,1.384145288E0,-1.373347235E-1,1.499858709E0
9.570496792E0,-7.818363943E-1,1.343364467E0,-3.878083920E-1,1.601964915E0
9.580551792E0,-6.881379794E-1,1.479863039E0,-5.772090626E-1,1.731097569E0
9.590606792E0,-5.379832722E-1,1.684209777E0,-7.952154815E-1,1.938648043E0
9.600661792E0,-4.957220094E-1,1.736411964E0,-9.792121553E-1,2.054196501E0
9.610716792E0,-3.436906749E-1,1.741080966E0,-9.484791899E-1,2.012237308E0
9.620771792E0,-1.040556245E-1,1.622138075E0,-9.219866252E-1,1.868747935E0
9.630827792E0,3.112743326E-2,1.343932232E0,-1.008809592E0,1.680719951E0
9.640882792E0,1.510127131E-1,1.081353657E0,-1.064411935E0,1.524828954E0
9.650937792E0,-1.210227460E-1,9.172451180E-1,-1.140024619E0,1.468210218E0
9.660992792E0,-4.191435842E-1,1.028453313E0,-1.236921169E0,1.662339176E0
9.671047792E0,-8.594123545E-1,1.026903800E0,-1.159580632E0,1.771369033E0
9.681102792E0,-1.274939326E0,1.097362749E0,-1.053595755E0,1.984877655E0
9.691157792E0,-1.609916517E0,1.109215640E0,-1.052381288E0,2.220292076E0
9.701212792E0,-1.951785674E0,9.570512080E-1,-9.470489609E-1,2.371142355E0
9.711267792E0,-2.118632757E0,7.527331209E-1,-7.847074503E-1,2.381381467E0
9.721322792E0,-2.094554215E0,3.745252723E-1,-6.934850389E-1,2.237933877E0
9.731377792E0,-2.008220661E0,-2.007343286E-1,-5.585155141E-1,2.094083110E0
9.741432792E0,-1.821754416E0,-7.982238740E-1,-4.252182931E-1,2.033902923E0
9.751488792E0,-1.562991734E0,-1.339211190E0,-2.955603790E-1,2.079371470E0
9.761543792E0,-1.358317990E0,-1.875017872E0,-2.929829264E-1,2.333786361E0
9.771598792E0,-1.228073454E0,-2.213440096E0,-4.612049818E-1,2.572973281E0
9.781653792E0,-1.174624348E0,-2.262457305E0,-7.998897457E-1,2.671755794E0
9.791708792E0,-1.116511138E0,-2.190685657E0,-1.192927887E0,2.732906459E0
9.801763792E0,-1.009901194E0,-2.266828099E0,-1.486786727E0,2.892912861E0
9.811818792E0,-7.081883743E-1,-2.512769591E0,-1.576923895E0,3.049955862E0
9.821873792E0,-2.307321895E-1,-2.862581021E0,-1.481465760E0,3.231462246E0
9.831928792E0,4.062995172E-1,-3.200105113E0,-1.230886842E0,3.452656144E0
9.841983792E0,1.153563993E0,-3.415667396E0,-7.410305035E-1,3.680573305E0
9.852038792E0,2.113817575E0,-3.408629102E0,-1.678747674E-1,4.014369070E0
9.862094792E0,2.694723832E0,-3.472836792E0,2.074042110E-1,4.400585009E0
9.872149792E0,2.703585287E0,-3.317258171E0,6.959297597E-1,4.335653747E0
9.882204792E0,2.651355034E0,-2.565185201E0,1.051293122E0,3.836023443E0
9.892259792E0,2.428739839E0,-1.314335380E0,1.146681162E0,2.990172635E0
9.902314792E0,2.058210116E0,-2.508894056E-1,1.219797013E0,2.405634870E0
9.912369792E0,1.775656868E0,3.995075011E-1,1.251204747E0,2.208636882E0
9.922424792E0,1.471303884E0,6.348427284E-1,1.333415430E0,2.084647960E0
9.932479792E0,1.110289335E0,7.016132534E-1,1.627423958E0,2.091294408E0
9.942534792E0,9.965759008E-1,4.802043396E-1,1.922385289E0,2.217955125E0
9.952589792E0,9.415734820E-1,3.032465440E-1,2.227866347E0,2.437602828E0
9.962644792E0,4.982689469E-1,-1.786903256E-1,2.535831009E0,2.590490510E0
9.972699792E0,8.109874321E-2,-1.032287917E0,3.044778507E0,3.216033505E0
9.982755792E0,6.213203113E-1,-1.621988971E0,4.252177083E0,4.593244725E0
9.992810792E0,8.897830850E-1,-1.927796595E0,5.261635716E0,5.673880864E0
1.000286579E1,8.051802333E-1,-1.992185549E0,5.453738970E0,5.861773385E0
1.001292079E1,1.073136784E0,-1.540280564E0,5.561478596E0,5.869764130E0
1.002297579E1,1.064494161E0,-5.267341429E-1,4.848699499E0,4.992042018E0
1.003303079E1,7.570164987E-1,3.723729122E-1,3.607776496E0,3.705102807E0
1.004308579E1,5.266353250E-1,7.159184664E-1,2.324026147E0,2.488168312E0
1.005314079E1,2.837004532E-1,8.058001113E-1,1.340502255E0,1.589574176E0
1.006319579E1,6.663186374E-2,9.909241283E-1,6.605904309E-1,1.192790908E0
1.007325079E1,1.568568406E-1,1.303314548E0,1.982428300E-1,1.327604271E0
1.008330579E1,2.718747337E-1,1.622587141E0,-3.132167045E-1,1.674756581E0
1.009336079E1,2.762371220E-1,1.873519231E0,-9.268176679E-1,2.108405143E0
1.010341679E1,3.611835341E-1,2.205818835E0,-1.425642393E0,2.651140606E0
1.011347179E1,3.746061831E-1,2.510324285E0,-1.903288575E0,3.172469891E0
1.012352679E1,2.717847962E-1,2.706600696E0,-2.397634406E0,3.626045374E0
1.013358179E1,-1.442547570E-1,2.783488659E0,-2.952218252E0,4.060075265E0
1.014363679E1,-3.710030192E-1,2.963875846E0,-3.532036343E0,4.625741454E0
1.015369179E1,-3.015739297E-1,3.148216921E0,-3.407864871E0,4.649275169E0
1.016374679E1,-7.918741632E-2,3.302611481E0,-2.480038047E0,4.130871815E0
1.017380179E1,1.990202174E-1,3.290078559E0,-1.428453734E0,3.592312075E0
1.018385679E1,4.342247593E-1,2.963146114E0,-6.320454204E-1,3.060762560E0
1.019391179E1,6.298531531E-1,2.345295394E0,-2.217509028E-1,2.438503423E0
1.020396679E1,6.870441116E-1,1.758547769E0,-3.692505721E-1,1.923763460E0
1.021402179E1,7.689364133E-1,1.362352715E0,-7.293430889E-1,1.726038664E0
1.022407779E1,7.400624970E-1,1.031268747E0,-1.154015837E0,1.715505838E0
1.023413279E1,7.557314269E-1,8.691476762E-1,-1.564567559E0,1.942786483E0
1.024418779E1,9.236766898E-1,7.734024435E-1,-1.947355531E0,2.289874130E0
1.025424279E1,9.585514574E-1,6.934055167E-1,-2.218687388E0,2.514399696E0
1.026429779E1,1.033807169E0,6.636542988E-1,-2.277724385E0,2.587899277E0
1.027435279E1,1.073443544E0,6.177027851E-1,-2.225604644E0,2.546989164E0
1.028440779E1,1.094919344E0,5.346044952E-1,-2.138531417E0,2.461293756E0
1.029446279E1,1.013659638E0,3.382561630E-1,-2.029482014E0,2.293626024E0
1.030451779E1,9.014212368E-1,6.072508872E-2,-1.960415872E0,2.158582446E0
1.031457279E1,7.536864363E-1,-2.643871182E-1,-1.919526293E0,2.079068297E0
1.032462779E1,6.263872160E-1,-7.272573870E-1,-1.839889555E0,2.075200671E0
1.033468279E1,4.491939238E-1,-1.285162452E0,-1.763382246E0,2.227764497E0
1.034473879E1,1.695464863E-1,-1.821187236E0,-1.716578794E0,2.508408203E0
1.035479379E1,3.944325199E-2,-2.155288367E0,-1.680573978E0,2.733340925E0
1.036484879E1,8.298019448E-2,-2.258793440E0,-1.614433783E0,2.777666279E0
1.037490379E1,2.779512881E-1,-2.619170789E0,-1.423752573E0,2.994058104E0
1.038495879E1,4.719672208E-1,-3.171939660E0,-1.226385655E0,3.433362206E0
1.039501379E1,3.525188011E-1,-3.378164524E0,-1.117228664E0,3.575537015E0
1.040506879E1,6.074606560E-2,-3.298560530E0,-9.532516873E-1,3.434076358E0
1.041512379E1,-2.097625027E-1,-3.379460852E0,-7.232760179E-1,3.462352402E0
1.042517879E1,-2.609383208E-1,-3.382120165E0,-5.288853335E-1,3.433153844E0
1.043523379E1,-2.064927031E-1,-2.947949785E0,-5.489775360E-1,3.005731776E0
1.044528879E1,4.643763654E-2,-2.135437070E0,-4.522412002E-1,2.183293393E0
1.045534379E1,5.425381435E-1,-1.261098236E0,-7.065543333E-2,1.374666719E0
1.046539979E1,8.749077684E-1,-6.080765140E-1,3.591207826E-1,1.124361324E0
1.047545467E1,1.051306570E0,-9.753740430E-3,7.032434571E-1,1.264868373E0
1.048550967E1,9.925872226E-1,5.379315609E-1,9.797009826E-1,1.494795563E0
1.049556467E1,7.863700330E-1,8.780541551E-1,1.246500077E0,1.715552206E0
1.050561967E1,5.712375205E-1,9.360749066E-1,1.565076267E0,1.911023876E0
1.051567467E1,3.199586903E-1,7.662828737E-1,1.888130400E0,2.062668033E0
1.052572967E1,1.319905876E-1,4.726731259E-1,2.192088550E0,2.246351177E0
1.053578467E1,-1.944185317E-1,7.591264665E-2,2.486306262E0,2.495051127E0
1.054583967E1,-4.732183056E-1,-3.695007598E-1,2.703563068E0,2.769425868E0
1.055589467E1,-6.946932198E-1,-8.561317742E-1,2.811709660E0,3.020144284E0
1.056594967E1,-8.545449860E-1,-1.230526069E0,2.749105861E0,3.130818515E0
1.057600467E1,-8.837655692E-1,-1.484509236E0,2.436065816E0,2.986507310E0
1.058606067E1,-8.337428585E-1,-1.593798959E0,1.950570331E0,2.653308669E0
1.059611567E1,-5.066567047E-1,-1.403565645E0,1.619061270E0,2.201830360E0
1.060617067E1,2.267982559E-1,-8.834055269E-1,1.144601820E0,1.463542312E0
1.061622567E1,5.434939806E-1,-4.635701805E-1,3.858462127E-1,8.118868881E-1
1.062628067E1,6.672734329E-1,-4.026392698E-3,-1.685436158E-1,6.882419607E-1
1.063633567E1,9.689096537E-1,6.541718692E-1,-3.942239205E-1,1.233750076E0
1.064639067E1,1.106653463E0,1.193236620E0,-5.318370811E-1,1.712117461E0
1.065644567E1,1.101661622E0,1.646052602E0,-6.922202130E-1,2.098169755E0
1.066650067E1,1.031823063E0,2.033325389E0,-7.677521329E-1,2.405933147E0
1.067655567E1,1.050245885E0,2.309811566E0,-6.111346078E-1,2.609929386E0
1.068661067E1,1.009660434E0,2.430020379E0,-5.081932068E-1,2.680051039E0
1.069666567E1,9.246025233E-1,2.466142139E0,-4.160106826E-1,2.666423028E0
1.070672067E1,7.589468839E-1,2.423908870E0,-2.411380772E-1,2.551368682E0
1.071677667E1,6.537899729E-1,2.525654515E0,-2.355382718E-2,2.609008785E0
1.072683167E1,7.034039631E-1,2.598795581E0,1.521118434E-1,2.696600382E0
1.073688667E1,5.918182578E-1,2.505495070E0,1.873904343E-1,2.581253488E0
1.074694167E1,6.289510008E-1,2.408419011E0,2.540802312E-1,2.502122750E0
1.075699667E1,7.899920176E-1,2.421000465E0,1.942690988E-1,2.554030368E0
1.076705167E1,8.109313354E-1,2.522987600E0,-1.729716025E-2,2.650165137E0
1.077710667E1,7.038711557E-1,2.534259278E0,-1.648669231E-1,2.635353068E0
1.078716167E1,4.445423541E-1,2.362749333E0,-2.535025263E-1,2.417533008E0
1.079721667E1,1.267259557E-1,2.108852704E0,-4.721299195E-1,2.164769239E0
1.080727167E1,-3.792724439E-1,1.888334321E0,-8.151042008E-1,2.091422711E0
1.081732667E1,-9.877490902E-1,1.313896839E0,-9.593199277E-1,1.903225655E0
1.082738167E1,-1.450130678E0,6.742611480E-1,-8.296824789E-1,1.801632619E0
1.083743667E1,-1.870889300E0,4.205861288E-1,-8.152562284E-1,2.083689560E0
1.084749267E1,-2.326097816E0,5.136188382E-1,-1.040487467E0,2.599451774E0
1.085754767E1,-2.510185706E0,4.246628076E-1,-1.371598917E0,2.891825439E0
1.086760267E1,-2.512554705E0,1.732185012E-1,-1.546166371E0,2.955260774E0
1.087765767E1,-2.420301576E0,-1.416271645E-1,-1.677829295E0,2.948394329E0
1.088771267E1,-2.022533475E0,-5.170242566E-1,-1.710797067E0,2.699033595E0
1.089776767E1,-1.563505558E0,-8.878014636E-1,-1.737445167E0,2.500291339E0
1.090782267E1,-1.144261658E0,-1.340881739E0,-1.756576087E0,2.488545385E0
1.091787767E1,-9.580464041E-1,-2.068788752E0,-1.872439835E0,2.950215373E0
1.092793267E1,-6.899327092E-1,-2.677524832E0,-1.930323762E0,3.372135257E0
1.093798767E1,-3.361983816E-1,-2.981801071E0,-1.888267078E0,3.545380027E0
1.094804267E1,-2.049064997E-1,-3.037647827E0,-1.911584605E0,3.594919568E0
1.095809767E1,-1.335828210E-1,-2.919338189E0,-1.728807660E0,3.395461053E0
1.096815367E1,1.461441751E-1,-3.039841703E0,-1.258826008E0,3.293423540E0
1.097820867E1,4.112763748E-1,-3.736218190E0,-7.855956423E-1,3.840004574E0
1.098826367E1,5.534943273E-1,-4.562676514E0,-2.490421971E-1,4.602868123E0
1.099831867E1,8.720376626E-1,-4.821540937E0,5.367043034E-1,4.929072753E0
1.100837367E1,1.393277177E0,-4.153816391E0,1.177673671E0,4.536774976E0
1.101842867E1,1.549233528E0,-2.643203430E0,1.110780355E0,3.258908083E0
1.102848367E1,1.216033745E0,-1.897370608E0,8.513522601E-1,2.409056655E0
1.103853867E1,9.997537163E-1,-1.372055585E0,7.405931318E-1,1.852166895E0
1.104859367E1,1.050786387E0,-7.204722780E-1,8.335567709E-1,1.522514113E0
1.105864867E1,1.486983778E0,-2.788110298E-1,9.949645543E-1,1.810748688E0
1.106870367E1,1.920875392E0,-2.264041901E-1,1.238200539E0,2.296554311E0
1.107875867E1,2.108493393E0,-4.455970091E-1,1.477441707E0,2.612878696E0
1.108881467E1,2.063177179E0,-6.439556140E-1,1.720775925E0,2.762688670E0
1.109886967E1,2.256502062E0,-6.707481408E-1,2.069157711E0,3.134185422E0
1.110892467E1,2.650739906E0,-5.118459624E-1,2.707021111E0,3.823136361E0
1.111897967E1,2.442815841E0,-4.760726970E-1,3.594385203E0,4.371910273E0
1.112903467E1,2.065228382E0,-3.816425031E-1,4.742839168E0,5.187036018E0
1.113908967E1,1.803958269E0,-2.584679818E-1,5.232418349E0,5.540692458E0
1.114914467E1,1.617271145E0,-5.198724353E-1,5.294414037E0,5.560274571E0
1.115919967E1,1.544271289E0,-2.035959560E-1,4.764759503E0,5.012899186E0
1.116925467E1,1.046936873E0,1.058457130E-1,3.506415013E0,3.660905131E0
1.117930967E1,5.701961314E-1,3.852028728E-1,2.630982749E0,2.719480669E0
1.118936467E1,3.650986104E-1,6.909660584E-1,1.963907683E0,2.113685047E0
1.119941967E1,1.613573877E-1,8.517820305E-1,1.020465431E0,1.338999078E0
1.120947467E1,2.539019094E-1,1.157432365E0,9.091133952E-2,1.188436254E0
1.121953067E1,6.777233575E-1,1.883078259E0,-4.182747976E-1,2.044565109E0
1.122958567E1,7.780245213E-1,2.423638728E0,-7.080041870E-1,2.642085686E0
1.123964067E1,3.037092415E-1,2.768630299E0,-8.316787183E-1,2.906758078E0
1.124969567E1,8.908804977E-2,3.185027483E0,-1.140324070E0,3.384180215E0
1.125975067E1,-1.025566908E-2,3.481986516E0,-1.313137286E0,3.721379422E0
1.126980567E1,-3.984628230E-1,3.342147430E0,-1.537249367E0,3.700251029E0
1.127986067E1,-9.447998294E-1,3.165748043E0,-1.933100020E0,3.827725575E0
1.128991567E1,-1.316911810E0,3.190012819E0,-2.330418323E0,4.164287221E0
1.129997067E1,-1.357932659E0,3.272671983E0,-2.649855223E0,4.424488187E0
1.131002567E1,-9.705500170E-1,3.219296259E0,-2.608911849E0,4.255849713E0
1.132008067E1,-4.875606485E-1,2.722585230E0,-2.042667485E0,3.438411868E0
1.133013567E1,-1.238276553E-1,2.225535647E0,-1.434548872E0,2.650711729E0
1.134019067E1,1.310517806E-1,1.559292786E0,-1.027952206E0,1.872232437E0
1.135024667E1,1.439909745E-1,8.650774294E-1,-9.546994579E-1,1.296357749E0
1.136030167E1,1.778380757E-1,3.059964895E-1,-1.160081738E0,1.212868448E0
1.137035667E1,4.286670540E-1,-1.316026980E-1,-1.574098520E0,1.636722599E0
1.138041167E1,7.113770071E-1,-3.611129290E-1,-2.097597399E0,2.244186855E0
1.139046667E1,9.569094130E-1,-3.763554507E-1,-2.597700398E0,2.793808585E0
1.140052167E1,1.242055901E0,-1.646932608E-1,-2.921188833E0,3.178548557E0
1.141057667E1,1.423088036E0,3.864249408E-2,-3.076829435E0,3.390214178E0
1.142063167E1,1.492827193E0,1.413710564E-1,-3.113439437E0,3.455723358E0
1.143068667E1,1.333559563E0,1.721513844E-1,-3.155127161E0,3.429700367E0
1.144074167E1,1.098071139E0,1.399835122E-1,-3.024372309E0,3.220587442E0
1.145079667E1,1.004054270E0,-1.434672832E-1,-2.674313541E0,2.860185441E0
1.146085167E1,1.050965970E0,-6.613358778E-1,-2.139367568E0,2.473618444E0
1.147090712E1,1.041670797E0,-1.288381344E0,-1.511675985E0,2.242803786E0
1.148096312E1,8.468702962E-1,-1.760449283E0,-8.374218535E-1,2.125475556E0
1.149101812E1,5.540558428E-1,-1.882357882E0,-2.451059429E-1,1.977454424E0
1.150107312E1,2.438609793E-1,-2.058073729E0,2.238875302E-1,2.084529030E0
1.151112812E1,-1.528946394E-3,-2.452965438E0,5.501142347E-1,2.513894877E0
1.152118312E1,-1.999469097E-1,-3.019006319E0,7.258172178E-1,3.111460839E0
1.153123812E1,-3.058841682E-1,-3.575748373E0,7.372824383E-1,3.663758581E0
1.154129312E1,-3.595766462E-1,-3.987984678E0,7.694538188E-1,4.077422756E0
1.155134812E1,-2.934440159E-1,-3.988292826E0,8.713193321E-1,4.092894628E0
1.156140313E1,-6.935638301E-2,-3.430047453E0,1.073141828E0,3.594672338E0
1.157145812E1,2.879731965E-1,-2.582428640E0,1.329496626E0,2.918805838E0
1.158151312E1,5.299668126E-1,-1.842247152E0,1.556995414E0,2.469610114E0
1.159156812E1,5.376381768E-1,-1.356389140E0,1.680404409E0,2.225444964E0
1.160162412E1,5.443059396E-1,-1.031562277E0,1.740316150E0,2.095015511E0
1.161167912E1,3.042418315E-1,-9.370730263E-1,1.619517353E0,1.895654347E0
1.162173412E1,-3.981540900E-2,-7.856763339E-1,1.387260100E0,1.594792511E0
1.163178912E1,-3.560998552E-1,-4.871367985E-1,1.172762010E0,1.318893513E0
1.164184412E1,-5.648701219E-1,-1.365307313E-1,9.750396553E-1,1.135086439E0
1.165189912E1,-5.953604279E-1,1.839399558E-1,8.075777379E-1,1.020034190E0
1.166195412E1,-7.422036012E-1,3.204367733E-1,7.647864982E-1,1.112854123E0
1.167200912E1,-9.568278444E-1,3.635009319E-1,7.761722696E-1,1.284560564E0
1.168206412E1,-8.584564810E-1,3.874043494E-1,7.856622275E-1,1.226496961E0
1.169211912E1,-7.588249695E-1,3.739136535E-1,7.648625851E-1,1.140456719E0
1.170217412E1,-6.160812061E-1,3.979071182E-1,7.429904171E-1,1.043992762E0
1.171222912E1,-2.880237200E-1,4.127613848E-1,7.654554927E-1,9.161068363E-1
1.172228412E1,-4.040435152E-2,5.255266929E-1,6.796837827E-1,8.601051453E-1
1.173233912E1,1.316383477E-1,8.205134600E-1,4.529112911E-1,9.464140903E-1
1.174239512E1,3.985143150E-1,1.125128253E0,3.325954004E-1,1.239091177E0
1.175245012E1,6.682814929E-1,1.316373135E0,4.279635608E-1,1.537072280E0
1.176250512E1,6.797381618E-1,1.504266393E0,4.586099875E-1,1.713238008E0
1.177256012E1,5.066083921E-1,1.769897214E0,5.478864455E-1,1.920772701E0
1.178261512E1,4.115945730E-1,2.056849907E0,6.871016335E-1,2.207294789E0
1.179267012E1,2.537681726E-1,2.207750171E0,7.559536942E-1,2.347344263E0
1.180272512E1,2.226767363E-1,2.280025849E0,8.462008631E-1,2.442162710E0
1.181278012E1,2.391951936E-1,2.441444085E0,8.737366442E-1,2.604088954E0
1.182283512E1,2.885811790E-1,2.537561200E0,7.348101624E-1,2.657525525E0
1.183289012E1,3.262369554E-1,2.515529476E0,5.628202343E-1,2.598285149E0
1.184294512E1,4.331379447E-1,2.355000018E0,3.899917424E-1,2.426051756E0
1.185300012E1,6.377091797E-1,2.080317122E0,3.298812691E-1,2.200730329E0
1.186305512E1,7.711047801E-1,1.772468235E0,2.458041552E-1,1.948503505E0
1.187311112E1,6.783039129E-1,1.513688012E0,3.966042124E-2,1.659192739E0
1.188316612E1,3.986330135E-1,1.350237284E0,-2.628709352E-1,1.432183694E0
1.189322112E1,1.028178786E-1,1.238239131E0,-6.387451601E-1,1.397069448E0
1.190327612E1,-2.391161831E-1,1.091536583E0,-1.085116925E0,1.557596675E0
1.191333112E1,-7.491080665E-1,9.684737438E-1,-1.479764221E0,1.920626574E0
1.192338612E1,-1.259766094E0,9.421226817E-1,-1.813660115E0,2.400826685E0
1.193344112E1,-1.877778343E0,1.089467838E0,-2.038853931E0,2.978240593E0
1.194349612E1,-2.474737838E0,1.321302922E0,-2.106607958E0,3.508271066E0
1.195355112E1,-2.944058171E0,1.301816491E0,-2.191605424E0,3.894270024E0
1.196360612E1,-3.172575252E0,9.657325691E-1,-2.183647363E0,3.970666056E0
1.197366112E1,-3.122430992E0,4.509232378E-1,-2.035765432E0,3.754630203E0
1.198371612E1,-2.938876953E0,-7.002391577E-2,-1.846798625E0,3.471680609E0
1.199377112E1,-2.367456926E0,-6.164491421E-1,-1.599499995E0,2.922885915E0
1.200382712E1,-1.650408778E0,-1.193350641E0,-1.370484438E0,2.454824328E0
1.201388213E1,-1.199536337E0,-1.891154433E0,-1.147172256E0,2.516218731E0
1.202393712E1,-1.096691342E0,-2.258252572E0,-9.873351073E-1,2.697641043E0
1.203399212E1,-9.981088945E-1,-2.068400497E0,-9.925040460E-1,2.501912521E0
1.204404712E1,-6.905031051E-1,-1.809195181E0,-1.176968497E0,2.266106040E0
1.205410212E1,-4.123916215E-1,-1.768795014E0,-1.311070880E0,2.240002121E0
1.206415712E1,-7.035625689E-2,-1.959368051E0,-1.145839090E0,2.270907392E0
1.207421212E1,1.182909999E-1,-2.638418069E0,-8.233487749E-1,2.766431975E0
1.208426712E1,2.939874780E-1,-3.359834087E0,-3.835247584E-1,3.394407897E0
1.209432212E1,4.998233561E-1,-3.676991158E0,1.971469887E-1,3.716040136E0
1.210437712E1,8.554568593E-1,-3.583858461E0,9.145279900E-1,3.796341574E0
1.211443212E1,1.605800662E0,-3.275578049E0,1.645687151E0,4.002036172E0
1.212448712E1,2.115922573E0,-2.833161340E0,1.847079291E0,3.989440239E0
1.213454312E1,2.398097359E0,-2.269026652E0,1.740099803E0,3.731929825E0
1.214459812E1,2.533874238E0,-1.741307838E0,1.531726087E0,3.434946353E0
1.215465312E1,2.704713800E0,-1.340491730E0,1.532627728E0,3.385460467E0
1.216470812E1,2.874215226E0,-1.236054026E0,1.689457068E0,3.555728886E0
1.217476312E1,2.956663890E0,-1.495439436E0,1.918602433E0,3.828738143E0
1.218481812E1,2.974853994E0,-1.868398824E0,2.334877556E0,4.218094789E0
1.219487312E1,3.087144508E0,-2.242173899E0,3.053723577E0,4.887026979E0
1.220492812E1,3.139565673E0,-2.245074118E0,3.947251804E0,5.520690828E0
1.221498312E1,3.558826531E0,-1.650998177E0,4.749882724E0,6.160554127E0
1.222503812E1,2.796560109E0,-1.721228499E0,5.365748899E0,6.290837563E0
1.223509312E1,2.287432517E0,-1.743182455E0,5.796728454E0,6.470942231E0
1.224514812E1,2.430660357E0,-7.427776515E-1,5.515355759E0,6.072806399E0
1.225520312E1,2.021344152E0,-6.434743881E-2,4.129969107E0,4.598545161E0
1.226525813E1,1.146105139E0,2.676732534E-1,2.696079801E0,2.941777057E0
1.227531412E1,6.173743178E-1,7.495545745E-1,1.759085566E0,2.009319571E0
1.228536912E1,5.277002491E-1,1.130180247E0,1.000945086E0,1.599270462E0
1.229542412E1,2.668962315E-1,1.415353632E0,1.915255487E-1,1.452976785E0
1.230547912E1,5.693561058E-1,1.899704232E0,-4.546690372E-1,2.034641609E0
1.231553412E1,8.422799396E-1,2.236376384E0,-9.931940174E-1,2.587904400E0
1.232558912E1,7.933594291E-1,2.150100718E0,-1.377651955E0,2.674000222E0
1.233564412E1,6.640787335E-1,2.286644313E0,-1.875814848E0,3.031241350E0
1.234569912E1,5.248982634E-1,2.647477745E0,-2.683541032E0,3.806054265E0
1.235575412E1,5.469180004E-1,2.742734735E0,-3.751526785E0,4.679280537E0
1.236580912E1,2.026944980E-1,2.907433843E0,-4.657420703E0,5.494162740E0
1.237586412E1,-2.104982651E-1,3.069747872E0,-3.966493821E0,5.020033341E0
1.238591912E1,-3.909948322E-1,3.121034970E0,-2.281809250E0,3.885921988E0
1.239597412E1,-6.328131598E-1,3.045187227E0,-8.531894553E-1,3.225143406E0
1.240602912E1,-9.037843890E-1,2.792094006E0,-2.615810394E-2,2.934842314E0
1.241608512E1,-1.151138714E0,2.510219035E0,1.674993761E-1,2.766654294E0
1.242614012E1,-1.206281905E0,2.339416603E0,-7.715631288E-2,2.633237394E0
1.243619512E1,-1.172595730E0,2.019873869E0,-2.983495009E-1,2.354545310E0
1.244625012E1,-1.013369981E0,1.680412011E0,-6.149306202E-1,2.056415063E0
1.245630513E1,-5.860496506E-1,1.478386617E0,-8.215583575E-1,1.789983049E0
1.246636012E1,5.263841688E-4,1.224925021E0,-1.040986819E0,1.607512097E0
1.247641417E1,3.979583544E-1,1.091876891E0,-1.427935671E0,1.841077477E0
1.248646917E1,5.657528322E-1,1.151231977E0,-1.926077514E0,2.314127464E0
1.249652417E1,5.832224488E-1,1.162378525E0,-2.515294418E0,2.831603480E0
1.250657917E1,5.532102988E-1,9.565255433E-1,-3.129843800E0,3.319172331E0
1.251663417E1,4.934404624E-1,5.900553954E-1,-3.498137695E0,3.581705765E0
1.252668917E1,4.612751118E-1,2.427781481E-1,-3.389613372E0,3.429459837E0
1.253674417E1,4.336674466E-1,-2.337348443E-1,-2.848302705E0,2.890592972E0
1.254680017E1,4.552207951E-1,-7.114570409E-1,-2.134493330E0,2.295530193E0
1.255685517E1,4.017830547E-1,-1.269115938E0,-1.583832965E0,2.068963931E0
1.256691017E1,1.940758666E-1,-1.788009549E0,-1.392448919E0,2.274545577E0
1.257696517E1,-1.495527547E-1,-2.207232108E0,-1.504852284E0,2.675597130E0
1.258702017E1,-5.015346169E-1,-2.374439086E0,-1.845281857E0,3.048698588E0
1.259707517E1,-6.260970479E-1,-2.456963180E0,-2.138752441E0,3.317066111E0
1.260713017E1,-6.479656345E-1,-2.578960072E0,-2.217756511E0,3.462562412E0
1.261718517E1,-6.531029981E-1,-2.578450779E0,-1.935457617E0,3.289520958E0
1.262724017E1,-4.084413523E-1,-2.728492087E0,-1.181959680E0,3.001420013E0
1.263729517E1,1.976878927E-1,-3.357846619E0,-1.247351797E-1,3.365972858E0
1.264735017E1,7.379102831E-1,-3.874897773E0,5.373942018E-1,3.980971849E0
1.265740517E1,1.000311541E0,-3.299684365E0,9.100629099E-1,3.566055887E0
1.266746017E1,1.127350560E0,-2.137501722E0,1.418328695E0,2.802050889E0
1.267751517E1,1.321077951E0,-1.226779758E0,1.881128798E0,2.605548134E0
1.268757117E1,1.531069153E0,-5.614952552E-1,2.228323599E0,2.761317753E0
1.269762617E1,1.772008644E0,-1.026964027E-1,2.411026869E0,2.993929149E0
1.270768117E1,1.825699532E0,1.266319799E-1,2.506501375E0,3.103508270E0
1.271773617E1,1.720193250E0,1.615866351E-1,2.546677594E0,3.077457039E0
1.272779117E1,1.482932973E0,9.952838123E-2,2.573711611E0,2.972034246E0
1.273784617E1,1.131603971E0,3.921786010E-2,2.486772870E0,2.732417408E0
1.274790117E1,8.332976662E-1,4.063814878E-2,2.309838463E0,2.455888879E0
1.275795617E1,4.568701485E-1,-1.090897483E-1,2.119837868E0,2.171253899E0
1.276801117E1,8.861999843E-2,-5.509638351E-1,1.973392013E0,2.050778069E0
1.277806617E1,-1.869165906E-1,-1.037265651E0,1.876656847E0,2.152370499E0
1.278812117E1,-3.253357168E-1,-1.284367815E0,1.669914504E0,2.131679729E0
1.279817617E1,-2.823606551E-1,-1.278436984E0,1.373936634E0,1.897848924E0
1.280823117E1,4.329753555E-2,-1.308562424E0,1.010134571E0,1.653657203E0
1.281828617E1,4.747404090E-1,-1.175013773E0,7.356218290E-1,1.465324298E0
1.282834217E1,8.084962624E-1,-1.176629943E0,6.423973310E-1,1.565502654E0
1.283839717E1,1.178972630E0,-9.550941449E-1,4.427464914E-1,1.580571335E0
1.284845217E1,1.514021449E0,-5.994132793E-1,4.458174491E-1,1.688286239E0
1.285850717E1,1.521846632E0,-2.410485417E-1,5.278141236E-1,1.628714008E0
1.286856217E1,1.504960312E0,1.805093944E-1,2.781076097E-1,1.541049325E0
1.287861717E1,1.448129761E0,6.775583929E-1,7.823106766E-2,1.600713991E0
1.288867217E1,1.239747128E0,1.122434440E0,-1.851696253E-2,1.672475677E0
1.289872717E1,9.094311183E-1,1.464733368E0,-9.374256134E-2,1.726643121E0
1.290878217E1,4.432255246E-1,1.734019868E0,-2.280986766E-1,1.804245764E0
1.291883717E1,-3.791113531E-2,1.963620731E0,-2.591626676E-1,1.981012095E0
1.292889217E1,-2.798928195E-1,2.280096601E0,-2.114598398E-1,2.306923441E0
1.293894717E1,-4.306659977E-1,2.477716118E0,-1.710696860E-1,2.520677528E0
1.294900217E1,-4.468208313E-1,2.588404495E0,-1.021379570E-1,2.628672449E0
1.295905717E1,-3.689463707E-1,2.577691811E0,-9.871269464E-3,2.603980403E0
1.296911317E1,-4.137823818E-1,2.546252502E0,-6.461209841E-3,2.579662654E0
1.297916817E1,-1.902391247E-1,2.585648117E0,-1.495670803E-1,2.596947712E0
1.298922317E1,5.146474365E-2,2.505557050E0,-2.753898056E-1,2.521171215E0
1.299927817E1,8.373585574E-2,2.437535806E0,-4.988587117E-1,2.489468319E0
1.300933317E1,-1.724287068E-1,2.439147883E0,-8.221103346E-1,2.579736315E0
1.301938817E1,-6.775271103E-1,2.311274539E0,-1.199107225E0,2.690518745E0
1.302944317E1,-1.187137901E0,2.079573941E0,-1.523048235E0,2.837886555E0
1.303949817E1,-1.693077664E0,1.800051890E0,-1.734732059E0,3.019270459E0
1.304955317E1,-2.266546555E0,1.616484402E0,-1.827198173E0,3.330001242E0
1.305960817E1,-2.628706428E0,1.449025993E0,-1.797101970E0,3.498478141E0
1.306966317E1,-2.854499292E0,1.203113152E0,-1.741439400E0,3.553626127E0
1.307971817E1,-2.856398175E0,9.964713818E-1,-1.521426802E0,3.386252392E0
1.308977317E1,-2.659878520E0,7.392892027E-1,-1.218853857E0,3.017798368E0
1.309982817E1,-2.592050818E0,2.574447191E-1,-9.389318562E-1,2.768862268E0
1.310988417E1,-2.371891016E0,-1.400460774E-1,-7.028978866E-1,2.477810593E0
1.311993917E1,-1.807671104E0,-5.318627357E-1,-5.774733567E-1,1.970793817E0
1.312999417E1,-1.288719898E0,-1.112298877E0,-5.297840506E-1,1.782884995E0
1.314004917E1,-9.633680282E-1,-1.736116680E0,-4.262561738E-1,2.030732235E0
1.315010417E1,-5.299105332E-1,-2.320185696E0,-1.056615257E-1,2.382274374E0
1.316015917E1,-9.754178971E-3,-2.809145072E0,-8.712762455E-2,2.810512836E0
1.317021417E1,3.785087975E-1,-3.131717833E0,-3.125371850E-1,3.169953467E0
1.318026917E1,8.442834880E-1,-3.317047087E0,-2.924596006E-1,3.435279989E0
1.319032417E1,1.010044670E0,-3.449725673E0,-4.558401614E-1,3.623339303E0
1.320037917E1,1.432480419E0,-3.495208824E0,-6.828951466E-1,3.838597486E0
1.321043417E1,1.741227439E0,-3.459416263E0,-1.101518950E0,4.026509391E0
1.322048917E1,1.616397424E0,-3.493693226E0,-1.516924446E0,4.137595046E0
1.323054417E1,1.422138010E0,-3.525044242E0,-1.868073134E0,4.235340679E0
1.324059917E1,1.369798121E0,-3.461539972E0,-1.925857658E0,4.191364168E0
1.325065417E1,1.316327380E0,-3.022616390E0,-1.604939075E0,3.666709294E0
1.326071017E1,9.892819378E-1,-2.196134092E0,-7.900886428E-1,2.534940584E0
1.327076517E1,1.997401923E-1,-1.425237181E0,4.833004403E-1,1.518149031E0
1.328082017E1,-1.383650760E-1,-7.425858629E-1,1.324291434E0,1.524574190E0
1.329087517E1,2.079636433E-1,-2.800056159E-1,1.609635558E0,1.646990787E0
1.330093017E1,7.296048979E-1,-9.621944189E-2,1.739097590E0,1.888396653E0
1.331098517E1,1.385882203E0,3.743796766E-2,1.872456207E0,2.329841911E0
1.332104017E1,1.784172606E0,3.446933627E-2,2.011113571E0,2.688687007E0
1.333109517E1,1.936524149E0,8.496589065E-3,2.091259017E0,2.850186353E0
1.334115017E1,2.366778795E0,3.411441028E-2,2.281204648E0,3.287354606E0
1.335120517E1,2.713460065E0,-2.157657659E-1,2.659668020E0,3.805687108E0
1.336126017E1,2.513037978E0,-4.650676525E-1,3.243925316E0,4.129733558E0
1.337131517E1,1.703822508E0,-4.028749126E-1,3.819512361E0,4.201665623E0
1.338137017E1,3.904270310E-1,-1.755725902E-1,4.479446661E0,4.499855708E0
1.339142517E1,-3.964549256E-1,1.149428111E-1,4.906052499E0,4.923386993E0
1.340148117E1,-2.666356650E-1,-4.617195368E-2,4.702109803E0,4.709889917E0
1.341153617E1,-1.673470607E-2,-1.981106830E-1,4.101753953E0,4.106569539E0
1.342159117E1,-1.512953894E-1,5.567555022E-1,3.388061521E0,3.436833987E0
1.343164617E1,-5.305886640E-1,9.361345482E-1,2.710199658E0,2.915999727E0
1.344170117E1,-6.195300400E-1,1.084830412E0,2.178360165E0,2.511160588E0
1.345175617E1,-4.949775858E-1,1.214583635E0,1.687851277E0,2.137535532E0
1.346181117E1,1.776591326E-1,1.186419352E0,8.237088172E-1,1.455214713E0
1.347186675E1,6.570924072E-1,1.511704051E0,9.077217579E-3,1.648363421E0
1.348192175E1,9.136973199E-1,2.216478310E0,-3.959675968E-1,2.429899016E0
1.349197675E1,9.622038475E-1,2.875644286E0,-6.152452004E-1,3.094138484E0
1.350203175E1,8.446004802E-1,3.168897938E0,-6.789073455E-1,3.349056479E0
1.351208675E1,7.464673908E-1,3.119132286E0,-5.580032980E-1,3.255390524E0
1.352214175E1,5.167813413E-1,2.950158278E0,-5.778475785E-1,3.050312221E0
1.353219675E1,1.991931853E-1,2.763507553E0,-9.278081862E-1,2.921896636E0
1.354225275E1,-1.302644896E-1,2.621741225E0,-1.401618522E0,2.975740306E0
1.355230775E1,-3.350423506E-1,2.519019679E0,-1.998521007E0,3.232924332E0
1.356236275E1,-3.280397616E-1,2.480604057E0,-2.773758892E0,3.735605033E0
1.357241775E1,-2.168186667E-1,2.128903976E0,-3.601969042E0,4.189680591E0
1.358247275E1,2.648477692E-1,1.652958748E0,-3.950316914E0,4.290387009E0
1.359252775E1,7.795784920E-1,1.261986428E0,-3.624148700E0,3.915968101E0
1.360258275E1,9.627577250E-1,9.045052046E-1,-2.951404320E0,3.233545973E0
1.361263775E1,8.425781476E-1,6.245744330E-1,-2.303377290E0,2.530924356E0
1.362269275E1,6.052402490E-1,4.765363812E-1,-1.972596792E0,2.117673437E0
1.363274775E1,5.581404153E-1,5.331806982E-1,-1.916148942E0,2.065775677E0
1.364280275E1,6.089032007E-1,5.878071409E-1,-1.890781381E0,2.071553662E0
1.365285775E1,6.773649231E-1,6.044009542E-1,-1.749816706E0,1.971289491E0
1.366291275E1,6.646111225E-1,5.288192600E-1,-1.578688585E0,1.792655963E0
1.367296775E1,5.482045341E-1,3.529689270E-1,-1.385207727E0,1.530985213E0
1.368302275E1,2.432287674E-1,1.207929504E-1,-1.210392351E0,1.240484105E0
1.369307875E1,-6.822799830E-2,-2.259767586E-1,-1.063104497E0,1.088995742E0
1.370313375E1,-3.676194182E-1,-7.136930162E-1,-8.658486772E-1,1.180760640E0
1.371318875E1,-7.306962077E-1,-1.366560372E0,-6.630789328E-1,1.685549723E0
1.372324375E1,-1.067576959E0,-2.083884509E0,-5.524613070E-1,2.405724154E0
1.373329875E1,-1.163978469E0,-2.577728063E0,-6.991843200E-1,2.913483578E0
1.374335375E1,-1.094352895E0,-2.752876731E0,-1.153229971E0,3.178974350E0
1.375340875E1,-8.935099541E-1,-2.799469684E0,-1.836519220E0,3.465284028E0
1.376346375E1,-5.921954763E-1,-2.803994844E0,-2.581929288E0,3.857387900E0
1.377351875E1,-4.034760429E-1,-2.930184774E0,-2.773516817E0,4.054771419E0
1.378357375E1,-3.182296687E-1,-3.111489390E0,-1.822202897E0,3.619814877E0
1.379362875E1,-1.083322780E-1,-3.082008898E0,-5.602182233E-1,3.134383383E0
1.380368375E1,1.727256540E-1,-2.955624256E0,2.313369743E-1,2.969691177E0
1.381373875E1,4.733585657E-1,-2.639703287E0,6.741827953E-1,2.765253011E0
1.382379375E1,7.901382711E-1,-2.093630063E0,1.006422758E0,2.453669109E0
1.383384875E1,9.325316401E-1,-1.373029731E0,1.296724151E0,2.106257208E0
1.384390475E1,8.853788891E-1,-6.694056201E-1,1.595429309E0,1.943551991E0
1.385395975E1,7.856531643E-1,-7.596994936E-2,1.860219154E0,2.020751749E0
1.386401475E1,6.753479992E-1,3.623414290E-1,2.023581004E0,2.163854503E0
1.387406975E1,4.865498477E-1,5.357359314E-1,2.129398066E0,2.249017533E0
1.388412475E1,2.290864541E-1,4.657318962E-1,2.220564344E0,2.280415052E0
1.389417975E1,-1.767667744E-1,2.247219461E-1,2.328063065E0,2.345554109E0
1.390423475E1,-4.798461611E-1,-1.202865815E-1,2.403015014E0,2.453406276E0
1.391428975E1,-7.558053211E-1,-4.779192477E-1,2.434273059E0,2.593324858E0
1.392434475E1,-8.806338005E-1,-5.594288492E-1,2.353151128E0,2.574062307E0
1.393439975E1,-6.587417606E-1,-3.026302475E-1,2.193862449E0,2.310532021E0
1.394445475E1,-3.440833519E-1,-3.117735386E-2,1.868746734E0,1.900415674E0
1.395450975E1,1.734925529E-2,-1.147562850E-1,1.578047730E0,1.582309906E0
1.396456475E1,2.742900906E-1,-1.551237077E-1,1.249257624E0,1.288387764E0
1.397461975E1,5.144233420E-1,-1.232949740E-1,7.491780869E-1,9.171154950E-1
1.398467475E1,6.444242683E-1,-9.229245186E-3,3.458406595E-1,7.314188802E-1
1.399473075E1,9.473137667E-1,5.465608817E-1,1.324405309E-1,1.101668128E0
1.400478575E1,9.793399170E-1,1.052878886E0,-4.380312967E-1,1.503173988E0
1.401484075E1,1.032915908E0,1.553218698E0,-5.852291036E-1,1.954967186E0
1.402489575E1,1.152807875E0,2.083120862E0,-4.255181821E-1,2.418558299E0
1.403495075E1,1.103355780E0,2.487954592E0,-2.846167302E-1,2.736479255E0
1.404500575E1,9.903101707E-1,2.778924322E0,-2.153810191E-1,2.957959365E0
1.405506075E1,8.047937324E-1,2.918910758E0,-2.358228850E-1,3.036996114E0
1.406511575E1,5.503624124E-1,2.997506692E0,-2.958351982E-1,3.061937886E0
1.407517075E1,2.527414198E-1,2.895845831E0,-3.679804472E-1,2.930053056E0
1.408522575E1,-1.107996020E-1,2.577936224E0,-4.907217264E-1,2.626564208E0
1.409528075E1,-4.933681031E-1,2.228432357E0,-8.197270095E-1,2.425134064E0
1.410533575E1,-7.794921724E-1,1.879475790E0,-8.466616237E-1,2.203831481E0
1.411539075E1,-1.084690225E0,1.600505131E0,-9.029972076E-1,2.133910381E0
1.412544575E1,-1.475256164E0,1.311324649E0,-9.747612548E-1,2.201388786E0
1.413550075E1,-1.671767487E0,1.080350860E0,-1.125113050E0,2.286447875E0
1.414555675E1,-1.813137666E0,9.598701507E-1,-1.419321553E0,2.494652796E0
1.415561175E1,-1.844655620E0,1.002597510E0,-1.626965536E0,2.656119911E0
1.416566675E1,-1.833729513E0,8.963079929E-1,-1.599559636E0,2.593168520E0
1.417572175E1,-1.811138503E0,7.606765634E-1,-1.345943674E0,2.381263506E0
1.418577675E1,-1.629001536E0,8.427270323E-1,-1.165607357E0,2.173125714E0
1.419583175E1,-1.367544458E0,8.711082476E-1,-1.062415695E0,1.938487692E0
1.420588675E1,-1.325831591E0,5.379385775E-1,-1.047738014E0,1.773404147E0
1.421594175E1,-1.254356396E0,4.740723646E-1,-1.181013601E0,1.786882117E0
1.422599675E1,-1.399988465E0,5.846970069E-1,-1.314702001E0,2.007555639E0
1.423605175E1,-1.520982559E0,4.395930880E-1,-1.529212954E0,2.201163849E0
1.424610675E1,-1.491706866E0,-4.525744915E-3,-1.652814907E0,2.226433689E0
1.425616175E1,-1.475340510E0,-4.449415362E-1,-1.766735040E0,2.344345387E0
1.426621675E1,-1.439029593E0,-9.219018406E-1,-1.813126849E0,2.491613562E0
1.427627175E1,-1.314329825E0,-1.493293508E0,-1.611726522E0,2.560283339E0
1.428632675E1,-1.109602360E0,-2.033822402E0,-1.278950955E0,2.646387444E0
1.429638275E1,-1.065100371E0,-2.381325352E0,-1.042474351E0,2.809252927E0
1.430643775E1,-1.036579042E0,-2.384708551E0,-9.773878241E-1,2.777880117E0
1.431649275E1,-1.094104607E0,-2.337746639E0,-1.076457199E0,2.796584406E0
1.432654775E1,-1.210448850E0,-2.543447008E0,-1.050068715E0,3.006152592E0
1.433660275E1,-1.034966161E0,-2.921073643E0,-8.322061372E-1,3.208799345E0
1.434665775E1,-9.298890641E-1,-3.498453444E0,-8.728360999E-1,3.723669297E0
1.435671275E1,-5.674657010E-1,-4.167168508E0,-7.523811185E-1,4.272398395E0
1.436676775E1,1.615471664E-1,-4.766128628E0,-4.650641441E-1,4.791488730E0
1.437682275E1,1.030179630E0,-4.898096777E0,1.370469674E-1,5.007135307E0
1.438687775E1,1.842328721E0,-4.224783463E0,8.965863204E-1,4.695405995E0
1.439693275E1,2.427335630E0,-2.892588932E0,1.315830513E0,3.998804688E0
1.440698775E1,2.277483480E0,-1.778026013E0,1.479056708E0,3.245907616E0
1.441704275E1,1.985740017E0,-7.728130442E-1,1.508596841E0,2.610798316E0
1.442709775E1,1.789835050E0,1.605002224E-2,1.392233741E0,2.267615907E0
1.443715275E1,1.762939905E0,5.132206428E-1,1.279233960E0,2.237809657E0
1.444720775E1,1.815933074E0,5.797029001E-1,1.324590812E0,2.321251645E0
1.445726375E1,2.111608935E0,4.041069210E-1,1.568215052E0,2.661107504E0
1.446731875E1,2.280740525E0,1.155029744E-1,1.958718864E0,3.008603974E0
1.447737317E1,2.148190871E0,-1.719701207E-1,2.453135008E0,3.265297705E0
1.448742817E1,1.920469742E0,-3.792135698E-1,3.009706907E0,3.590312330E0
1.449748317E1,1.299059383E0,-8.090529174E-1,3.832288235E0,4.126566978E0
1.450753817E1,3.563301989E-1,-1.269345149E0,4.871344596E0,5.046603461E0
1.451759317E1,3.332361822E-1,-9.496936566E-1,5.638561270E0,5.727681694E0
1.452764817E1,4.790249928E-1,-8.767578274E-1,5.795788221E0,5.881269450E0
1.453770317E1,8.044833914E-1,-3.769103515E-1,5.251329414E0,5.325947385E0
1.454775817E1,1.178235150E-1,7.918533325E-2,4.349709810E0,4.352025750E0
1.455781317E1,2.378478489E-1,7.721464616E-1,2.850301284E0,2.962600068E0
1.456786817E1,2.207062611E-1,1.346358826E0,1.682363226E0,2.166042328E0
1.457792317E1,1.718309387E-1,1.591377043E0,7.143098974E-1,1.752782186E0
1.458797817E1,2.603319645E-1,1.859881770E0,-9.617281035E-2,1.880473914E0
1.459803317E1,4.909286448E-1,2.259067674E0,-9.252423549E-1,2.490074518E0
1.460808817E1,4.390804334E-1,2.577364951E0,-1.651256039E0,3.092288510E0
1.461814417E1,9.234908534E-3,2.705404356E0,-2.148707911E0,3.454886930E0
1.462819917E1,-4.310512196E-1,2.861099921E0,-2.714843516E0,3.967628162E0
1.463825417E1,-6.474061290E-1,3.178889660E0,-3.220895473E0,4.571503234E0
1.464830917E1,-8.488992070E-1,3.268652607E0,-3.084419121E0,4.573659480E0
1.465836417E1,-9.513484186E-1,3.252045929E0,-2.618135247E0,4.281997047E0
1.466841917E1,-7.170882019E-1,3.175729240E0,-2.092036697E0,3.869895249E0
1.467847417E1,-2.789345157E-1,2.761466875E0,-1.548826854E0,3.178422312E0
1.468852917E1,1.518610344E-1,2.213675739E0,-1.083751089E0,2.469400428E0
1.469858417E1,4.753377020E-1,1.723344022E0,-8.084266806E-1,1.961992418E0
1.470863917E1,7.801971274E-1,1.314279247E0,-7.477548015E-1,1.701521302E0
1.471869417E1,9.612976753E-1,1.023383192E0,-9.103424799E-1,1.673358840E0
1.472874917E1,9.463589164E-1,8.220185333E-1,-1.190141104E0,1.728509623E0
1.473880417E1,7.916679027E-1,7.554637706E-1,-1.446974205E0,1.814165904E0
1.474885917E1,6.665645311E-1,7.094637251E-1,-1.709088510E0,1.966883471E0
1.475891417E1,5.863114963E-1,7.178679281E-1,-2.000778033E0,2.205041557E0
1.476897017E1,4.951301616E-1,7.692000496E-1,-2.239002954E0,2.418668398E0
1.477902517E1,3.590756860E-1,6.738185138E-1,-2.406471888E0,2.524692790E0
1.478908017E1,1.540046237E-1,4.985721982E-1,-2.505776321E0,2.559532502E0
1.479913517E1,1.056671263E-1,3.763127661E-1,-2.523336679E0,2.553430013E0
1.480919017E1,8.016329834E-2,2.403848827E-1,-2.497672080E0,2.510493351E0
1.481924517E1,1.350964641E-1,-4.096559286E-3,-2.359298891E0,2.363167174E0
1.482930017E1,3.041967531E-1,-3.177032000E-1,-2.130963950E0,2.175885646E0
1.483935517E1,3.761746256E-1,-7.572775769E-1,-1.844556803E0,2.029129487E0
1.484941017E1,2.428449890E-1,-1.360964001E0,-1.531666446E0,2.063298040E0
1.485946517E1,1.626423134E-1,-1.881899461E0,-1.334345137E0,2.312677030E0
1.486952017E1,1.585711529E-1,-2.060376363E0,-1.202919610E0,2.391089951E0
1.487957517E1,1.144519374E-1,-2.079847006E0,-1.108216935E0,2.359450697E0
1.488963017E1,2.931930972E-2,-2.281423334E0,-1.239772271E0,2.596687762E0
1.489968517E1,-2.003951536E-1,-2.691435358E0,-1.494238418E0,3.084919927E0
1.490974017E1,-4.795627539E-1,-3.211826441E0,-1.540013931E0,3.594085757E0
1.491979517E1,-8.111489980E-1,-4.025192265E0,-1.094536790E0,4.249487763E0
1.492985117E1,-9.787274212E-1,-4.758900300E0,-2.540275332E-1,4.865138171E0
1.493990617E1,-8.943630628E-1,-5.033510106E0,7.383068705E-1,5.165385398E0
1.494996117E1,-7.315540673E-1,-4.581030924E0,1.795999185E0,4.974598351E0
1.496001617E1,-3.394188818E-1,-3.699469609E0,2.627705970E0,4.550397700E0
1.497007117E1,3.924599252E-1,-2.738770323E0,3.107458320E0,4.160671206E0
1.498012617E1,8.777807978E-1,-2.080517097E0,3.212501210E0,3.926730771E0
1.499018117E1,1.080490316E0,-1.675046021E0,3.132425931E0,3.712860178E0
1.500023617E1,1.137348933E0,-1.235300320E0,2.980921065E0,3.421318440E0
1.501029117E1,9.411660773E-1,-7.800442958E-1,2.802627765E0,3.057611008E0
1.502034617E1,5.128972187E-1,-4.129069805E-1,2.652449048E0,2.732954753E0
1.503040117E1,4.590064287E-2,-2.778012156E-2,2.455622413E0,2.456208468E0
1.504045617E1,-3.629326190E-1,4.575972497E-1,2.152702729E0,2.230525581E0
1.505051117E1,-6.064077917E-1,8.315962726E-1,1.830663818E0,2.100145896E0
1.506056617E1,-6.876208663E-1,9.646876717E-1,1.599611092E0,1.990527670E0
1.507062117E1,-6.604672008E-1,8.006761962E-1,1.582666884E0,1.892652572E0
1.508067617E1,-5.528427282E-1,5.323012769E-1,1.433177115E0,1.625723339E0
1.509073217E1,-5.514399812E-1,6.066486239E-3,1.302356043E0,1.414303404E0
1.510078717E1,-2.513268504E-1,-2.856949568E-3,1.047491116E0,1.077223740E0
1.511084217E1,1.166251099E-1,3.748287427E-1,6.869085293E-1,7.911645405E-1
1.512089717E1,2.327107776E-1,6.025994271E-1,5.374913386E-1,8.403435694E-1
1.513095217E1,4.257196553E-1,8.906087118E-1,4.277963305E-1,1.075839580E0
1.514100717E1,4.406012211E-1,1.152265180E0,3.362077372E-1,1.278624309E0
1.515106217E1,3.777647394E-1,1.451946677E0,3.631846706E-1,1.543618624E0
1.516111717E1,4.977833357E-1,1.845083052E0,5.186455433E-1,1.980180021E0
1.517117217E1,4.919450005E-1,2.140445795E0,7.226737547E-1,2.312093303E0
1.518122717E1,4.529083675E-1,2.392922135E0,8.104615847E-1,2.566719758E0
1.519128217E1,4.478535592E-1,2.544021789E0,8.428680233E-1,2.717176140E0
1.520133717E1,4.736520594E-1,2.616006861E0,8.761935711E-1,2.799205841E0
1.521139217E1,4.692920465E-1,2.628249761E0,9.577973127E-1,2.836425131E0
1.522144717E1,2.541836721E-1,2.737419031E0,9.576357834E-1,2.911209128E0
1.523150217E1,1.807564758E-1,2.913208553E0,7.660542476E-1,3.017664012E0
1.524155717E1,2.609631166E-1,2.822128814E0,6.446251202E-1,2.906553687E0
1.525161217E1,2.115640298E-1,2.553826985E0,6.590176030E-1,2.645958391E0
1.526166817E1,1.495051821E-1,2.216322189E0,4.791688708E-1,2.272452123E0
1.527172317E1,1.215851750E-1,1.838100892E0,3.398400275E-1,1.873202895E0
1.528177817E1,-4.268865768E-2,1.412082115E0,8.561259270E-2,1.415318952E0
1.529183317E1,-1.468925822E-1,1.048699881E0,-2.208459730E-1,1.081721691E0
1.530188817E1,-2.639100951E-1,6.783688170E-1,-5.087112701E-1,8.880427616E-1
1.531194317E1,-5.623939357E-1,4.760387832E-1,-7.619378078E-1,1.059928811E0
1.532199817E1,-9.070442849E-1,4.931518292E-1,-9.129936806E-1,1.378218242E0
1.533205317E1,-1.273853060E0,6.922027445E-1,-9.732198557E-1,1.746139497E0
1.534210817E1,-1.735362389E0,9.786291879E-1,-1.033446250E0,2.244372710E0
1.535216317E1,-1.939255676E0,1.374059426E0,-1.218384326E0,2.670807415E0
1.536221817E1,-1.999722318E0,1.594094244E0,-1.528656299E0,2.979398578E0
1.537227317E1,-2.249376061E0,1.300456429E0,-1.738012347E0,3.125950496E0
1.538232817E1,-2.472841586E0,8.521726245E-1,-1.975464267E0,3.277743547E0
1.539238317E1,-2.250512321E0,7.759898365E-2,-2.194527862E0,3.144325022E0
1.540243817E1,-1.688451932E0,-2.755646557E-1,-2.173346908E0,2.765907191E0
1.541249317E1,-1.030311485E0,-2.242910063E-1,-1.730587553E0,2.026519551E0
1.542254917E1,-6.230706022E-1,-5.529489648E-1,-1.300082792E0,1.544080568E0
1.543260417E1,-4.546703529E-1,-1.285825526E0,-9.971865693E-1,1.689512790E0
1.544265917E1,-3.293173783E-1,-1.892536715E0,-8.661130444E-1,2.107201215E0
1.545271417E1,-4.434145358E-1,-1.938021621E0,-1.052285979E0,2.249411042E0
1.546276917E1,-8.478926088E-1,-1.943377086E0,-1.287519464E0,2.480593225E0
1.547282487E1,-6.184685511E-1,-2.177323015E0,-1.225698096E0,2.574019169E0
1.548287987E1,-5.299153937E-1,-2.521687764E0,-1.600526766E0,3.033381847E0
1.549293487E1,-7.347628731E-1,-2.942551636E0,-1.837351863E0,3.546032780E0
1.550298987E1,-9.559816061E-1,-3.416080209E0,-1.854683011E0,4.002918172E0
1.551304487E1,-1.135112519E0,-3.884899435E0,-1.785222766E0,4.423566929E0
1.552309987E1,-1.133065409E0,-3.993579878E0,-1.447142605E0,4.396218737E0
1.553315487E1,-8.758057545E-1,-3.391234220E0,-8.368114042E-1,3.601077420E0
1.554320987E1,-4.008451613E-1,-2.390995477E0,1.204643369E-2,2.424392982E0
1.555326487E1,3.036311081E-1,-1.537896654E0,7.408924361E-1,1.733851081E0
1.556331987E1,1.003588247E0,-8.548529881E-1,1.077965780E0,1.702930775E0
1.557337487E1,1.507640821E0,-3.794761097E-1,1.167874907E0,1.944457447E0
1.558342987E1,1.963276184E0,-2.094659758E-1,1.299291079E0,2.363574978E0
1.559348587E1,2.411438951E0,-2.869234568E-1,1.522400948E0,2.866193910E0
1.560354087E1,2.838630534E0,-5.029388988E-1,1.913501322E0,3.460095107E0
1.561359587E1,3.231235689E0,-8.944170034E-1,2.246772734E0,4.035945189E0
1.562365087E1,3.484933805E0,-1.611697286E0,2.549481919E0,4.608925018E0
1.563370587E1,3.598956264E0,-2.177848095E0,3.154782175E0,5.258151679E0
1.564376087E1,3.269348133E0,-2.149972664E0,4.142420168E0,5.698303652E0
1.565381587E1,2.570417582E0,-1.672628782E0,5.234595852E0,6.066772397E0
1.566387087E1,2.490768565E0,-8.573474103E-1,6.138911022E0,6.680209664E0
1.567392587E1,1.603097348E0,-8.154369074E-1,6.035684277E0,6.297963413E0
1.568398087E1,1.315588731E0,-8.995555365E-1,5.095273075E0,5.338705984E0
1.569403587E1,1.024806989E0,-6.632859242E-1,4.111656797E0,4.289044089E0
1.570409087E1,5.980892869E-1,-3.958214164E-1,2.563257959E0,2.661705610E0
1.571414587E1,2.130532060E-1,1.274909359E-1,1.436932197E0,1.458224861E0
1.572420087E1,8.238812735E-2,5.686037153E-1,3.817366433E-1,6.897976902E-1
1.573425587E1,9.663190814E-2,1.134870299E0,-5.407422443E-1,1.260821357E0
1.574431087E1,2.467937965E-2,1.987217755E0,-1.422468524E0,2.443984488E0
1.575436587E1,-3.509809102E-1,2.494926227E0,-2.329762266E0,3.431564759E0
1.576442187E1,-9.540330215E-1,2.557080376E0,-3.467890048E0,4.413060212E0
1.577447687E1,-1.255292682E0,2.676858834E0,-4.752250847E0,5.596893875E0
1.578453187E1,-1.049056342E0,3.105480207E0,-4.673129833E0,5.708123068E0
1.579458687E1,-8.606877784E-1,3.374881897E0,-3.114801253E0,4.672536583E0
1.580464187E1,-7.508951949E-1,3.539021426E0,-1.674076552E0,3.986357806E0
1.581469687E1,-5.256141818E-1,3.645512087E0,-6.956596184E-1,3.748329088E0
1.582475187E1,-1.153828141E-1,3.648293023E0,-7.342933416E-3,3.650124531E0
1.583480687E1,6.735140931E-2,3.397907647E0,3.386999667E-1,3.415410702E0
1.584486187E1,1.853768725E-1,3.117523132E0,4.624024916E-1,3.157076358E0
1.585491687E1,1.921924785E-1,2.776087838E0,2.353842708E-1,2.792670297E0
1.586497187E1,2.123338706E-1,2.300394625E0,-2.913164334E-1,2.328468674E0
1.587502687E1,1.840872691E-1,1.839455107E0,-8.089704716E-1,2.017899015E0
1.588508187E1,2.809723069E-1,1.425526618E0,-1.277516048E0,1.934714146E0
1.589513687E1,5.060550627E-1,1.032413047E0,-1.546100882E0,1.926757993E0
1.590519187E1,8.785789427E-1,7.773563308E-1,-1.668274945E0,2.039442354E0
1.591524687E1,1.162177746E0,7.062185204E-1,-1.921071128E0,2.353702613E0
1.592530187E1,1.258616093E0,7.341746432E-1,-2.120942992E0,2.573232607E0
1.593535687E1,1.240759573E0,7.010969442E-1,-2.239183048E0,2.654234723E0
1.594541287E1,1.102115512E0,5.609444475E-1,-2.308803506E0,2.619139344E0
1.595546787E1,9.683377229E-1,3.496307516E-1,-2.280073797E0,2.501730626E0
1.596552287E1,7.733816128E-1,4.460840821E-2,-2.149956876E0,2.285262260E0
1.597557787E1,5.788469042E-1,-4.180472678E-1,-1.962403926E0,2.088266368E0
1.598563287E1,4.632447830E-1,-9.946604991E-1,-1.741079797E0,2.057985446E0
1.599568787E1,2.525878756E-1,-1.627072540E0,-1.535411003E0,2.251366836E0
1.600574287E1,4.398733341E-2,-2.125588020E0,-1.453941747E0,2.575656406E0
1.601579787E1,-2.893390512E-2,-2.342392836E0,-1.459983090E0,2.760288390E0
1.602585287E1,-9.357701205E-3,-2.188056749E0,-1.557767247E0,2.685948379E0
1.603590787E1,1.293190862E-1,-2.118196555E0,-1.693875225E0,2.715270400E0
1.604596287E1,2.855252962E-1,-2.514151288E0,-1.915116323E0,3.173350268E0
1.605601787E1,1.701547978E-1,-3.005248405E0,-2.147716223E0,3.697723030E0
1.606607287E1,-2.012544750E-1,-3.239220062E0,-2.170997497E0,3.904648525E0
1.607612787E1,-5.682292742E-1,-3.505118101E0,-1.659369636E0,3.919469989E0
1.608618287E1,-5.678011484E-1,-3.726644543E0,-6.852598337E-1,3.831430377E0
1.609623787E1,-1.674704690E-2,-3.376972277E0,2.580960989E-1,3.386862238E0
1.610629287E1,5.624072016E-1,-2.502188469E0,1.036033131E0,2.765974267E0
1.611634887E1,8.004312710E-1,-1.224481217E0,1.729659015E0,2.265339882E0
1.612640387E1,6.183322379E-1,-2.915187836E-1,2.201642754E0,2.305330513E0
1.613645888E1,3.683658518E-1,3.903250337E-2,2.585849261E0,2.612246799E0
1.614651387E1,1.287268820E-1,1.976125002E-1,2.827103040E0,2.836923141E0
1.615656887E1,-3.274678674E-1,1.014386666E-1,2.886597290E0,2.906883025E0
1.616662387E1,-8.590488770E-1,-2.560238457E-1,2.787254266E0,2.927848958E0
1.617667887E1,-1.377296298E0,-8.288159215E-1,2.735963659E0,3.173228335E0
1.618673387E1,-1.698641144E0,-1.344028126E0,2.743565040E0,3.495560394E0
1.619678887E1,-1.793990666E0,-1.578169937E0,2.821642910E0,3.697389832E0
1.620684387E1,-1.693202210E0,-1.622449731E0,2.965839926E0,3.780936831E0
1.621689887E1,-8.991015733E-1,-1.228105906E0,2.950717857E0,3.320145121E0
1.622695387E1,-3.915002144E-1,-9.813189071E-1,2.764920241E0,2.959905936E0
1.623700887E1,-3.861542878E-1,-9.776176196E-1,2.446872786E0,2.663088015E0
1.624706387E1,-7.392208999E-2,-5.689504552E-1,1.922665079E0,2.006442150E0
1.625711887E1,1.021034036E-1,-2.810002273E-1,1.115238418E0,1.154618102E0
1.626717387E1,4.730776070E-1,1.529906434E-1,4.451848534E-1,6.673815348E-1
1.627722887E1,8.964644790E-1,7.605444163E-1,-1.220173573E-1,1.181932573E0
1.628728387E1,1.050747796E0,1.203050587E0,-4.716141951E-1,1.665479389E0
1.629733987E1,1.179050544E0,1.617025269E0,-3.830079011E-1,2.037553916E0
1.630739487E1,1.312937603E0,2.079124875E0,-4.155335498E-1,2.493839114E0
1.631744987E1,1.424460963E0,2.359621657E0,-3.681313419E-1,2.780723662E0
1.632750487E1,1.465776219E0,2.476771792E0,-1.651242737E-1,2.882735586E0
1.633755987E1,1.493127740E0,2.571722388E0,5.523513794E-2,2.974262498E0
1.634761487E1,1.419192914E0,2.623643324E0,1.461195072E-1,2.986463415E0
1.635766987E1,1.380499987E0,2.659016055E0,6.031870723E-2,2.996628930E0
1.636772487E1,1.135353571E0,2.664838128E0,-3.333321496E-1,2.915733236E0
1.637777987E1,7.483671512E-1,2.679086038E0,-7.395628524E-1,2.878282232E0
1.638783488E1,3.858997878E-1,2.821209632E0,-1.155912747E0,3.073154195E0
1.639788987E1,1.768316419E-1,2.951262233E0,-1.178256054E0,3.182688411E0
1.640794487E1,7.579453290E-4,2.839952881E0,-9.648771214E-1,2.999386738E0
1.641799987E1,-2.283513129E-1,2.442187266E0,-7.727130568E-1,2.571674247E0
1.642805487E1,-6.174054542E-1,1.991258765E0,-6.277523947E-1,2.177240004E0
1.643810987E1,-1.155780234E0,1.614560668E0,-7.260581962E-1,2.114188876E0
1.644816487E1,-1.531233752E0,1.377940223E0,-1.013718914E0,2.295870662E0
1.645821987E1,-1.821192937E0,1.191750843E0,-1.347583233E0,2.559881707E0
1.646827487E1,-2.132771909E0,8.905093092E-1,-1.590309341E0,2.805495793E0
1.647833025E1,-2.355308459E0,6.965302688E-1,-1.887709254E0,3.097753796E0
