"Time (s)","Linear Acceleration x (m/s^2)","Linear Acceleration y (m/s^2)","Linear Acceleration z (m/s^2)","Absolute acceleration (m/s^2)"
6.296000007E-3,-2.225801110E-1,3.519737309E-1,-2.245885127E0,2.284168867E0
1.626100001E-2,-4.961458960E-1,8.294450819E-2,-2.469980836E0,2.520683612E0
2.622699999E-2,-3.840848851E-1,-5.017378807E-2,-2.379048446E0,2.410375514E0
3.619200000E-2,-1.627712810E-1,-9.181999683E-2,-1.840930944E0,1.850392429E0
4.615700000E-2,-1.012883931E-2,-1.374329567E-2,-8.071110570E-1,8.072916016E-1
5.612299999E-2,2.586323617E-1,8.143300295E-2,2.791951919E-1,3.891940231E-1
6.608799999E-2,6.809953862E-1,1.735354203E-1,9.454351294E-1,1.178013940E0
7.605400000E-2,9.669990760E-1,3.245923895E-1,1.314292111E0,1.663674002E0
8.601900001E-2,9.491337126E-1,3.613485718E-1,1.423988800E0,1.749048798E0
9.598400001E-2,6.952546987E-1,2.754178905E-1,1.090926719E0,1.322631928E0
1.059500000E-1,2.046957441E-1,5.883760750E-2,4.235418963E-1,4.740779996E-1
1.159150000E-1,-1.512435684E-1,-2.569722641E-1,-2.854008418E-1,4.127505324E-1
1.258810000E-1,-1.006091660E-1,-5.647346127E-1,-1.220329109E0,1.348425201E0
1.358460000E-1,-1.344615113E-1,-8.081635559E-1,-1.837951203E0,2.012280511E0
1.458110000E-1,-3.028765249E-1,-7.499089158E-1,-1.891481878E0,2.057134236E0
1.557770000E-1,-2.327397213E-1,-4.318057662E-1,-1.638945896E0,1.710779836E0
1.657420000E-1,2.293036781E-1,-6.922720340E-1,-1.277029560E0,1.470586700E0
1.757070000E-1,-2.281887786E-2,6.251141310E-2,-8.686565101E-2,1.094258620E-1
1.856730000E-1,2.414595461E-1,8.796296874E-1,7.563741821E-1,1.184969621E0
1.956380000E-1,9.921309936E-1,9.449764153E-1,8.437292451E-1,1.609093960E0
2.056040000E-1,1.264949797E0,4.296607152E-1,6.405963886E-1,1.481576880E0
2.155690000E-1,1.462322269E0,-1.503401005E-1,2.169164979E-1,1.485947957E0
2.255340000E-1,1.359736671E0,-6.911870831E-1,2.608723569E-1,1.547474647E0
2.355000000E-1,1.115351927E0,-1.031385691E0,7.072031915E-2,1.520778659E0
2.454650000E-1,1.220672853E0,-9.312345815E-1,-5.479431635E-1,1.630178447E0
2.554310000E-1,1.415108926E0,-7.177085915E-1,-1.186505306E0,1.981270738E0
2.653960000E-1,1.559167655E0,-4.699676192E-1,-1.623990473E0,2.299830080E0
2.753610000E-1,1.672359225E0,-1.379162291E-1,-1.307214056E0,2.127114208E0
2.853270000E-1,1.772946829E0,3.842760891E-2,4.321285325E-1,1.825254012E0
2.952920000E-1,2.151767028E0,7.625938654E-2,1.143078035E0,2.437733421E0
3.052580000E-1,2.420219715E0,8.166893810E-2,1.264594871E-1,2.424896964E0
3.152230000E-1,2.455276843E0,6.230983034E-1,1.255607700E-1,2.536217928E0
3.251880000E-1,8.059410292E-1,-7.098990503E-1,2.260510182E-1,1.097541191E0
3.351540000E-1,7.114599645E-1,-2.151907215E0,-8.973511362E-1,2.437646202E0
3.451193333E-1,1.763114883E0,-2.462433250E0,-1.758727278E0,3.502181212E0
3.550853333E-1,1.313308609E0,-2.452219334E0,-2.125117319E0,3.500611773E0
3.650503333E-1,1.340716117E0,-2.214877050E0,-2.232488571E0,3.418655477E0
3.750153333E-1,1.979857718E0,-1.660071594E0,-1.400045621E0,2.938673514E0
3.849813333E-1,2.183051970E0,-1.459037888E0,-1.827424461E-1,2.632090854E0
3.949463333E-1,1.742866852E0,-1.713002636E0,-2.524219608E-1,2.456762044E0
4.049123333E-1,-2.307844855E0,-2.166927542E0,-3.017715839E0,4.373594829E0
4.148773333E-1,-5.025174315E0,-2.393636957E0,-5.554898139E0,7.863762974E0
4.248423333E-1,2.717800453E-1,-1.637362470E0,-5.006626362E0,5.274573706E0
4.348083333E-1,2.277762685E0,-3.542301714E-1,-3.283164811E0,4.011589839E0
4.447733333E-1,1.712108305E0,6.873928249E-1,-1.123763512E0,2.160247249E0
4.547393333E-1,1.282605757E0,6.512701884E-1,-4.578650522E-1,1.509592923E0
4.647043333E-1,8.022552368E-1,1.264334670E-1,-9.332834458E-1,1.237181020E0
4.746693333E-1,7.995628864E-1,-5.072865960E-1,-1.261156708E0,1.577072206E0
4.846353333E-1,8.838961083E-1,-9.257534015E-1,-1.238498163E0,1.781058503E0
4.946003333E-1,1.196307578E0,-9.460938182E-1,-9.396241665E-1,1.791406963E0
5.045663333E-1,1.572108128E0,-9.390411991E-1,-1.008259369E0,2.090432801E0
5.145313333E-1,2.115812060E0,-2.757602450E-1,-1.118310399E0,2.409008621E0
5.244963333E-1,1.719748569E0,8.242670801E-1,-2.159431704E0,2.880988831E0
5.344623333E-1,1.483471940E0,2.272575912E0,-2.166446609E0,3.472575583E0
5.444273333E-1,1.633889809E0,2.816321944E0,-1.881726968E0,3.760606544E0
5.543933333E-1,1.750700805E0,1.099648426E0,-1.451661333E0,2.526163216E0
5.643583333E-1,1.249569281E0,-1.027975595E0,-4.353532720E-1,1.675616210E0
5.743233333E-1,7.797121739E-1,-2.027252178E0,1.019616416E0,2.399441623E0
5.842893333E-1,7.779919231E-1,-1.699702267E0,1.938509279E0,2.692968150E0
5.942543333E-1,1.118872316E0,-7.197777750E-1,2.230993438E0,2.597554047E0
6.042203333E-1,1.162206616E0,-1.714622900E-2,1.529573143E0,1.921096617E0
6.141853333E-1,1.398810689E0,8.756765310E-1,-2.457473642E-1,1.668494081E0
6.241503333E-1,2.557851623E0,2.690136691E0,-4.092963248E-1,3.734563405E0
6.341163333E-1,4.437633222E0,4.875813623E0,1.951508809E0,6.875647877E0
6.440813333E-1,4.299844755E0,5.351226754E0,5.028493195E0,8.509408704E0
6.540473333E-1,3.223129109E0,4.029544348E0,6.225088456E0,8.085636350E0
6.640123333E-1,2.010628837E0,2.662464451E0,6.932174703E0,7.693269226E0
6.739773333E-1,1.142606165E0,2.681928078E0,7.929177597E0,8.448085252E0
6.839433333E-1,1.659290113E0,3.623103803E0,8.398932962E0,9.296354110E0
6.939083333E-1,2.167438297E0,4.685396122E0,9.013991051E0,1.038762534E1
7.038743333E-1,1.741725914E0,5.067864836E0,8.266642047E0,9.851610725E0
7.138393333E-1,1.068744721E0,5.142985185E0,6.376651209E0,8.261609561E0
7.238043333E-1,2.672203866E-1,5.206061440E0,4.215382894E0,6.704023821E0
7.337703333E-1,-6.958367890E-1,5.244682884E0,1.747439228E0,5.571752978E0
7.437353333E-1,-1.305016380E0,5.139955158E0,-1.351507884E-1,5.304759421E0
7.537003333E-1,-2.027485190E0,4.249405796E0,-4.821450305E-1,4.732928231E0
7.636663333E-1,-2.511184703E0,2.936243659E0,-1.589945644E-1,3.866892125E0
7.736313333E-1,-2.410608793E0,1.755715962E0,6.442655164E-1,3.051008251E0
7.835973333E-1,-1.826140412E0,6.358121236E-1,1.430737656E0,2.405422230E0
7.935623333E-1,-1.610984218E0,-3.460140295E-1,1.486282697E0,2.219016024E0
8.035273333E-1,-1.592486259E0,-1.278654501E0,1.048188250E0,2.295575838E0
8.134933333E-1,-1.607785791E0,-1.981813319E0,2.854119515E-1,2.567882234E0
8.234583333E-1,-1.657920988E0,-2.252801652E0,-7.829345745E-1,2.904617674E0
8.334243333E-1,-1.919682706E0,-2.198564049E0,-1.896882951E0,3.480952527E0
8.433893333E-1,-2.104929807E0,-2.073364637E0,-3.021658031E0,4.226107863E0
8.533543333E-1,-2.184875278E0,-2.157941249E0,-3.656223602E0,4.774762972E0
8.633203333E-1,-2.144875061E0,-2.855175523E0,-3.474320816E0,4.982310852E0
8.732853333E-1,-2.560348677E0,-3.870934530E0,-2.887327023E0,5.465910429E0
8.832513333E-1,-2.845403071E0,-3.489505742E0,-2.453439063E0,5.127604918E0
8.932163333E-1,-2.740405497E0,-2.797694761E0,-2.781939147E0,4.803759328E0
9.031813333E-1,-2.557574758E0,-2.285574711E0,-3.801526911E0,5.120219454E0
9.131473333E-1,-2.467831399E0,-2.058102673E0,-4.912135357E0,5.869842604E0
9.231123333E-1,-3.120489132E0,-3.135523201E0,-5.325221847E0,6.922928996E0
9.330783333E-1,-5.432309509E0,-4.372592011E0,-4.787945175E0,8.458957766E0
9.430433333E-1,-6.471041642E0,-5.692753850E0,-3.991214095E0,9.497979589E0
9.530083333E-1,-5.954736008E0,-6.781942191E0,-3.557023249E0,9.700826522E0
9.629743333E-1,-6.317566264E0,-6.957245225E0,-3.219144816E0,9.933669914E0
9.729393333E-1,-6.623156372E0,-7.410326670E0,-2.794245781E0,1.032409566E1
9.829053333E-1,-5.677258728E0,-8.204549879E0,-1.877027560E0,1.015229717E1
9.928703333E-1,-3.360769057E0,-7.546426461E0,-7.767260009E-1,8.297386593E0
1.002835333E0,-1.279710508E0,-5.280932112E0,1.278487855E-1,5.435278123E0
1.012801333E0,-8.134242958E-1,-3.931258207E0,-2.567307740E-1,4.022730524E0
1.022766333E0,2.701980811E-1,-3.280295582E0,-1.181335782E0,3.496984464E0
1.032732333E0,6.463167197E-1,-3.227580302E0,-9.509654260E-1,3.426271319E0
1.042697333E0,7.143864959E-1,-3.582699543E0,5.907880515E-1,3.700691098E0
1.052662333E0,1.831717486E0,-3.425232856E0,2.235188230E0,4.481459081E0
1.062628333E0,4.307996358E0,-2.305993480E0,3.189263790E0,5.835052877E0
1.072593333E0,5.187660837E0,-5.058648455E-1,4.551296663E0,6.919683917E0
1.082559333E0,6.635174155E0,5.548528183E-1,4.553747231E0,8.066598512E0
1.092524333E0,7.590417988E0,1.435111666E0,3.337209456E0,8.414924699E0
1.102489333E0,7.558578730E0,2.163441432E0,3.536743936E0,8.620971460E0
1.112455333E0,8.138591532E0,2.595095756E0,3.368578598E0,9.182511415E0
1.122420333E0,7.375127601E0,3.213762747E0,2.277391094E0,8.361057847E0
1.132386333E0,6.512367423E0,3.831167616E0,1.015650249E0,7.623668421E0
1.142351333E0,6.578377810E0,4.254521525E0,4.284488797E-2,7.834401298E0
1.152316333E0,6.897122984E0,5.002649671E0,-3.327410692E-1,8.526870810E0
1.162282333E0,6.889926231E0,5.809289442E0,-5.307938647E-1,9.027772118E0
1.172247333E0,6.804471513E0,5.720623434E0,-9.591363251E-1,8.941269906E0
1.182213333E0,6.124176039E0,5.073247783E0,-1.712821373E0,8.134932838E0
1.192178333E0,4.703734159E0,5.155015247E0,-2.373102413E0,7.370950570E0
1.202143333E0,3.862911565E0,5.411747190E0,-3.034061730E0,7.308530905E0
1.212109333E0,3.791557408E0,4.744915807E0,-2.715346377E0,6.653062418E0
1.222074333E0,4.608539734E0,3.975254704E0,-1.778606057E0,6.340719829E0
1.232040333E0,4.526669360E0,4.112093292E0,-2.715497235E0,6.691335589E0
1.242005333E0,4.184643497E0,4.792517405E0,-4.663118815E0,7.888228024E0
1.251970333E0,3.544911911E0,5.018303837E0,-6.345660966E0,8.832733832E0
1.261936333E0,3.224730662E0,4.470011302E0,-7.378132485E0,9.209599766E0
1.271901333E0,2.422078691E0,3.464656830E0,-7.197162330E0,8.346823213E0
1.281867333E0,1.613759015E0,2.902056744E0,-6.657266105E0,7.439445106E0
1.291832333E0,2.028832389E0,2.549666691E0,-5.569603887E0,6.452708621E0
1.301797333E0,2.224741595E0,1.545350977E0,-3.716629432E0,4.599012844E0
1.311763333E0,1.680166427E0,4.257451272E-1,-1.709054596E0,2.434149903E0
1.321728333E0,6.393310511E-1,-4.364645353E-1,1.248000473E-1,7.841049262E-1
1.331693333E0,-1.811479104E-1,-9.750705725E-1,4.967601460E-1,1.109210453E0
1.341659208E0,-1.057340312E-1,-1.206132070E0,-1.769455165E-2,1.210887011E0
1.351624208E0,8.835318267E-2,-1.226121069E0,-3.465884453E-1,1.277224613E0
1.361590208E0,1.013808376E0,-9.210481471E-1,4.123216742E-1,1.430435694E0
1.371555208E0,6.651880234E-1,-6.174244577E-1,-2.589272806E-1,9.437856770E-1
1.381520208E0,7.689147055E-1,-4.971913782E-1,-7.122426143E-1,1.160051134E0
1.391486208E0,6.670603019E-1,-3.921458566E-1,5.603927627E-1,9.553993237E-1
1.401451208E0,8.142464143E-1,-1.650163195E-1,1.431694553E0,1.655287559E0
1.411417208E0,1.092971490E0,-2.427652842E-1,2.388514504E0,2.637901286E0
1.421382208E0,2.014313752E0,1.145840845E-1,3.230883687E0,3.809094223E0
1.431347208E0,4.977982022E0,2.169283970E0,1.628342555E0,5.669003213E0
1.441313208E0,1.615371092E0,2.298176776E0,1.714330831E0,3.290892046E0
1.451278208E0,6.021486068E-1,1.102851238E0,9.093136624E-1,1.551036793E0
1.461244208E0,1.419013989E0,1.038043623E0,3.083894625E-1,1.785004013E0
1.471209208E0,4.837313801E-1,7.656502050E-1,1.155139672E0,1.467843297E0
1.481174208E0,-3.742644864E-1,2.272909203E-1,1.241397797E0,1.316359965E0
1.491140208E0,-7.208751512E-1,3.047489861E-1,7.782784367E-1,1.103743744E0
1.501105208E0,-1.019666117E0,4.912210786E-1,-1.003674567E-2,1.131864777E0
1.511071208E0,-1.573191032E0,7.169741812E-1,-1.486831458E0,2.280274059E0
1.521036208E0,4.833612514E-1,5.030646139E-1,-6.735936298E0,6.771967950E0
1.531001208E0,-1.707434918E0,-1.718703964E0,-8.404669665E0,8.746870840E0
1.540967208E0,-3.099930030E0,-2.831243161E0,-3.673306535E0,5.578412402E0
1.550932208E0,-1.754402677E0,-4.176849158E0,-2.089685239E0,4.989066250E0
1.560898208E0,-1.006468366E0,-4.507678773E0,-7.703080970E-1,4.682469547E0
1.570863208E0,-9.882940507E-1,-4.102945323E0,5.809255528E-1,4.260089195E0
1.580828208E0,-1.137169424E0,-3.566198408E0,1.308920859E0,3.965375038E0
1.590794208E0,-9.640175807E-1,-1.785229783E0,1.434728381E0,2.484918671E0
1.600759208E0,-9.513916880E-1,-1.013270725E0,2.063638524E0,2.488065044E0
1.610725208E0,-9.176783967E-1,-2.240524399E-1,2.316102585E0,2.501332509E0
1.620690208E0,-5.773809707E-1,1.802354524E-1,1.761559085E0,1.862510138E0
1.630655208E0,-3.565415758E-1,1.137947103E-1,3.230808842E-1,4.944212669E-1
1.640621208E0,-2.568863100E-1,2.946406120E-1,-1.655736468E0,1.701254513E0
1.650586208E0,-3.113928849E-1,2.705091530E-1,-3.278076272E0,3.303925661E0
1.660551208E0,-3.887299132E-1,5.205688387E-2,-3.635028907E0,3.656125821E0
1.670517208E0,2.833566552E-1,-1.664509338E-1,-3.328722222E0,3.344904863E0
1.680482208E0,1.445724655E0,-5.692808229E-1,-2.853283656E0,3.248911826E0
1.690448208E0,2.033834097E0,-1.317026854E0,-2.079122829E0,3.192771931E0
1.700413208E0,1.560561631E0,-1.579948660E0,-1.823303489E0,2.873330121E0
1.710378208E0,7.683200437E-1,-8.384731829E-2,-3.323403595E0,3.412089905E0
1.720344208E0,-8.133652389E-2,1.461531433E0,-4.091215808E0,4.345196952E0
1.730309208E0,-1.449541717E0,7.463082004E-1,-1.677548044E0,2.339297878E0
1.740275208E0,-2.032041340E0,4.002489281E-1,3.153473568E-1,2.094954694E0
1.750240208E0,-2.599860944E0,-1.155994534E-1,-6.205285983E-1,2.675387057E0
1.760205208E0,-2.189637251E0,-6.293475151E-2,7.176107968E-1,2.305089441E0
1.770171208E0,-2.282724339E0,2.836092550E-1,1.463736564E0,2.726497634E0
1.780136208E0,-1.672879043E0,-7.415894973E-1,7.251465422E-1,1.968328423E0
1.790102208E0,-4.107704079E-1,-5.788819510E-1,-8.318180282E-1,1.093507144E0
1.800067208E0,1.410848352E0,1.781723793E0,-1.909314716E0,2.968251241E0
1.810032208E0,1.117034537E0,3.139004633E0,-2.017588193E0,3.895096707E0
1.819998208E0,-4.951118159E-1,4.009350988E0,-1.432146835E0,4.286149276E0
1.829963208E0,-7.380957860E-1,2.670394152E0,-1.504135416E0,3.152493246E0
1.839929208E0,-2.289862036E0,3.589699244E0,-1.602849280E0,4.549564223E0
1.849894208E0,-3.415915902E0,5.217382234E0,-1.373473535E0,6.385607910E0
1.859859208E0,-2.904823646E0,5.493769008E0,-1.544563065E0,6.403528198E0
1.869825208E0,-2.376869774E0,4.936043453E0,-9.179297539E-1,5.554874429E0
1.879790208E0,-1.921114982E0,3.823365676E0,-8.557341635E-1,4.363609610E0
1.889756208E0,-1.732713600E0,2.060053596E0,-8.691852446E-1,2.828709994E0
1.899721208E0,-2.367959787E0,-1.221289222E0,-1.050929425E0,2.864128763E0
1.909686208E0,-4.187011034E0,-5.587827904E0,-1.227892921E0,7.089612338E0
1.919652208E0,-5.848969817E0,-8.022889752E0,1.901602238E-2,9.928623747E0
1.929617208E0,-7.434421291E0,-7.871035808E0,1.625122494E0,1.094828058E1
1.939583208E0,-7.284292860E0,-6.199562436E0,2.759916193E0,9.955532847E0
1.949548208E0,-6.020235348E0,-4.675833585E0,3.270879811E0,8.294896510E0
1.959513208E0,-1.834435565E0,-4.911509120E-1,1.212024894E0,2.252862047E0
1.969479208E0,2.199592136E0,3.895470031E0,-3.730546244E-1,4.489104820E0
1.979444208E0,2.196451742E0,2.750031475E0,5.963657105E-1,3.569695426E0
1.989410208E0,2.805784384E0,1.616791381E0,1.713358732E0,3.663610040E0
1.999375208E0,5.335759115E0,9.223818970E-1,7.017513207E-1,5.460180273E0
2.009340208E0,6.942212618E0,-1.422377307E0,-4.770819996E-1,7.102470026E0
2.019306208E0,4.915134979E0,-6.404451211E0,3.245023423E-1,8.079656487E0
2.029271208E0,2.107009077E0,-1.116716916E1,1.367765483E0,1.144621932E1
2.039236208E0,8.538601309E-1,-1.321272634E1,4.950164332E-1,1.324953794E1
2.049202208E0,3.177324361E-1,-1.463917097E1,-9.470602168E-1,1.467321381E1
2.059167208E0,3.387514222E-1,-1.308526055E1,-3.706504394E0,1.360429972E1
2.069133208E0,2.369232141E0,-7.195923890E0,-3.312012634E0,8.268253096E0
2.079098208E0,4.554637177E0,-1.059237733E0,-7.855517151E-1,4.741708119E0
2.089063208E0,4.694005562E0,9.107897919E-1,-5.376654395E-1,4.811684776E0
2.099029208E0,3.597850263E-1,-4.405771744E-1,5.707356101E-1,8.057869746E-1
2.108994208E0,-3.581957531E0,-3.911812999E0,1.259251685E0,5.451459942E0
2.118960208E0,-3.840445393E0,-5.044168410E0,1.883173569E0,6.613546587E0
2.128925208E0,-2.783003924E0,-4.543868360E0,2.172820074E0,5.754389419E0
2.138890208E0,-3.401613613E0,-3.643709391E0,2.495134973E0,5.574342278E0
2.148856208E0,-2.492206687E0,-2.182986628E0,2.593033735E0,4.207178240E0
2.158821208E0,-1.034285325E0,-1.600043786E-1,2.238177327E0,2.470786369E0
2.168787208E0,4.395474797E-1,1.356810139E0,1.692581236E0,2.213361015E0
2.178752208E0,1.761804668E0,2.150327005E0,1.071359596E0,2.979206824E0
2.188717208E0,1.939084645E0,2.378219311E0,3.287659858E-1,3.086108136E0
2.198683208E0,1.775134565E0,2.408688567E0,-1.613733579E-1,2.996485391E0
2.208648208E0,1.125480840E0,2.216834990E0,-3.233672516E-1,2.507116047E0
2.218614208E0,1.431415933E-1,1.910422179E0,-4.681082046E-1,1.972137852E0
2.228579208E0,-1.234450720E0,1.500130073E0,-7.890286888E-1,2.096860770E0
2.238544208E0,-1.941248699E0,9.482768762E-1,-1.145334914E0,2.445294995E0
2.248510208E0,-2.150945055E0,3.851812381E-1,-9.795105095E-1,2.394654475E0
2.258475208E0,-2.290571303E0,-1.655282432E-1,-4.624961932E-1,2.342652177E0
2.268440208E0,-2.161977582E0,-5.772546709E-1,5.419586845E-2,2.238371554E0
2.278406208E0,-1.954228933E0,-7.411579728E-1,4.123199201E-1,2.130336495E0
2.288371208E0,-1.374391547E0,-5.796379960E-1,5.902401674E-1,1.604155786E0
2.298337208E0,-8.072315097E-1,-1.970324564E-1,5.903881019E-1,1.019314775E0
2.308302208E0,-4.377588165E-1,3.243450522E-2,3.757384233E-1,5.778097795E-1
2.318267208E0,-3.631237864E-2,1.585729802E-1,1.370942567E-1,2.127411904E-1
2.328233208E0,6.928161174E-1,3.079722637E-1,1.514398156E-1,7.731591722E-1
2.338198208E0,1.234232619E0,3.926077867E-1,3.001253003E-1,1.329490966E0
2.348163958E0,1.684387532E0,5.302605987E-1,3.519326542E-1,1.800609412E0
2.358128958E0,1.831555519E0,6.618995494E-1,2.797031687E-1,1.967470583E0
2.368093958E0,1.678100021E0,6.157808053E-1,9.754719839E-2,1.790173494E0
2.378059958E0,1.420786865E0,4.821725124E-1,-1.587894733E-1,1.508754368E0
2.388024958E0,1.169654215E0,2.776293075E-1,-3.995362987E-1,1.266806327E0
2.397990958E0,1.106648127E0,5.371310771E-2,-6.110860759E-1,1.265298924E0
2.407955958E0,1.216499183E0,-1.084775448E-1,-7.332566303E-1,1.424536039E0
2.417920958E0,1.313882806E0,-1.640851504E-1,-7.032270849E-1,1.499246576E0
2.427886958E0,1.303379452E0,-1.955876094E-1,-6.133676594E-1,1.453709873E0
2.437851958E0,1.372030442E0,-1.589957339E-1,-5.170347816E-1,1.474812579E0
2.447817958E0,1.486076875E0,-8.367774904E-2,-4.525155808E-1,1.555698169E0
2.457782958E0,1.604736761E0,7.976830065E-2,-4.748133530E-1,1.675407644E0
2.467747958E0,1.793733389E0,2.957053900E-1,-5.247449201E-1,1.892162355E0
2.477713958E0,1.988335158E0,4.848803580E-1,-5.766531385E-1,2.126291255E0
2.487678958E0,2.079062310E0,5.073336661E-1,-6.115007897E-1,2.225718031E0
2.497643958E0,2.102003276E0,3.592301255E-1,-6.055639654E-1,2.216793128E0
2.507609958E0,1.941394880E0,5.889724910E-2,-6.561776103E-1,2.050134635E0
2.517574958E0,1.724200054E0,-4.020042622E-1,-6.404274040E-1,1.882716260E0
2.527540958E0,1.511917475E0,-8.939457178E-1,-5.065181257E-1,1.828002738E0
2.537505958E0,1.306274993E0,-1.433468306E0,-2.726135659E-1,1.958444255E0
2.547470958E0,1.128600914E0,-1.950820591E0,6.907754391E-3,2.253772109E0
2.557436958E0,1.075228699E0,-2.396949697E0,1.380239640E-1,2.630691016E0
2.567401958E0,1.076242021E0,-2.740711598E0,2.733858369E-1,2.957116293E0
2.577367958E0,1.037202501E0,-3.080355306E0,4.213684863E-1,3.277488252E0
2.587332958E0,1.046227094E0,-3.373180357E0,5.647445530E-1,3.576572838E0
2.597297958E0,1.104358943E0,-3.555203011E0,6.695383519E-1,3.782506937E0
2.607263958E0,1.076399896E0,-3.813095042E0,7.482149774E-1,4.032140398E0
2.617228958E0,1.048522126E0,-3.995363279E0,7.809957840E-1,4.203841195E0
2.627194958E0,1.004106676E0,-4.179203832E0,7.437254121E-1,4.362006691E0
2.637159958E0,8.916886926E-1,-4.358692303E0,7.053009461E-1,4.504526250E0
2.647124958E0,8.841399372E-1,-4.406272851E0,6.998461517E-1,4.548266538E0
2.657090958E0,1.031517838E0,-4.367628602E0,7.054045149E-1,4.542885007E0
2.667055958E0,1.175901965E0,-4.393461601E0,7.204499855E-1,4.604812532E0
2.677020958E0,1.351023150E0,-4.484162441E0,6.659990323E-1,4.730383817E0
2.686986958E0,1.507449033E0,-4.591583394E0,6.421934094E-1,4.875187486E0
2.696951958E0,1.660670641E0,-4.565971420E0,6.418149483E-1,4.900800793E0
2.706917958E0,1.821343941E0,-4.365832922E0,5.945307080E-1,4.767730867E0
2.716882958E0,1.957188209E0,-3.877428448E0,5.095004980E-1,4.373171368E0
2.726847958E0,2.148271708E0,-3.168427237E0,4.253258818E-1,3.851610650E0
2.736813958E0,2.387455573E0,-2.412728993E0,2.411898981E-1,3.402848494E0
2.746778958E0,2.581091967E0,-1.651061912E0,2.099735141E-3,3.063991773E0
2.756744958E0,2.693506442E0,-9.057629406E-1,-1.690932906E-1,2.846748320E0
2.766709958E0,2.746303291E0,-1.685986161E-1,-3.465925384E-1,2.773217201E0
2.776674958E0,2.689587638E0,5.324223143E-1,-5.253249639E-1,2.791652109E0
2.786640958E0,2.285542697E0,1.197365339E0,-1.036216661E0,2.780491709E0
2.796605958E0,7.127106839E-1,1.582822566E0,-2.606977006E0,3.132030157E0
2.806571958E0,-1.341743619E0,1.552588368E0,-4.537496064E0,4.979927420E0
2.816536958E0,-1.430326012E0,1.407586191E0,-4.397208497E0,4.833484659E0
2.826501958E0,-1.617293072E-1,1.736870386E0,-2.638250254E0,3.162789830E0
2.836467958E0,6.259608078E-1,2.094502468E0,-1.313366497E0,2.550235102E0
2.846432958E0,8.891913468E-1,2.285471361E0,-7.348698771E-1,2.560092641E0
2.856398958E0,1.045081040E0,2.290479501E0,-3.204345075E-1,2.537945823E0
2.866363958E0,4.819976807E-1,1.928835645E0,1.621269178E-1,1.994746562E0
2.876328958E0,-6.182687956E-1,1.227048730E0,4.149254394E-1,1.435293701E0
2.886294958E0,-2.000011463E0,6.444608134E-1,1.610358274E-1,2.107441133E0
2.896259958E0,-4.225523136E0,7.056127489E-2,-9.547533984E-1,4.332617998E0
2.906224958E0,-5.015972552E0,7.530687511E-2,-1.523383426E0,5.242742491E0
2.916190958E0,-8.198584549E0,-7.259411788E-1,-1.255725814E0,8.325900944E0
2.926155958E0,-1.159264297E1,-1.917349375E0,-1.078156107E0,1.179949238E1
2.936121958E0,-7.007772769E0,-7.599713892E-1,5.304851317E-1,7.068794110E0
2.946086958E0,-2.930557827E0,6.128630447E-1,2.209047522E0,3.720707089E0
2.956051958E0,-5.747011918E-1,1.459703593E0,3.232504535E0,3.593062984E0
2.966017958E0,9.499778312E-1,1.679154859E0,3.314884787E0,3.835424366E0
2.975982958E0,1.434682188E0,1.489806229E0,2.838664155E0,3.512242840E0
2.985948958E0,1.096241253E0,1.467573361E0,2.283987046E0,2.927817153E0
2.995913958E0,8.141283005E-1,1.522042513E0,1.788487852E0,2.485579831E0
3.005878958E0,4.581123894E-1,1.517733700E0,1.461045091E0,2.155930264E0
3.015844958E0,-5.153911293E-2,1.540364179E0,1.224932330E0,1.968714631E0
3.025809958E0,-3.961260563E-1,1.570589606E0,1.128934059E0,1.974375768E0
3.035775958E0,-5.122277856E-1,1.828568761E0,1.009418871E0,2.150573755E0
3.045740958E0,-2.799085522E-1,2.578337343E0,8.553488320E-1,2.730896168E0
3.055705958E0,3.718659586E-1,3.666286660E0,7.746376678E-1,3.765634831E0
3.065671958E0,7.655776995E-1,4.778790774E0,5.080204216E-1,4.866316391E0
3.075636958E0,1.137481080E0,5.674040421E0,3.742355427E-1,5.799021482E0
3.085601958E0,1.704682049E0,6.292950071E0,4.221932361E-1,6.533407121E0
3.095567958E0,2.163931137E0,6.559457974E0,6.441842401E-1,6.937150728E0
3.105532958E0,2.218912506E0,6.274485734E0,1.038248276E0,6.735777862E0
3.115498958E0,1.955662086E0,5.581615237E0,1.280144371E0,6.051265360E0
3.125463958E0,1.784300076E0,4.730279934E0,1.278633743E0,5.214803857E0
3.135428958E0,1.607658030E0,3.867636700E0,9.447396031E-1,4.293682674E0
3.145394958E0,1.391603411E0,2.938355089E0,2.075387335E-1,3.257846376E0
3.155359958E0,1.082392707E0,1.978569138E0,-7.014039230E-1,2.361837689E0
3.165325958E0,6.588461334E-1,9.141010702E-1,-2.054765082E0,2.343441601E0
3.175290958E0,3.891181684E-1,-2.843658847E-1,-4.033772469E0,4.062461968E0
3.185255958E0,3.090937597E-1,-1.715175462E0,-6.294781419E0,6.531587780E0
3.195221958E0,5.031318569E-1,-3.469372317E0,-8.141458422E0,8.864143003E0
3.205186958E0,8.936369848E-1,-5.410713403E0,-9.420698229E0,1.090064043E1
3.215152958E0,6.716819412E-1,-7.288198215E0,-9.676244942E0,1.213254738E1
3.225117958E0,1.405477685E-1,-7.975544847E0,-8.610939553E0,1.173785965E1
3.235082958E0,-4.288979459E-1,-6.597498790E0,-7.500962605E0,9.998769111E0
3.245048958E0,5.903126729E-1,-4.074712919E0,-5.657222074E0,6.996850436E0
3.255013958E0,5.200110143E-1,-2.487082188E0,-1.996664809E0,3.231510424E0
3.264978958E0,-1.577906227E-1,-1.251293625E0,-1.173518640E-1,1.266651126E0
3.274944958E0,-3.693937558E-1,1.502184784E-1,1.332084896E0,1.390491822E0
3.284909958E0,-8.716643178E-1,1.504110273E0,2.457989658E0,3.010624446E0
3.294875958E0,-1.409822751E0,2.075289102E0,3.474443023E0,4.285578066E0
3.304840958E0,-2.077071333E0,1.977242990E0,4.102845043E0,5.005702010E0
3.314805958E0,-2.927261751E0,1.260256237E0,4.296303389E0,5.349329860E0
3.324771958E0,-3.809145833E0,-2.828479475E-1,4.116456776E0,5.615586463E0
3.334736958E0,-4.814435400E0,-2.142189435E0,3.667499080E0,6.420149009E0
3.344702875E0,-5.743771391E0,-3.835488124E0,2.879166648E0,7.482745454E0
3.354667875E0,-5.936497373E0,-4.591940074E0,1.967506060E0,7.758801119E0
3.364632875E0,-5.120484515E0,-4.002163006E0,7.129476424E-1,6.537963348E0
3.374598875E0,-4.180471509E0,-2.459229560E0,-7.740859830E-1,4.911553845E0
3.384563875E0,-3.006000357E0,-6.302409697E-1,-1.991098552E0,3.660288960E0
3.394529875E0,-8.611001533E-1,8.323260051E-1,-2.388136189E0,2.671601488E0
3.404494875E0,1.180920045E0,1.338634654E0,-1.090378104E0,2.091755077E0
3.414459875E0,1.924705757E0,1.701784168E0,-3.771687984E-1,2.596693649E0
3.424425875E0,1.901512191E0,1.900653235E0,-4.645074892E-1,2.728369209E0
3.434390875E0,1.539575974E0,1.715301762E0,-6.229190862E-1,2.387589266E0
3.444355875E0,9.446024859E-1,1.323626606E0,-6.540941012E-1,1.752740808E0
3.454321875E0,4.341540080E-1,8.872997725E-1,-5.225621545E-1,1.117524852E0
3.464286875E0,7.370415330E-2,5.939712757E-1,-3.108625424E-1,6.744402856E-1
3.474252875E0,-2.198933154E-1,3.739896673E-1,-6.342123985E-2,4.384559215E-1
3.484217875E0,-4.968139404E-1,2.199593890E-1,9.980374854E-2,5.524192361E-1
3.494182875E0,-6.184635079E-1,1.741131252E-1,2.577300632E-1,6.922696559E-1
3.504148875E0,-6.008014083E-1,2.594807196E-1,4.246996450E-1,7.801681643E-1
3.514113875E0,-4.525411624E-1,5.347109145E-1,5.433876709E-1,8.865548074E-1
3.524079875E0,-2.228256941E-1,8.652931917E-1,6.023521630E-1,1.077595344E0
3.534044875E0,1.290316772E-1,1.141784631E0,6.799738777E-1,1.335172570E0
3.544009875E0,4.845149070E-1,1.364551268E0,7.484177296E-1,1.629995079E0
3.553975875E0,7.338182554E-1,1.521731442E0,8.461703114E-1,1.889486705E0
3.563940875E0,9.893006489E-1,1.670220898E0,1.008531410E0,2.187576108E0
3.573906875E0,1.209117073E0,1.796279851E0,1.153712074E0,2.453494844E0
3.583871875E0,1.311145724E0,1.819988557E0,1.263184669E0,2.574314853E0
3.593836875E0,1.409875960E0,1.848120680E0,1.429208025E0,2.728724217E0
3.603802875E0,1.529779549E0,1.818447230E0,1.526981657E0,2.824650205E0
3.613767875E0,1.566114732E0,1.688527946E0,1.569512841E0,2.786971930E0
3.623732875E0,1.490919539E0,1.455419338E0,1.561361238E0,2.603638884E0
3.633698875E0,1.388658169E0,1.140114082E0,1.566751201E0,2.383891977E0
3.643663875E0,1.257088215E0,7.248723078E-1,1.518129849E0,2.100102112E0
3.653629875E0,1.135965482E0,2.752214241E-1,1.491646055E0,1.895038882E0
3.663594875E0,1.010883599E0,-1.799018687E-1,1.506970438E0,1.823515899E0
3.673559875E0,9.018377048E-1,-6.140243018E-1,1.513799401E0,1.865991885E0
3.683525875E0,8.839832318E-1,-9.891763955E-1,1.528865922E0,2.024185590E0
3.693490875E0,9.086099499E-1,-1.259635847E0,1.533048435E0,2.182313454E0
3.703456875E0,9.891875052E-1,-1.485251248E0,1.582067690E0,2.384827324E0
3.713421875E0,1.137496868E0,-1.603245721E0,1.651083254E0,2.567171961E0
3.723386875E0,1.230080511E0,-1.666904358E0,1.729333033E0,2.698566460E0
3.733352875E0,1.390138684E0,-1.629322549E0,1.789923635E0,2.791237028E0
3.743317875E0,1.620293863E0,-1.585960767E0,1.840528071E0,2.920302610E0
3.753283875E0,1.790192315E0,-1.638635994E0,1.871250219E0,3.064554425E0
3.763248875E0,1.874575238E0,-1.838375711E0,1.886420528E0,3.232992420E0
3.773213875E0,1.802928135E0,-2.133684075E0,1.823946537E0,3.336156256E0
3.783179875E0,1.741786725E0,-2.434210494E0,1.758941579E0,3.471754197E0
3.793144875E0,1.672674390E0,-2.729087918E0,1.663232014E0,3.607229022E0
3.803109875E0,1.606741771E0,-3.049028263E0,1.487849751E0,3.753916535E0
3.813075875E0,1.460046240E0,-3.419968607E0,1.312582677E0,3.943449452E0
3.823040875E0,1.269884262E0,-3.861121733E0,1.157750746E0,4.226257666E0
3.833006875E0,1.037234661E0,-4.433429659E0,1.090903037E0,4.682010649E0
3.842971875E0,8.507880038E-1,-5.003741346E0,1.060073447E0,5.185076991E0
3.852936875E0,6.351298267E-1,-5.491288619E0,1.018902178E0,5.621014343E0
3.862902875E0,3.612222719E-1,-5.842779955E0,8.951584303E-1,5.921981741E0
3.872867875E0,1.005826342E-1,-5.715479638E0,6.075001247E-1,5.748554667E0
3.882833875E0,-5.007789373E-2,-4.889132996E0,3.319676287E-1,4.900646054E0
3.892798875E0,-1.548251488E0,-3.155047638E0,2.197256465E-1,3.521319019E0
3.902763875E0,1.896281272E-1,-1.556945128E0,6.367829076E-1,1.692787474E0
3.912729875E0,2.811668145E0,-2.297698474E-1,1.288684522E0,3.101448007E0
3.922694875E0,2.060915476E0,1.060297249E0,1.083744072E0,2.558535532E0
3.932660875E0,1.532186263E0,2.236540107E0,9.889197028E-1,2.885770014E0
3.942625875E0,-4.801429439E-1,3.553102106E0,1.721374680E0,3.977210406E0
3.952590875E0,-2.721270191E0,3.310019318E0,2.111265850E-1,4.290234699E0
3.962556875E0,-2.799274387E0,1.670462388E0,-2.141210465E0,3.900149220E0
3.972521875E0,-2.423029448E0,7.093309933E-1,-3.947693853E0,4.685990709E0
3.982486875E0,-2.247686654E0,3.077354515E-1,-6.443666732E0,6.831371558E0
3.992452875E0,-1.893940339E0,-4.872835636E-2,-8.653958688E0,8.858915590E0
4.002417875E0,-1.135462914E0,-4.377295804E-1,-1.012962167E1,1.020245649E1
4.012383875E0,-8.210484803E-2,-2.704489267E-1,-1.054919565E1,1.055298122E1
4.022348875E0,5.291025576E-1,7.637241322E-1,-8.791134367E0,8.840094317E0
4.032313875E0,1.141267152E0,2.207280055E0,-5.734431049E0,6.249662023E0
4.042279875E0,1.395526893E0,3.497430766E0,-2.972439386E0,4.797386078E0
4.052244875E0,6.375765941E-1,4.866492577E0,-3.802654839E-1,4.922789428E0
4.062210875E0,1.846148707E0,5.137621534E0,1.140711667E0,5.577153681E0
4.072175875E0,9.334044832E-1,5.035458983E0,1.780598204E0,5.421957309E0
4.082140875E0,9.840162277E-1,4.916134853E0,2.391882208E0,5.554977077E0
4.092106875E0,1.453091269E0,3.877185788E0,2.231530505E0,4.703591422E0
4.102071875E0,7.028689429E-1,2.924976075E0,2.161761235E0,3.704419175E0
4.112037875E0,5.979321796E-1,2.025642148E0,2.130422498E0,2.999908169E0
4.122002875E0,2.219603062E-1,1.166409595E0,2.021647915E0,2.344533645E0
4.131967875E0,-2.009091604E-1,5.272884589E-1,1.876953886E0,1.959937116E0
4.141933875E0,-6.922907451E-1,2.315392148E-1,1.556436421E0,1.719119314E0
4.151898875E0,-1.232088445E0,1.793118846E-1,1.094166076E0,1.657526498E0
4.161864875E0,-1.673008558E0,2.552309632E-1,6.744492821E-1,1.821807431E0
4.171829875E0,-2.055886871E0,4.644355685E-1,2.279209578E-1,2.119980940E0
4.181794875E0,-2.307269781E0,7.978426355E-1,-3.994769494E-1,2.473788299E0
4.191760875E0,-2.054194686E0,1.425137193E0,-8.984036350E-1,2.656663494E0
4.201725875E0,-1.642055445E0,1.952184747E0,-1.087129391E0,2.772944587E0
4.211690875E0,-1.237321703E0,2.175777011E0,-9.650279796E-1,2.682582636E0
4.221656875E0,-1.180022498E0,2.149413085E0,-7.043298697E-1,2.551178212E0
4.231621875E0,-1.262350709E0,1.945764504E0,-4.975395799E-1,2.372145538E0
4.241587875E0,-1.332184591E0,1.664886484E0,-2.372822039E-1,2.145429009E0
4.251552875E0,-1.348373777E0,1.413672557E0,3.537667796E-2,1.953927698E0
4.261517875E0,-1.274908774E0,1.210126303E0,2.166041104E-1,1.771077467E0
4.271483875E0,-1.187086519E0,1.033311179E0,2.634487863E-1,1.595716660E0
4.281448875E0,-7.951698732E-1,9.048221236E-1,4.223151505E-4,1.204573942E0
4.291413875E0,1.361641109E-2,6.903626257E-1,-6.840249749E-1,9.719445086E-1
4.301379875E0,1.181588382E0,1.524205399E-1,-1.899199179E0,2.241950188E0
4.311344875E0,2.095707579E0,-1.032044088E0,-3.938181603E0,4.578905938E0
4.321310875E0,2.095781546E0,-2.392022833E0,-5.769768112E0,6.588193803E0
4.331275875E0,1.156660532E0,-3.421329839E0,-5.720332242E0,6.765024938E0
4.341240875E0,1.433310431E0,-4.269234581E0,-5.892263771E0,7.416165792E0
4.351207250E0,3.443322094E0,-5.972475876E0,-8.696924028E0,1.109790172E1
4.361172250E0,4.370585539E0,-7.593620508E0,-1.152418377E1,1.447659843E1
4.371138250E0,4.205548755E0,-7.171751500E0,-9.256005553E0,1.244163569E1
4.381103250E0,4.498417076E0,-2.834527835E0,-2.693885341E-1,5.323802627E0
4.391068250E0,2.716248018E0,4.195944411E-1,2.771431700E0,3.903190548E0
4.401034250E0,3.282153243E-1,1.657664587E0,3.090321885E0,3.522167874E0
4.410999250E0,-1.080990838E0,1.217230670E0,3.025349379E0,3.435539340E0
4.420965250E0,-2.200461617E0,-2.289915830E-1,2.248355575E0,3.154294099E0
4.430930250E0,-3.014901866E0,-2.081766647E0,1.683231830E0,4.031954244E0
4.440895250E0,-3.534151865E0,-3.764088358E0,1.441368333E0,5.360609410E0
4.450861250E0,-3.845205904E0,-4.758474623E0,1.323718407E0,6.259466399E0
4.460826250E0,-3.444788284E0,-4.621151594E0,1.196836166E0,5.886766955E0
4.470792250E0,-2.561916315E0,-3.246793960E0,1.014500248E0,4.258438326E0
4.480757250E0,-1.450657366E0,-1.194829987E0,8.875047174E-1,2.078386421E0
4.490722250E0,-3.179286101E-1,6.671392393E-1,9.626459701E-1,1.213606456E0
4.500688250E0,5.981923807E-1,2.013698625E0,1.096830360E0,2.369779128E0
4.510653250E0,1.189782670E0,2.824241413E0,1.097660372E0,3.255269674E0
4.520618250E0,1.423567801E0,3.021004897E0,1.028223809E0,3.494318256E0
4.530584250E0,1.275255514E0,2.615548439E0,9.569038582E-1,3.063174050E0
4.540549250E0,7.304259932E-1,1.775604097E0,8.026120631E-1,2.080980097E0
4.550515250E0,-2.263574123E-2,8.069432420E-1,6.638205059E-1,1.045144696E0
4.560480250E0,-6.908976460E-1,2.295090616E-2,6.027744050E-1,9.171713497E-1
4.570445250E0,-1.171227993E0,-4.646104002E-1,5.090631263E-1,1.358963981E0
4.580411250E0,-1.264114814E0,-5.768477046E-1,4.842419882E-1,1.471471998E0
4.590376250E0,-1.014631664E0,-2.989067405E-1,5.539264731E-1,1.194008874E0
4.600342250E0,-6.477922645E-1,1.660322732E-1,6.983013904E-1,9.668641919E-1
4.610307250E0,-2.385278070E-1,6.292545444E-1,9.257443383E-1,1.144490881E0
4.620272250E0,4.044986844E-2,9.341716379E-1,1.148055331E0,1.480656572E0
4.630238250E0,2.881469867E-1,1.150949557E0,1.376072330E0,1.816944860E0
4.640203250E0,5.254919019E-1,1.349394116E0,1.571496655E0,2.136962320E0
4.650169250E0,7.342220056E-1,1.536611436E0,1.702129154E0,2.407799891E0
4.660134250E0,8.712415642E-1,1.657708442E0,1.807559130E0,2.602754147E0
4.670099250E0,9.562893158E-1,1.759040104E0,1.883881959E0,2.749131241E0
4.680065250E0,1.054217899E0,1.821442174E0,1.961335347E0,2.876780026E0
4.690030250E0,1.186374328E0,1.882163170E0,1.971219188E0,2.972495136E0
4.699995250E0,1.257385839E0,1.911044322E0,1.981524321E0,3.026474547E0
4.709961250E0,1.307172541E0,1.899682598E0,1.964679662E0,3.029432323E0
4.719926250E0,1.288702356E0,1.784781302E0,1.991231868E0,2.968366960E0
4.729892250E0,1.216115021E0,1.579042926E0,2.025294823E0,2.841501615E0
4.739857250E0,1.228434520E0,1.311945038E0,2.028201182E0,2.709954093E0
4.749822250E0,1.170441835E0,9.856177801E-1,1.972418160E0,2.496359328E0
4.759788250E0,1.034106985E0,6.000991577E-1,1.832027681E0,2.187652093E0
4.769753250E0,8.691248721E-1,1.508412069E-1,1.664580089E0,1.883867826E0
4.779719250E0,6.808831197E-1,-2.856230360E-1,1.510827846E0,1.681601357E0
4.789684250E0,5.267931998E-1,-7.109144193E-1,1.347906584E0,1.612377917E0
4.799649250E0,4.225940627E-1,-1.056639816E0,1.244636277E0,1.686473511E0
4.809615250E0,3.626811522E-1,-1.324634666E0,1.207392145E0,1.828658089E0
4.819580250E0,3.904565960E-1,-1.516133317E0,1.190534037E0,1.966847194E0
4.829546250E0,4.521985155E-1,-1.608566102E0,1.210939358E0,2.063575182E0
4.839511250E0,5.588692707E-1,-1.640742161E0,1.263834733E0,2.145145201E0
4.849476250E0,6.557266438E-1,-1.664305855E0,1.284577146E0,2.202278332E0
4.859442250E0,7.687275946E-1,-1.706856628E0,1.292102804E0,2.274605751E0
4.869407250E0,8.660252631E-1,-1.770113561E0,1.280041168E0,2.349852584E0
4.879372250E0,9.035947931E-1,-1.904505966E0,1.209958488E0,2.430560854E0
4.889338250E0,9.364473742E-1,-2.012547893E0,1.157115153E0,2.503237541E0
4.899303250E0,9.722253174E-1,-2.100033349E0,1.081506123E0,2.554411406E0
4.909269250E0,1.030271212E0,-2.170214555E0,9.927086985E-1,2.599376953E0
4.919234250E0,1.076272427E0,-2.239284790E0,9.081275547E-1,2.645270187E0
4.929199250E0,1.052602313E0,-2.350025207E0,8.226051553E-1,2.703196135E0
4.939165250E0,9.983717269E-1,-2.687770908E0,8.687842718E-1,2.995938028E0
4.949130250E0,9.219971502E-1,-3.197595488E0,9.554598883E-1,3.462311258E0
4.959096250E0,8.610931367E-1,-3.769750217E0,1.070486168E0,4.012285973E0
4.969061250E0,6.933581543E-1,-4.314434727E0,1.019674011E0,4.487184823E0
4.979026250E0,4.372419226E-1,-4.620775033E0,7.760959634E-1,4.705854582E0
4.988992250E0,1.278838688E-1,-4.635696543E0,4.413712263E-1,4.658416607E0
4.998957250E0,-9.276373744E-2,-4.332645296E0,3.103000402E-2,4.333749327E0
5.008923250E0,-2.227216136E-1,-3.649544327E0,-3.292894578E-1,3.671132014E0
5.018888250E0,6.942983866E-3,-2.474738131E0,-3.563151424E-1,2.500267486E0
5.028853250E0,1.371166223E-1,-1.421189738E0,-7.378572196E-2,1.429694223E0
5.038819250E0,2.884092343E-1,-4.930623668E-1,-2.554074030E-1,6.257182477E-1
5.048784250E0,8.879938370E-1,4.179618984E-1,-6.488221054E-1,1.176518307E0
5.058749250E0,-8.769531244E-1,1.042784838E0,-2.492266914E0,2.840394580E0
5.068715250E0,-2.849258725E0,1.661135495E0,-7.908397762E0,8.568570567E0
5.078680250E0,-1.997769055E0,1.965657901E0,-1.198939761E1,1.231261740E1
5.088646250E0,-5.321232292E-1,1.604097075E0,-1.103267267E1,1.116136859E1
5.098611250E0,5.728341758E-2,9.954428566E-1,-8.550186982E0,8.608129024E0
5.108576250E0,-1.403238201E-1,1.087631228E0,-6.323416404E0,6.417805503E0
5.118542250E0,-3.698977858E-1,1.199337605E0,-4.890754429E0,5.049229044E0
5.128507250E0,-6.303833494E-1,1.497712834E0,-3.560704949E0,3.913968144E0
5.138473250E0,-2.458195773E-1,2.494243857E0,-1.795929018E0,3.083348946E0
5.148438250E0,-3.921686608E-1,3.985572116E0,5.654538202E-1,4.044541924E0
5.158403250E0,3.825888750E-1,4.755153989E0,2.895951666E0,5.580716778E0
5.168369250E0,1.466658272E0,4.421929355E0,3.609415179E0,5.893422065E0
5.178334250E0,3.747079977E-1,3.557875189E0,2.937717742E0,4.629154078E0
5.188299250E0,3.177517319E-1,2.927703801E0,2.644580157E0,3.958057594E0
5.198265250E0,4.783075029E-1,2.415533903E0,2.767369639E0,3.704310573E0
5.208230250E0,2.132339215E-1,1.999719102E0,2.629549889E0,3.310419582E0
5.218196250E0,-1.618515140E-1,1.549730834E0,2.343118476E0,2.813905784E0
5.228161250E0,-7.352221718E-1,9.780275095E-1,1.980869140E0,2.328289501E0
5.238126250E0,-1.357530516E0,2.530634004E-1,1.404572828E0,1.969709374E0
5.248092250E0,-1.816283176E0,-1.301327080E-1,7.789227998E-1,1.980540286E0
5.258057250E0,-1.816701252E0,2.239009970E-1,4.544347832E-1,1.886013273E0
5.268023250E0,-1.445757107E0,1.090907423E0,4.334052721E-1,1.862292337E0
5.277988250E0,-9.967520481E-1,1.928174325E0,7.602821687E-1,2.299869529E0
5.287953250E0,-6.431679940E-1,2.537946532E0,1.001297381E0,2.803111506E0
5.297919250E0,-4.627123940E-1,2.958733220E0,1.031334236E0,3.167310426E0
5.307884250E0,-3.802040881E-1,3.099226025E0,9.072150967E-1,3.251583665E0
5.317850250E0,-4.225028461E-1,2.968533738E0,5.750898854E-1,3.053101634E0
5.327815250E0,-8.384509635E-1,2.600713468E0,1.578278987E-1,2.737082426E0
5.337780250E0,-1.437909266E0,2.271378402E0,-1.778687918E-1,2.694138120E0
5.347745708E0,-1.749095744E0,1.926642355E0,-3.883064286E-1,2.630982434E0
5.357710708E0,-1.798340410E0,1.626842160E0,-4.838956869E-1,2.472811897E0
5.367675708E0,-1.625395558E0,1.371310065E0,-5.739277513E-1,2.202679069E0
5.377641708E0,-1.177070239E0,1.180551671E0,-5.113471949E-1,1.743752433E0
5.387606708E0,-8.479234529E-1,1.012030238E0,-4.920968454E-1,1.409020472E0
5.397572708E0,-4.620604295E-1,6.913630843E-1,-7.051252373E-1,1.090268020E0
5.407537708E0,5.889958799E-2,2.096788144E-1,-1.267969737E0,1.286538620E0
5.417502708E0,6.114497727E-1,-5.261704713E-1,-2.374340561E0,2.507632207E0
5.427468708E0,9.596128732E-1,-1.432373707E0,-3.801734779E0,4.174414766E0
5.437433708E0,1.099301393E0,-2.342356583E0,-4.882477695E0,5.525729486E0
5.447399708E0,1.501594216E0,-3.519627966E0,-6.891351782E0,7.882467608E0
5.457364708E0,2.127198051E0,-5.003920271E0,-9.142400000E0,1.063708923E1
5.467329708E0,3.862643470E0,-6.501819631E0,-9.879461414E0,1.244176157E1
5.477295708E0,5.107603099E0,-7.267802542E0,-8.019477317E0,1.196748009E1
5.487260708E0,5.187933902E0,-7.651227862E0,-5.987996725E0,1.101417499E1
5.497226708E0,4.863954008E0,-4.553237354E0,4.489287525E-1,6.677690919E0
5.507191708E0,2.609850327E0,-1.194190301E0,3.631455381E0,4.628701480E0
5.517156708E0,-2.858890843E-1,-5.400821668E-1,3.604821898E0,3.656249750E0
5.527122708E0,-2.246984988E0,-1.424577615E0,2.565991240E0,3.696305447E0
5.537087708E0,-3.657835387E0,-2.888736786E0,1.367509375E0,4.857431608E0
5.547053708E0,-4.181609669E0,-4.062681103E0,8.176375070E-1,5.887254731E0
5.557018708E0,-3.767546986E0,-4.446554319E0,7.195422783E-1,5.872307613E0
5.566983708E0,-3.058583198E0,-4.022587330E0,1.070707924E0,5.165515993E0
5.576949708E0,-2.289085525E0,-2.975523500E0,1.348299078E0,3.988930063E0
5.586914708E0,-1.242129576E0,-1.278446340E0,1.436748740E0,2.289444883E0
5.596879708E0,-2.990628612E-1,6.051184076E-1,1.540252497E0,1.681661273E0
5.606845708E0,4.465527365E-1,2.051493273E0,1.699163154E0,2.700960833E0
5.616810708E0,1.083288501E0,2.989189612E0,1.736934998E0,3.622942409E0
5.626776708E0,1.461125636E0,3.414334230E0,1.713371011E0,4.090013030E0
5.636741708E0,1.616562755E0,3.292097602E0,1.738464337E0,4.058748577E0
5.646706708E0,1.229222724E0,2.560614433E0,1.638350503E0,3.279013137E0
5.656672708E0,4.111659721E-1,1.494645385E0,1.422801815E0,2.104135758E0
5.666637708E0,-4.437957743E-1,5.690071732E-1,1.169867638E0,1.374523242E0
5.676603708E0,-1.101989066E0,-4.722971499E-2,9.332273126E-1,1.444826552E0
5.686568708E0,-1.429991844E0,-3.326937068E-1,7.488895999E-1,1.648149693E0
5.696533708E0,-1.495276007E0,-4.022942841E-1,6.851682517E-1,1.693265059E0
5.706499708E0,-1.397035182E0,-2.127532804E-1,7.552159949E-1,1.602286634E0
5.716464708E0,-1.112148018E0,2.192758495E-1,9.638561976E-1,1.487942836E0
5.726429708E0,-7.696923852E-1,7.363960004E-1,1.195387226E0,1.601142111E0
5.736395708E0,-4.925463501E-1,1.163709351E0,1.434825152E0,1.911947849E0
5.746360708E0,-3.157230404E-1,1.563511552E0,1.699152921E0,2.330529996E0
5.756326708E0,-8.390812933E-2,1.916881598E0,1.898517540E0,2.699230350E0
5.766291708E0,2.154593718E-1,2.218150029E0,1.978914416E0,2.980388323E0
5.776256708E0,5.934052652E-1,2.484974266E0,1.909581057E0,3.189627992E0
5.786222708E0,9.134192848E-1,2.602776366E0,1.712955566E0,3.246998056E0
5.796187708E0,1.021633120E0,2.587886431E0,1.561616177E0,3.190538434E0
5.806153708E0,9.952797192E-1,2.458974037E0,1.409868651E0,3.004141250E0
5.816118708E0,9.684293050E-1,2.275982500E0,1.306082620E0,2.797106267E0
5.826083708E0,9.610293612E-1,2.069596252E0,1.301385259E0,2.626863086E0
5.836049708E0,9.288252363E-1,1.807228763E0,1.298818332E0,2.411580639E0
5.846014708E0,8.041061729E-1,1.485689204E0,1.260988893E0,2.108068343E0
5.855980708E0,7.030747649E-1,1.160905611E0,1.228511703E0,1.830643867E0
5.865945708E0,6.572726476E-1,9.046426141E-1,1.232281988E0,1.664002551E0
5.875910708E0,6.026201847E-1,6.396070397E-1,1.227693970E0,1.509794932E0
5.885876708E0,5.415480638E-1,3.689914674E-1,1.258457341E0,1.418853018E0
5.895841708E0,4.975726166E-1,6.487661183E-2,1.287515956E0,1.381841098E0
5.905807708E0,4.671784973E-1,-2.816697335E-1,1.280382353E0,1.391751615E0
5.915772708E0,4.640601772E-1,-5.878124034E-1,1.251744737E0,1.458677537E0
5.925737708E0,3.949408257E-1,-9.132462072E-1,1.189501711E0,1.550777615E0
5.935703708E0,2.825702047E-1,-1.199497819E0,1.153252190E0,1.687788954E0
5.945668708E0,2.278882134E-1,-1.458096194E0,1.128659094E0,1.857915202E0
5.955633708E0,2.178035206E-1,-1.727287969E0,1.091190136E0,2.054667373E0
5.965599708E0,2.400241095E-1,-1.961097658E0,1.046780533E0,2.235903638E0
5.975564708E0,2.714645880E-1,-2.213876883E0,1.006929419E0,2.447212850E0
5.985530708E0,3.065665931E-1,-2.445975677E0,9.771662146E-1,2.651722817E0
5.995495708E0,3.485121793E-1,-2.710301984E0,9.725553927E-1,2.900527810E0
6.005460708E0,3.657339835E-1,-2.994906435E0,9.446594962E-1,3.161583063E0
6.015426708E0,3.691931963E-1,-3.308177446E0,8.573605666E-1,3.437354909E0
6.025391708E0,2.772235107E-1,-3.704548500E0,7.536131269E-1,3.790575841E0
6.035357708E0,9.028276384E-2,-4.247849559E0,5.695401469E-1,4.286811500E0
6.045322708E0,-1.445688987E-1,-4.768950495E0,3.954641515E-1,4.787502572E0
6.055287708E0,-4.112364310E-1,-5.238841515E0,1.779260945E-1,5.257968573E0
6.065253708E0,-6.478820193E-1,-5.588561144E0,-9.516314238E-2,5.626795074E0
6.075218708E0,-7.047748429E-1,-5.572156781E0,-1.962477601E-1,5.619977932E0
6.085184708E0,-4.108353120E-1,-4.860900884E0,3.908980608E-2,4.878388163E0
6.095149708E0,2.655378503E-1,-3.352919755E0,4.817930281E-1,3.397750102E0
6.105114708E0,1.012800901E0,-1.698734846E0,9.025317693E-1,2.173943269E0
6.115080708E0,1.618787035E0,-3.248145837E-1,1.162398405E0,2.019194402E0
6.125045708E0,1.987918836E0,6.898825693E-1,1.263064947E0,2.454198916E0
6.135010708E0,1.793082009E0,1.457376401E0,1.186767553E0,2.597596253E0
6.144976708E0,4.996094942E-2,2.110452502E0,9.553730571E-1,2.317162821E0
6.154941708E0,1.170493875E0,2.316600183E0,9.195100370E-1,2.753577860E0
6.164907708E0,1.273452233E0,2.486545413E0,4.997393024E-1,2.838014808E0
6.174872708E0,-2.212532024E0,1.941776118E0,-5.432592514E-1,2.993480092E0
6.184837708E0,-5.793204921E0,8.089482522E-1,-3.238357013E0,6.685998555E0
6.194803708E0,-6.391510738E0,-7.190671921E-2,-7.000354407E0,9.479532790E0
6.204768708E0,-4.890919612E0,-3.428655231E-1,-1.034385664E1,1.144700928E1
6.214734708E0,-1.277974177E0,3.482467157E-1,-1.006017078E1,1.014699610E1
6.224699708E0,1.084333398E0,1.531120316E0,-6.938936423E0,7.188111506E0
6.234664708E0,1.675099230E0,2.633195921E0,-4.266263026E0,5.285894285E0
6.244630708E0,1.626774917E0,3.628894885E0,-2.534076844E0,4.715593300E0
6.254595708E0,9.176745960E-1,4.647811389E0,-1.290181409E0,4.910075910E0
6.264561708E0,7.264782456E-1,5.596195269E0,6.264081198E-1,5.677812895E0
6.274526708E0,1.304331087E0,5.274755698E0,1.629888267E0,5.672817909E0
6.284491708E0,1.080530077E0,4.981188635E0,2.126025392E0,5.522659634E0
6.294457708E0,8.851032659E-1,4.096626529E0,1.860187872E0,4.585417716E0
6.304422708E0,4.444334131E-1,3.255152555E0,1.722954305E0,3.709731898E0
6.314387708E0,5.869736204E-1,2.407739564E0,1.764364286E0,3.042158637E0
6.324353708E0,5.200803038E-1,1.484207520E0,1.751499535E0,2.353955417E0
6.334318708E0,2.814107019E-1,7.394540942E-1,1.655979420E0,1.835279864E0
6.344284708E0,-2.340611190E-2,1.777231961E-1,1.270815139E0,1.283395690E0
6.354249958E0,-6.265610245E-1,-1.345216280E-1,5.531960097E-1,8.465817214E-1
6.364214958E0,-1.521395227E0,-1.336071235E-1,-1.923421124E-1,1.539314714E0
6.374180958E0,-2.260234779E0,3.107707411E-1,-5.259468153E-1,2.341337174E0
6.384145958E0,-2.167123716E0,1.272261155E0,-6.976196051E-1,2.608015867E0
6.394111958E0,-8.923447502E-1,2.356323243E0,-5.756864476E-1,2.584560555E0
6.404076958E0,-1.721244872E-2,2.887285507E0,-3.330353303E-1,2.906480071E0
6.414041958E0,-1.780295902E-1,2.796798091E0,-1.279628062E-1,2.805378509E0
6.424007958E0,-6.926325148E-1,2.385190362E0,-1.438426745E-1,2.487883353E0
6.433972958E0,-9.623581409E-1,1.877212917E0,-3.826381378E-1,2.143938775E0
6.443938958E0,-1.061221109E0,1.471177000E0,-6.056300390E-1,1.912417253E0
6.453903958E0,-1.279863705E0,1.148872626E0,-6.278295779E-1,1.830882135E0
6.463868958E0,-1.405975868E0,8.516457903E-1,-6.953985402E-1,1.784838318E0
6.473834958E0,-1.189140646E0,6.191131335E-1,-6.393459615E-1,1.485301251E0
6.483799958E0,-7.683299839E-1,3.296812212E-1,-6.831652880E-1,1.079692309E0
6.493764958E0,-3.072396076E-1,1.565767407E-2,-9.904680455E-1,1.037144295E0
6.503730958E0,1.827038544E-1,-4.386511016E-1,-1.761757890E0,1.824715416E0
6.513695958E0,6.286440951E-1,-1.235437145E0,-3.462083763E0,3.729279062E0
6.523661958E0,6.703242177E-1,-2.134997360E0,-4.786758775E0,5.283995444E0
6.533626958E0,4.115077418E-1,-2.777824461E0,-4.754197677E0,5.521597858E0
6.543591958E0,9.583744329E-1,-3.489542872E0,-5.504078819E0,6.587129470E0
6.553557958E0,2.589333032E0,-4.406016158E0,-6.294167461E0,8.107661066E0
6.563522958E0,3.423959917E0,-5.753951393E0,-6.869753337E0,9.592964561E0
6.573488958E0,3.499148678E0,-7.490061057E0,-6.127863877E0,1.029056713E1
6.583453958E0,3.332666754E0,-3.811984656E0,8.955551639E-1,5.141975667E0
6.593418958E0,1.279376632E0,-8.423031092E-1,3.119728409E0,3.475483339E0
6.603384958E0,-7.790669337E-1,-1.256377194E0,1.969295600E0,2.462428497E0
6.613349958E0,-2.263657446E0,-2.474491963E0,1.066666913E0,3.519237675E0
6.623315958E0,-3.119659705E0,-3.662483046E0,3.739715409E-1,4.825547995E0
6.633280958E0,-3.325113906E0,-4.386736134E0,1.110503197E-2,5.504539918E0
6.643245958E0,-3.230339895E0,-4.424016227E0,-8.212677509E-2,5.478481562E0
6.653211958E0,-2.811881568E0,-3.536124716E0,-1.355223790E-2,4.517857858E0
6.663176958E0,-1.819756422E0,-1.822145010E0,2.227695608E-1,2.584831164E0
6.673141958E0,-8.059883916E-1,-5.352482736E-2,4.407609232E-1,9.201914942E-1
6.683107958E0,2.793939972E-1,1.305652265E0,7.656890890E-1,1.539177905E0
6.693072958E0,1.007205116E0,2.220044526E0,1.064799313E0,2.660236347E0
6.703038958E0,1.296697254E0,2.708071856E0,1.233093289E0,3.245858285E0
6.713003958E0,1.131245025E0,2.713638990E0,1.326707942E0,3.225477614E0
6.722968958E0,7.056782377E-1,2.264725440E0,1.308852446E0,2.709254108E0
6.732934958E0,1.174378181E-1,1.591817338E0,1.113849851E0,1.946364706E0
6.742899958E0,-3.716127741E-1,1.031725999E0,8.510634077E-1,1.388115094E0
6.752865958E0,-5.901957285E-1,6.934324139E-1,6.973496099E-1,1.146942016E0
6.762830958E0,-5.924843287E-1,6.050377160E-1,6.874947126E-1,1.090759963E0
6.772795958E0,-5.699690402E-1,6.491415095E-1,7.712727414E-1,1.158063490E0
6.782761958E0,-5.086370105E-1,7.364515489E-1,8.564795373E-1,1.238801715E0
6.792726958E0,-2.988593781E-1,8.483222330E-1,9.559914002E-1,1.312587938E0
6.802692958E0,-1.536543024E-1,9.009921974E-1,1.013702249E0,1.364913490E0
6.812657958E0,-1.556885487E-1,8.990088218E-1,1.109258617E0,1.436283560E0
6.822622958E0,-1.218390173E-1,9.578522766E-1,1.186630436E0,1.529842319E0
6.832588958E0,-6.896206141E-3,1.075174904E0,1.267526080E0,1.662128454E0
6.842553958E0,2.248850834E-1,1.239786889E0,1.351999635E0,1.848120084E0
6.852518958E0,4.619002157E-1,1.406051881E0,1.407378322E0,2.042314237E0
6.862484958E0,7.059255749E-1,1.550245973E0,1.497743532E0,2.268221590E0
6.872449958E0,1.014901806E0,1.693804473E0,1.541331308E0,2.504935423E0
6.882415958E0,1.292536960E0,1.792658086E0,1.515520529E0,2.679753213E0
6.892380958E0,1.466437247E0,1.820202565E0,1.512941615E0,2.784343352E0
6.902345958E0,1.493292924E0,1.790458948E0,1.555155588E0,2.802530268E0
6.912311958E0,1.476886806E0,1.680154148E0,1.586649276E0,2.742547816E0
6.922276958E0,1.464963748E0,1.507543758E0,1.591197241E0,2.636420988E0
6.932242958E0,1.456999841E0,1.295227849E0,1.572455745E0,2.504611903E0
6.942207958E0,1.383547118E0,1.046417713E0,1.544015473E0,2.322321347E0
6.952172958E0,1.292139934E0,7.880514729E-1,1.547691325E0,2.164716880E0
6.962138958E0,1.237407072E0,5.630009133E-1,1.502518368E0,2.026254608E0
6.972103958E0,1.193397419E0,3.020689148E-1,1.431674965E0,1.888156835E0
6.982069958E0,1.100252443E0,2.815726697E-2,1.352634058E0,1.743836909E0
6.992034958E0,1.081991588E0,-2.422694403E-1,1.295834498E0,1.705458098E0
7.001999958E0,1.033191896E0,-5.267072457E-1,1.273288511E0,1.722257138E0
7.011965958E0,1.007778727E0,-7.311779451E-1,1.234785473E0,1.753549063E0
7.021930958E0,9.897102463E-1,-8.890498441E-1,1.201482364E0,1.792622623E0
7.031895958E0,1.006114025E0,-1.052498817E0,1.172041925E0,1.869144582E0
7.041861958E0,9.806663579E-1,-1.282858649E0,1.122593192E0,1.966633747E0
7.051826958E0,8.737178600E-1,-1.586922634E0,1.076785520E0,2.107409168E0
7.061792958E0,7.751279569E-1,-1.944046592E0,9.982138520E-1,2.318743495E0
7.071757958E0,6.613464028E-1,-2.298978429E0,9.020239386E-1,2.556624350E0
7.081722958E0,4.468629313E-1,-2.688134020E0,7.846960482E-1,2.835753670E0
7.091688958E0,2.412233734E-1,-3.017278467E0,6.705890965E-1,3.100298018E0
7.101653958E0,8.018754601E-2,-3.235131689E0,5.713200393E-1,3.286170062E0
7.111619958E0,-4.513348818E-2,-3.405848166E0,5.068930784E-1,3.443657846E0
7.121584958E0,-1.161268723E-1,-3.655959308E0,4.957681659E-1,3.691247754E0
7.131549958E0,-3.078307611E-1,-4.111129963E0,5.476961187E-1,4.158860467E0
7.141515958E0,-5.855243880E-1,-4.648013703E0,6.084176990E-1,4.724091689E0
7.151480958E0,-7.996593654E-1,-5.087810274E0,6.681227410E-1,5.193424350E0
7.161446958E0,-9.461748022E-1,-5.225072492E0,7.502945396E-1,5.362795092E0
7.171411958E0,-8.825325376E-1,-4.699839329E0,7.261844230E-1,4.836806510E0
7.181376958E0,-6.190540767E-1,-3.684259831E0,6.278319168E-1,3.788293992E0
7.191342958E0,-2.208569366E-1,-2.428175583E0,6.587498005E-1,2.525621854E0
7.201307958E0,3.298969835E-1,-1.229222140E0,7.335067450E-1,1.468962639E0
7.211273958E0,1.111373262E0,-1.972020257E-1,8.428166409E-1,1.408679899E0
7.221238958E0,6.311981589E-1,5.488839805E-1,6.347278306E-1,1.050030551E0
7.231203958E0,-6.874840415E-1,1.106425349E0,-8.145077848E-1,1.536305403E0
7.241169958E0,-4.188220823E0,2.580495551E0,-7.119517154E0,8.653766547E0
7.251134958E0,-5.422631782E0,2.878383706E0,-1.242870009E1,1.386227305E1
7.261099958E0,-3.234190287E0,2.198856556E0,-1.019848901E1,1.092264322E1
7.271065958E0,-1.811731119E0,1.728411219E0,-7.444517094E0,7.854337003E0
7.281030958E0,-5.186170381E-1,1.727323052E0,-4.796499066E0,5.124354774E0
7.290996958E0,-7.718172634E-1,2.568802289E0,-2.585018372E0,3.725153295E0
7.300961958E0,-5.958909166E-1,3.222370725E0,-5.823148513E-1,3.328340376E0
7.310926958E0,-2.875578797E-1,2.978479852E0,5.423312983E-1,3.041077934E0
7.320892958E0,-6.663551277E-1,2.580638807E0,1.209300384E0,2.926795727E0
7.330857958E0,-5.535927433E-1,2.168005477E0,1.142417592E0,2.512335691E0
7.340823958E0,-3.101673084E-1,2.021026356E0,1.500971195E0,2.536467192E0
7.350789208E0,-5.033283234E-2,1.531044302E0,1.883515339E0,2.427809729E0
7.360754208E0,3.962131798E-2,5.457715076E-1,1.432495914E0,1.533453922E0
7.370720208E0,-8.165929019E-2,-3.766016185E-2,9.654735374E-1,9.696523495E-1
7.380685208E0,-1.075700569E-1,3.804409003E-1,4.851086918E-1,6.258091072E-1
7.390651208E0,1.531830168E-1,1.103013498E0,1.340009335E-1,1.121632767E0
7.400616208E0,6.582473785E-1,1.778646403E0,-1.814636600E-1,1.905203847E0
7.410581208E0,1.119423709E0,2.368604735E0,-2.644017363E-1,2.633117184E0
7.420547208E0,1.482631695E0,2.901395423E0,-1.311422297E-1,3.260903315E0
7.430512208E0,1.631425207E0,3.154263527E0,1.345958877E-1,3.553736436E0
7.440477208E0,1.391494069E0,3.101032230E0,-4.987221792E-2,3.399285788E0
7.450443208E0,1.051095486E0,3.147645648E0,-1.907325201E-1,3.323981610E0
7.460408208E0,8.637980586E-1,3.107526732E0,6.586727634E-2,3.226020455E0
7.470374208E0,5.327480042E-1,2.892380186E0,3.647507742E-1,2.963566552E0
7.480339208E0,9.375776410E-2,2.709205046E0,4.712085445E-1,2.751475966E0
7.490304208E0,-2.984500730E-1,2.634094638E0,5.009110844E-1,2.697858210E0
7.500270208E0,-7.064144021E-1,2.573117534E0,4.543448822E-1,2.706729470E0
7.510235208E0,-7.771850073E-1,2.673920023E0,2.570378260E-1,2.796414360E0
7.520201208E0,-7.460228562E-1,2.633376600E0,-2.470426686E-2,2.737121246E0
7.530166208E0,-7.934537154E-1,2.361957620E0,-2.415810768E-1,2.503352555E0
7.540131208E0,-8.177395409E-1,2.068250808E0,-4.348152550E-1,2.266147318E0
7.550097208E0,-7.880637521E-1,1.771888776E0,-6.074964702E-1,2.032162954E0
7.560062208E0,-8.010515875E-1,1.453335391E0,-6.634356129E-1,1.787180521E0
7.570027208E0,-7.487114060E-1,1.113519775E0,-6.807210787E-1,1.504618306E0
7.579993208E0,-5.806402087E-1,7.919796324E-1,-6.469336009E-1,1.175966783E0
7.589958208E0,-3.617455977E-1,4.278004235E-1,-6.994088531E-1,8.961282406E-1
7.599924208E0,-2.549695927E-1,-1.052147985E-1,-9.636584886E-1,1.002355890E0
7.609889208E0,-2.178140455E-1,-7.051426327E-1,-1.360130188E0,1.547457017E0
7.619854208E0,-2.237653416E-1,-1.339267908E0,-1.408214035E0,1.956214770E0
7.629820208E0,-3.405465174E-1,-2.042550541E0,-1.285812224E0,2.437477737E0
7.639785208E0,2.855803514E-1,-3.242467021E0,-2.003402263E0,3.822141958E0
7.649751208E0,1.920053127E0,-5.046737092E0,-3.964508691E0,6.698767682E0
7.659716208E0,2.463251275E0,-5.605619227E0,-4.786354440E0,7.771728417E0
7.669681208E0,1.995483379E0,-5.868327609E0,-5.321037580E0,8.169006290E0
7.679647208E0,1.828979235E0,-8.116168630E0,-9.388393532E0,1.254429318E1
7.689612208E0,2.601477115E0,-8.484144436E0,-8.937750376E0,1.259491055E1
7.699578208E0,3.245511081E0,-3.701131387E0,-9.385469632E-1,5.011245966E0
7.709543208E0,2.076750321E0,-1.713823586E0,1.363333293E0,3.018072372E0
7.719508208E0,-5.661858916E-2,-2.190982695E0,1.235502342E0,2.515964402E0
7.729474208E0,-1.887491738E0,-3.104538805E0,7.632417369E-1,3.712589958E0
7.739439208E0,-3.234763314E0,-3.851687250E0,3.487294033E-2,5.029950745E0
7.749405208E0,-3.665900159E0,-4.188779817E0,-2.741244864E-1,5.573135972E0
7.759370208E0,-3.142505361E0,-3.923153089E0,-2.005396163E-1,5.030575140E0
7.769335208E0,-2.259619651E0,-2.870761276E0,-8.310516044E-2,3.654320421E0
7.779301208E0,-1.087944639E0,-1.214712274E0,1.982977939E-1,1.642702487E0
7.789266208E0,1.194410741E-1,1.884095675E-1,4.636935568E-1,5.145639415E-1
7.799231208E0,1.038778911E0,1.222491995E0,6.614756262E-1,1.735251655E0
7.809197208E0,1.689895610E0,1.886748556E0,8.710874900E-1,2.678499711E0
7.819162208E0,2.085621132E0,2.229788911E0,1.031901708E0,3.222824108E0
7.829128208E0,2.127905272E0,2.165823296E0,1.033793867E0,3.207413468E0
7.839093208E0,1.733014147E0,1.668876039E0,9.625975844E-1,2.591347020E0
7.849058208E0,9.671838480E-1,9.137473136E-1,8.798913503E-1,1.595176334E0
7.859024208E0,2.170965922E-1,2.284127086E-1,8.079960331E-1,8.672720942E-1
7.868989208E0,-3.080324900E-1,-2.262679499E-1,7.374262798E-1,8.305893800E-1
7.878955208E0,-5.633423907E-1,-4.671124238E-1,7.317253907E-1,1.034877149E0
7.888920208E0,-5.891215950E-1,-5.180697387E-1,7.896407461E-1,1.113100632E0
7.898885208E0,-5.051526546E-1,-4.885255122E-1,9.149762522E-1,1.153697500E0
7.908851208E0,-3.142679608E-1,-3.467036355E-1,1.041435885E0,1.141733973E0
7.918816208E0,3.327065706E-3,-7.281479180E-2,1.163288497E0,1.165569900E0
7.928782208E0,2.898862410E-1,2.396510571E-1,1.313786327E0,1.366565466E0
7.938747208E0,5.974474454E-1,5.898296928E-1,1.453722769E0,1.678735359E0
7.948712208E0,9.199927247E-1,9.162820816E-1,1.540868501E0,2.015002532E0
7.958678208E0,1.255699502E0,1.185797208E0,1.617067662E0,2.365967895E0
7.968643208E0,1.551601943E0,1.378274683E0,1.694809610E0,2.679456905E0
7.978608208E0,1.790590510E0,1.546024868E0,1.764955440E0,2.951520790E0
7.988574208E0,1.992861487E0,1.709473257E0,1.802315932E0,3.184672423E0
7.998539208E0,2.137329229E0,1.835335743E0,1.833253842E0,3.361168424E0
8.008505208E0,2.231152482E0,1.953109776E0,1.904392530E0,3.524115507E0
8.018470208E0,2.276356137E0,2.045803932E0,1.988645206E0,3.649906950E0
8.028435208E0,2.217457134E0,2.064416789E0,2.055706923E0,3.661265323E0
8.038401208E0,2.129611489E0,1.987698396E0,2.108931642E0,3.596356862E0
8.048366208E0,2.000831827E0,1.817870695E0,2.131324139E0,3.442459070E0
8.058332208E0,1.832108665E0,1.535387029E0,2.106520542E0,3.186136263E0
8.068297208E0,1.624181092E0,1.246818751E0,2.002052433E0,2.863692574E0
8.078262208E0,1.372269593E0,9.182537627E-1,1.919294451E0,2.531798767E0
8.088228208E0,1.185939295E0,5.763623857E-1,1.816385795E0,2.244527337E0
8.098193208E0,9.896798408E-1,1.888574642E-1,1.745418431E0,2.015345833E0
8.108159208E0,8.061813498E-1,-2.228251094E-1,1.653055812E0,1.852612457E0
8.118124208E0,5.789573801E-1,-6.470534688E-1,1.540386252E0,1.768236309E0
8.128089208E0,3.353430802E-1,-1.101138881E0,1.431184384E0,1.836641107E0
8.138055208E0,6.993152976E-2,-1.590192981E0,1.306500696E0,2.059259140E0
8.148020208E0,-1.787026048E-1,-1.997987157E0,1.185987535E0,2.330333395E0
8.157985208E0,-3.382076311E-1,-2.339092668E0,1.021147217E0,2.574583568E0
8.167951208E0,-3.498166931E-1,-2.547652910E0,9.024677423E-1,2.725317430E0
8.177916208E0,-2.856692290E-1,-2.664082083E0,7.972789639E-1,2.795459533E0
8.187882208E0,-2.084906602E-1,-2.772536824E0,7.137441793E-1,2.870515554E0
8.197847208E0,-1.012702668E-1,-2.846049773E0,6.393617490E-1,2.918739184E0
8.207812208E0,6.031753778E-2,-2.860162028E0,5.856217441E-1,2.920122919E0
8.217778208E0,1.858537495E-1,-2.796533212E0,5.719836983E-1,2.860472858E0
8.227743208E0,2.436768651E-1,-2.736250173E0,5.644097999E-1,2.804461061E0
8.237709208E0,2.399077499E-1,-2.816349426E0,5.421286923E-1,2.878069377E0
8.247674208E0,8.430047750E-2,-3.118552827E0,5.207310989E-1,3.162853013E0
8.257639208E0,-2.511876136E-1,-3.585379322E0,4.377111617E-1,3.620722464E0
8.267605208E0,-7.113991535E-1,-4.175844607E0,2.554183665E-1,4.243701860E0
8.277570208E0,-1.078759248E0,-4.559376930E0,8.289363742E-2,4.685990915E0
8.287536208E0,-1.284314606E0,-4.617812249E0,-1.084217039E-1,4.794310090E0
8.297501208E0,-1.260040475E0,-4.191618640E0,-2.201906464E-1,4.382448259E0
8.307466208E0,-8.821735185E-1,-3.311844819E0,-1.022479212E-1,3.428848329E0
8.317432208E0,-2.837431562E-1,-2.153944092E0,2.168743980E-1,2.183350599E0
8.327397208E0,2.755997390E-1,-9.923648822E-1,5.372196624E-1,1.161614498E0
8.337363208E0,6.135214412E-1,-6.736167848E-2,7.615954533E-1,9.802927058E-1
8.347328208E0,7.202828282E-1,6.470037675E-1,8.760159619E-1,1.305689547E0
8.357293458E0,5.486962849E-1,1.146929596E0,7.657820597E-1,1.484229522E0
8.367259458E0,-2.077889943E-1,1.074953880E0,-7.129042268E-2,1.097171105E0
8.377224458E0,-1.913506585E0,1.757608706E-1,-2.927480145E0,3.501790875E0
8.387189458E0,-5.716124586E0,-2.086860741E0,-9.870855482E0,1.159581200E1
8.397155458E0,-6.114010069E0,-2.519305608E0,-1.645099389E1,1.773029102E1
8.407120458E0,-3.445562455E0,-1.283183169E-1,-1.991515809E1,2.021142964E1
8.417086458E0,-1.289578269E0,1.496535789E0,-8.475754266E0,8.702932946E0
8.427051458E0,-8.904432356E-1,2.141135182E0,-1.410333797E0,2.714109512E0
8.437016458E0,1.594041619E-1,3.195922599E0,2.830516060E0,4.272136715E0
8.446982458E0,6.926716912E-1,3.828313006E0,4.337669224E0,5.826761436E0
8.456947458E0,7.362562519E-1,4.822616825E0,4.559724255E0,6.677633681E0
8.466913458E0,2.194921672E0,5.657557704E0,4.852720922E0,7.770105577E0
8.476878458E0,1.830511206E0,5.142831404E0,4.730228478E0,7.223195109E0
8.486843458E0,4.283445069E-1,4.400691683E0,4.121806979E0,6.044738131E0
8.496809458E0,-1.598079121E-1,3.699981825E0,3.789575202E0,5.298705906E0
8.506774458E0,-6.167444265E-1,2.844213163E0,3.030434117E0,4.201601259E0
8.516740458E0,-7.920699719E-1,2.376696696E0,2.455507808E0,3.507931103E0
8.526705458E0,-6.770108011E-1,2.434231544E0,2.184183845E0,3.339833215E0
8.536670458E0,-4.388586777E-1,2.827472000E0,2.437194913E0,3.758605312E0
8.546636458E0,-2.651753229E-1,3.155814208E0,2.832401787E0,4.248762308E0
8.556601458E0,-7.671488464E-2,3.496177123E0,3.212716388E0,4.748756283E0
8.566566458E0,1.270231587E-1,3.773431624E0,3.534620227E0,5.171891458E0
8.576532458E0,1.794352609E-1,3.792119325E0,3.628178601E0,5.251289932E0
8.586497458E0,6.426323891E-2,3.558801972E0,3.559859441E0,5.034064013E0
8.596463458E0,-6.748330057E-2,3.140048361E0,3.353334323E0,4.594486781E0
8.606428458E0,-2.926221532E-1,2.748036990E0,2.932144761E0,4.029244088E0
8.616393458E0,-4.788682508E-1,2.504482332E0,2.214412196E0,3.377183431E0
8.626359458E0,-6.298696715E-1,2.411368931E0,1.346313510E0,2.832665881E0
8.636324458E0,-9.520483303E-1,2.135016071E0,4.281243593E-1,2.376547940E0
8.646290458E0,-1.321711058E0,1.739975842E0,-4.973825821E-1,2.240942990E0
8.656255458E0,-1.397809061E0,1.402699088E0,-1.460403066E0,2.460530841E0
8.666220458E0,-1.258374603E0,9.740940875E-1,-2.170975131E0,2.691746450E0
8.676186458E0,-1.143848113E0,3.660321915E-1,-2.672744733E0,2.930176186E0
8.686151458E0,-1.126973634E0,-3.208992881E-1,-2.898015733E0,3.125946435E0
8.696117458E0,-1.273850428E0,-9.550432742E-1,-2.642735653E0,3.085264057E0
8.706082458E0,-1.153760313E0,-1.321899923E0,-2.435950918E0,3.002072474E0
8.716047458E0,-7.399399978E-1,-1.545906170E0,-2.660638658E0,3.164859421E0
8.726013458E0,-4.336838919E-1,-1.729225736E0,-2.877786998E0,3.385256470E0
8.735978458E0,-2.333869350E-1,-1.892833169E0,-2.743172107E0,3.340999862E0
8.745944458E0,1.451022817E0,-2.662129698E0,-3.906392630E0,4.944927211E0
8.755909458E0,2.889535516E0,-4.107804651E0,-7.127180514E0,8.718955020E0
8.765874458E0,3.094241858E0,-5.597354772E0,-1.003962484E1,1.190372967E1
8.775840458E0,3.107501004E0,-5.833157192E0,-8.207102773E0,1.053749597E1
8.785805458E0,2.962407610E0,-5.400584271E0,-4.740370766E0,7.772598299E0
8.795771458E0,1.635408915E0,-6.841956843E0,-2.887503316E0,7.604249546E0
8.805736458E0,2.022043186E-1,-5.755568733E0,8.847065324E-1,5.826676898E0
8.815701458E0,-4.669042629E-1,-3.249431055E0,2.846861951E0,4.345276141E0
8.825667458E0,-1.278625265E0,-3.555701194E0,2.155654403E0,4.350257401E0
8.835632458E0,-2.361083461E0,-4.658606519E0,1.591529070E0,5.459880455E0
8.845597458E0,-3.077412110E0,-5.356434869E0,1.119415230E0,6.278132705E0
8.855563458E0,-3.295520563E0,-5.105211588E0,7.403832167E-1,6.121422093E0
8.865528458E0,-2.660850327E0,-3.861307674E0,6.164567435E-1,4.729676557E0
8.875494458E0,-1.493356366E0,-2.071311826E0,7.719985271E-1,2.667663330E0
8.885459458E0,-3.975726575E-1,-4.405917925E-1,1.136756318E0,1.282341636E0
8.895424458E0,4.952454248E-1,6.657025784E-1,1.461762106E0,1.680826108E0
8.905390458E0,1.093801795E0,1.214162636E0,1.686886340E0,2.348654678E0
8.915355458E0,1.341897985E0,1.271489908E0,1.829638216E0,2.600952285E0
8.925321458E0,1.191944970E0,8.915302330E-1,1.827401657E0,2.356895370E0
8.935286458E0,8.136739719E-1,2.799945062E-1,1.626158328E0,1.839797044E0
8.945251458E0,3.674168122E-1,-2.269538283E-1,1.334866416E0,1.402986637E0
8.955217458E0,-2.279770911E-2,-5.624799263E-1,1.107068835E0,1.241976170E0
8.965182458E0,-2.430178839E-1,-5.997740525E-1,9.908943075E-1,1.183494037E0
8.975147458E0,-2.034293103E-1,-4.363204014E-1,9.361439037E-1,1.052674872E0
8.985113458E0,2.278250635E-2,-8.735506296E-2,9.590974411E-1,9.633368317E-1
8.995078458E0,3.176739639E-1,2.678322977E-1,1.142422562E0,1.215639831E0
9.005044458E0,7.138397813E-1,6.104610085E-1,1.448175515E0,1.726106080E0
9.015009458E0,1.171418320E0,9.647163230E-1,1.775006804E0,2.335283198E0
9.024974458E0,1.497385390E0,1.259696074E0,1.979576321E0,2.783472582E0
9.034940458E0,1.668409431E0,1.501430494E0,2.144363722E0,3.104219601E0
9.044905458E0,1.787996101E0,1.764182146E0,2.348695550E0,3.438842754E0
9.054871458E0,1.931658681E0,1.990564701E0,2.529336799E0,3.753824414E0
9.064836458E0,1.988637459E0,2.174268429E0,2.730993234E0,4.017517416E0
9.074801458E0,1.914575456E0,2.317594795E0,2.958374786E0,4.217680190E0
9.084767458E0,1.840399432E0,2.406291794E0,3.117006530E0,4.346612471E0
9.094732458E0,1.750102050E0,2.373752038E0,3.194455825E0,4.347654994E0
9.104698458E0,1.684887469E0,2.266264427E0,3.216675245E0,4.280397163E0
9.114663458E0,1.633453022E0,2.076584260E0,3.167148744E0,4.124463859E0
9.124628458E0,1.509889660E0,1.744755356E0,3.062246479E0,3.834226328E0
9.134594458E0,1.229829665E0,1.316838573E0,2.957334566E0,3.463000515E0
9.144559458E0,9.318117017E-1,8.477942294E-1,2.831458339E0,3.099061862E0
9.154525458E0,4.813638425E-1,3.013421059E-1,2.647533878E0,2.707758085E0
9.164490458E0,1.042172635E-1,-2.490422702E-1,2.415053554E0,2.430096080E0
9.174455458E0,-1.137365305E-1,-7.377478766E-1,2.127187818E0,2.254359320E0
9.184421458E0,-1.659164983E-1,-1.156630127E0,1.861318723E0,2.197687176E0
9.194386458E0,-1.546366346E-1,-1.531651828E0,1.594204756E0,2.216158526E0
9.204351458E0,-1.478328145E-1,-1.868983546E0,1.343087894E0,2.306260854E0
9.214317458E0,-1.264179718E-1,-2.123899344E0,1.108618347E0,2.399159137E0
9.224282458E0,-6.782887101E-2,-2.293520638E0,8.722048929E-1,2.454705491E0
9.234248458E0,-9.123995304E-3,-2.425363072E0,6.887976184E-1,2.521291621E0
9.244213458E0,1.897129118E-2,-2.589106160E0,5.550598097E-1,2.648003401E0
9.254178458E0,2.373852611E-2,-2.768383546E0,4.944171667E-1,2.812287203E0
9.264144458E0,1.036027211E-1,-2.974033045E0,4.800777474E-1,3.014312644E0
9.274109458E0,1.689816087E-1,-3.139667122E0,4.929556552E-1,3.182619943E0
9.284075458E0,2.119510424E-1,-3.316488093E0,4.576565990E-1,3.354618619E0
9.294040458E0,1.071268380E-1,-3.656017195E0,4.096994904E-1,3.680460781E0
9.304005458E0,-1.685091537E-1,-4.288894674E0,2.886095014E-1,4.301895897E0
9.313971458E0,-5.925743759E-1,-5.116327145E0,1.018026558E-1,5.151534880E0
9.323936458E0,-1.073542947E0,-6.032089409E0,-2.537723753E-1,6.132128302E0
9.333902458E0,-1.347660416E0,-6.688862119E0,-4.578086266E-1,6.838614903E0
9.343867458E0,-1.409340355E0,-6.793858817E0,-4.684660542E-1,6.954294954E0
9.353832333E0,-9.436078745E-1,-5.900645755E0,-1.793153930E-1,5.978308302E0
9.363798333E0,4.641402841E-2,-4.064835218E0,3.673466456E-1,4.081664264E0
9.373763333E0,1.010441549E0,-2.047252872E0,8.134833527E-1,2.423631905E0
9.383729333E0,1.707469416E0,-4.114252961E-1,1.103231599E0,2.074088364E0
9.393694333E0,2.024713025E0,8.069496739E-1,1.134726165E0,2.457281848E0
9.403659333E0,1.987261609E0,1.488981771E0,7.446095842E-1,2.592434927E0
9.413625333E0,3.950039756E-1,1.030755946E0,-4.947220405E0,5.068873218E0
9.423590333E0,-5.733920587E0,-4.194850981E-2,-3.360607908E1,3.409176082E1
9.433555333E0,-4.172012926E0,-2.043432301E-1,-2.308765382E1,2.346246379E1
9.443521333E0,1.005738634E0,9.243214184E-1,-5.046548227E0,5.228147788E0
9.453486333E0,1.828226114E0,2.286159579E0,1.343732842E0,3.220955494E0
9.463452333E0,1.969021220E0,2.978463480E0,4.861604597E0,6.031872721E0
9.473417333E0,1.854936195E0,2.933053418E0,5.441135881E0,6.453646281E0
9.483382333E0,9.030334604E-1,2.793938218E0,4.922411254E0,5.731639621E0
9.493348333E0,4.251522195E-1,3.463075451E0,4.991742275E0,6.090249332E0
9.503313333E0,1.369358849E0,3.425353893E0,5.204538825E0,6.379295990E0
9.513279333E0,-5.586839139E-2,2.496042461E0,4.820020661E0,5.428254638E0
9.523244333E0,-8.317757821E-1,1.557492428E0,4.288277793E0,4.637559708E0
9.533209333E0,-1.115672720E0,7.741391927E-1,3.799177207E0,4.034571174E0
9.543175333E0,-1.364543082E0,5.043048084E-1,3.558002950E0,3.843915472E0
9.553140333E0,-1.407678577E0,5.546820796E-1,3.359841104E0,3.684801681E0
9.563106333E0,-1.355740684E0,8.299151981E-1,3.150992594E0,3.529241614E0
9.573071333E0,-1.168561370E0,1.289560727E0,3.156327594E0,3.604290003E0
9.583036333E0,-6.747616696E-1,1.829609565E0,3.201861616E0,3.748958826E0
9.593002333E0,-2.064745402E-1,2.323467738E0,3.235018545E0,3.988292749E0
9.602967333E0,2.023990309E-1,2.761013716E0,3.245477752E0,4.265827932E0
9.612932333E0,5.323346061E-1,3.078519280E0,3.160567995E0,4.444080460E0
9.622898333E0,6.609634101E-1,3.221712329E0,3.088366576E0,4.511575231E0
9.632863333E0,6.801241511E-1,3.204529116E0,2.933792506E0,4.397580493E0
9.642829333E0,5.759782237E-1,3.073108851E0,2.637754118E0,4.090659569E0
9.652794333E0,3.939041144E-1,2.860049762E0,2.312628462E0,3.699093875E0
9.662759333E0,1.605534321E-1,2.633535644E0,1.987732894E0,3.303387572E0
9.672725333E0,-1.543922210E-1,2.355219873E0,1.613994219E0,2.859348693E0
9.682690333E0,-4.643344116E-1,2.046015601E0,1.176864417E0,2.405576052E0
9.692656333E0,-8.134166944E-1,1.771511630E0,6.962478483E-1,2.069942328E0
9.702621333E0,-9.664611322E-1,1.541114962E0,2.492644644E-1,1.836086931E0
9.712586333E0,-1.167763810E0,1.339229316E0,-3.778551885E-1,1.816585264E0
9.722552333E0,-1.019088412E0,1.239216201E0,-1.587274636E0,2.256909115E0
9.732517333E0,4.288347960E-3,1.120281495E0,-4.808246123E0,4.937031476E0
9.742483333E0,5.965294325E-1,1.572135025E-1,-6.751300442E0,6.779426311E0
9.752448333E0,-1.430182171E-1,-1.465456669E0,-5.957550273E0,6.136808838E0
9.762413333E0,-2.031671212E0,-2.496033690E0,-3.767753978E0,4.955183360E0
9.772379333E0,-2.897238053E0,-2.479962618E0,-1.584486684E0,4.129745873E0
9.782344333E0,-2.437479672E0,-2.141004789E0,1.181605339E-1,3.246408873E0
9.792310333E0,-1.429155985E0,-2.163936399E0,1.720028651E-1,2.598979137E0
9.802275333E0,-5.873662609E-1,-2.397246736E0,-3.300580743E-1,2.490126376E0
9.812240333E0,2.971847355E-1,-2.787184099E0,-1.533712971E0,3.195150927E0
9.822206333E0,9.664856905E-1,-3.091090794E0,-2.538177497E0,4.114763892E0
9.832171333E0,1.225959393E0,-3.548609691E0,-2.394399434E0,4.452949115E0
9.842136333E0,8.484923869E-1,-4.111956759E0,-1.624508536E0,4.501905786E0
9.852102333E0,8.224354398E-1,-6.113979079E0,-2.303407695E0,6.585045728E0
9.862067333E0,1.673891196E0,-1.142036529E1,-6.647656206E0,1.331983439E1
9.872033333E0,2.170844300E0,-9.966008391E0,-1.801152336E0,1.035751119E1
9.881998333E0,6.287312186E-1,-5.697825724E0,7.740076303E-1,5.784428126E0
9.891963333E0,-6.663481110E-1,-3.359178030E0,8.826874888E-1,3.536556806E0
9.901929333E0,1.429954129E-1,-1.611369258E0,1.635645728E0,2.300498972E0
9.911894333E0,3.656018364E-1,-3.131265843E-1,1.688238801E0,1.755523628E0
9.921860333E0,2.717394072E-1,8.682588995E-2,1.439312306E0,1.467310790E0
9.931825333E0,4.780122185E-1,9.344142973E-2,1.155971438E0,1.254391066E0
9.941790333E0,7.453855097E-1,7.982267976E-2,1.093122641E0,1.325476641E0
9.951756333E0,1.188647141E0,1.788429379E-2,1.290605333E0,1.754669199E0
9.961721333E0,1.388543563E0,-1.654878974E-1,1.314651715E0,1.919309408E0
9.971687333E0,1.390865493E0,-3.628893131E-1,1.268011984E0,1.916781120E0
9.981652333E0,1.107128769E0,-5.778627813E-1,1.213139958E0,1.741082440E0
9.991617333E0,7.152688408E-1,-8.496518898E-1,1.117100902E0,1.575256257E0
1.000158333E1,3.109508353E-1,-1.175841739E0,1.013353755E0,1.583091927E0
1.001154833E1,5.728341758E-2,-1.445768509E0,9.610179591E-1,1.736975385E0
1.002151433E1,5.983104944E-2,-1.530348483E0,9.890951192E-1,1.823144369E0
1.003147933E1,2.875882852E-1,-1.425892653E0,1.079642762E0,1.811492582E0
1.004144433E1,6.294627053E-1,-1.168896416E0,1.235219629E0,1.813369697E0
1.005141033E1,9.748986644E-1,-8.402308559E-1,1.401881939E0,1.903073375E0
1.006137533E1,1.277416061E0,-4.892061281E-1,1.603935108E0,2.108013818E0
1.007134033E1,1.650778322E0,-1.178839606E-1,1.847217286E0,2.480156728E0
1.008130633E1,1.815420127E0,2.107289743E-1,2.019954561E0,2.724036227E0
1.009127133E1,1.997626383E0,5.008496886E-1,2.162467286E0,2.986239498E0
1.010123733E1,2.131158078E0,7.669284064E-1,2.238194869E0,3.184262898E0
1.011120233E1,2.266885402E0,1.009370340E0,2.293378551E0,3.378932240E0
1.012116733E1,2.384542490E0,1.178082392E0,2.338095717E0,3.541272736E0
1.013113333E1,2.449631356E0,1.276633703E0,2.341928860E0,3.621480108E0
1.014109833E1,2.386870852E0,1.268989053E0,2.359072311E0,3.587855606E0
1.015106433E1,2.269216102E0,1.206263632E0,2.406468672E0,3.520725087E0
1.016102933E1,2.196142278E0,1.122067235E0,2.461986523E0,3.484745819E0
1.017099433E1,2.098447584E0,9.871579367E-1,2.467825260E0,3.386461954E0
1.018096033E1,1.961151452E0,7.816148579E-1,2.515641743E0,3.284127005E0
1.019092533E1,1.796103850E0,5.300296336E-1,2.620267142E0,3.220670792E0
1.020089133E1,1.524216508E0,2.046741825E-1,2.833088543E0,3.223587780E0
1.021085633E1,1.283113003E0,-7.801705956E-2,3.015744742E0,3.278289491E0
1.022082133E1,1.117359642E0,-3.106491190E-1,3.160403396E0,3.366473684E0
1.023078733E1,9.459420830E-1,-5.338776863E-1,3.280479770E0,3.455630091E0
1.024075233E1,8.132746071E-1,-7.288074839E-1,3.397356255E0,3.568557896E0
1.025071833E1,7.644825161E-1,-8.777167708E-1,3.495995567E0,3.684671661E0
1.026068333E1,8.027314925E-1,-1.005733956E0,3.333757260E0,3.573487947E0
1.027064833E1,9.365736741E-1,-1.074197250E0,2.995491157E0,3.317233373E0
1.028061433E1,1.044033803E0,-1.149674864E0,2.565286943E0,2.998742399E0
1.029057933E1,1.083919415E0,-1.315410098E0,2.145439902E0,2.740090765E0
1.030054533E1,1.038360250E0,-1.515441592E0,1.820064570E0,2.585998891E0
1.031051033E1,9.409614247E-1,-1.732153437E0,1.634076920E0,2.560463105E0
1.032047533E1,8.320693123E-1,-1.975402871E0,1.559780443E0,2.650937735E0
1.033044133E1,6.745540935E-1,-2.237285627E0,1.537729716E0,2.797334960E0
1.034040633E1,4.884167540E-1,-2.598174607E0,1.494477862E0,3.036861257E0
1.035037096E1,1.672672051E-1,-3.134141504E0,1.361252854E0,3.421086175E0
1.036033696E1,-3.020455259E-1,-3.941746066E0,1.111388173E0,4.106552960E0
1.037030196E1,-8.991590953E-1,-4.934986276E0,8.189034292E-1,5.082635089E0
1.038026796E1,-1.532645270E0,-5.913745857E0,5.084048760E-1,6.130242010E0
1.039023296E1,-2.188971838E0,-6.765122091E0,2.088464633E-1,7.113514705E0
1.040019796E1,-2.762173803E0,-7.472697165E0,-6.947983235E-2,7.967159750E0
1.041016396E1,-3.059946184E0,-7.615098501E0,-2.166627288E-1,8.209746559E0
1.042012896E1,-2.755098673E0,-6.358087469E0,-1.842571673E-1,6.931795991E0
1.043009496E1,-1.572948958E0,-4.059934081E0,2.336790034E-1,4.360256764E0
1.044005996E1,-1.970301175E-1,-1.898146534E0,8.564115635E-1,2.091703109E0
1.045002496E1,8.149761468E-1,-1.750106728E-1,1.389154890E0,1.620051284E0
1.045999096E1,1.514567433E0,1.095402178E0,1.768621059E0,2.573293783E0
1.046995596E1,1.942376043E0,1.987848085E0,1.959860387E0,3.400796588E0
1.047992196E1,1.954583275E0,2.505591549E0,1.974134610E0,3.741068329E0
1.048988696E1,1.676269843E0,2.632917008E0,1.812900269E0,3.609534589E0
1.049985196E1,1.175573351E0,2.358352811E0,1.507290573E0,3.035741352E0
1.050981796E1,3.876136798E-1,1.699642918E0,1.144838339E0,2.085589901E0
1.051978296E1,-5.487664515E-1,8.900766152E-1,7.537540448E-1,1.289002001E0
1.052974896E1,-1.498542554E0,8.987404346E-2,4.021656454E-1,1.554169983E0
1.053971396E1,-2.330807748E0,-4.343995911E-1,8.600435615E-2,2.372501741E0
1.054967896E1,-3.023057270E0,-6.550296557E-1,-4.451355176E-1,3.125073557E0
1.055964496E1,-6.093182287E0,-3.405169305E0,-1.090529810E1,1.294787917E1
1.056960996E1,-7.745752780E0,-6.503461529E0,-2.189008324E1,2.411363603E1
1.057957496E1,-3.693948083E0,-3.155400810E0,-1.135158683E1,1.234748275E1
1.058954096E1,-6.005207419E-1,-2.138917333E-1,-5.874075422E0,5.908564707E0
1.059950596E1,4.031000304E-1,1.030585792E0,-5.425692800E0,5.537394610E0
1.060947196E1,1.661242206E0,2.529568641E0,-1.342175728E0,3.310570776E0
1.061943696E1,2.468212053E0,3.450101649E0,2.247044629E0,4.800466820E0
1.062940196E1,2.941566964E0,3.938511386E0,3.716882032E0,6.162783477E0
1.063936796E1,3.190317459E0,4.305072750E0,4.677568454E0,7.112764829E0
1.064933296E1,2.854952451E0,4.410671711E0,5.531512200E0,7.629050115E0
1.065929896E1,1.954869788E0,4.470377045E0,6.330237765E0,7.992352406E0
1.066926396E1,8.620737147E-1,4.726867499E0,6.862733170E0,8.377562533E0
1.067922896E1,-3.508007795E-2,4.876855012E0,6.949215828E0,8.489790695E0
1.068919496E1,-9.592132160E-1,4.975543733E0,7.098677092E0,8.721659354E0
1.069915996E1,-1.216430186E0,5.039287155E0,6.781950377E0,8.536332254E0
1.070912596E1,-1.096249731E0,5.082818506E0,6.037159529E0,7.967691172E0
1.071909096E1,-6.431203392E-1,5.104899931E0,5.526094170E0,7.550584339E0
1.072905596E1,4.368162453E-3,5.067989967E0,5.116769779E0,7.201796606E0
1.073902196E1,6.654198655E-1,4.915430263E0,4.797639273E0,6.900839142E0
1.074898696E1,1.227053992E0,4.903893707E0,4.288831524E0,6.629322049E0
1.075895296E1,1.329929904E0,4.685644044E0,3.431254026E0,5.957975986E0
1.076891796E1,9.759166646E-1,4.163774199E0,2.240344305E0,4.827895144E0
1.077888296E1,6.471119410E-1,3.546599418E0,4.229753011E-1,3.629880081E0
1.078884896E1,2.705214322E-1,2.476365411E0,-2.261314759E0,3.364388790E0
1.079881396E1,-1.926862210E-1,7.025786287E-1,-6.104306030E0,6.147625299E0
1.080877896E1,-8.523135424E-1,-2.364800536E0,-9.212784104E0,9.549560770E0
1.081874496E1,-2.046244227E0,-6.630510415E0,-9.986719229E0,1.216081185E1
1.082870996E1,-3.306175359E0,-9.750695200E0,-1.117920156E1,1.519807224E1
1.083867596E1,-3.137262747E0,-1.016375187E1,-1.144098608E1,1.562179350E1
1.084864096E1,1.153838081E0,-8.837025070E0,-8.562184299E0,1.235861458E1
1.085860596E1,1.718019547E0,-7.515320444E0,-4.807507912E0,9.085359919E0
1.086857196E1,-2.661974162E0,-3.680395406E0,-2.213696204E0,5.052906854E0
1.087853696E1,-1.720680031E0,-7.105290878E-1,-1.170558487E0,2.199044912E0
1.088850296E1,-8.834558129E-2,7.785626113E-1,-4.172961929E-1,8.877504121E-1
1.089846796E1,8.155561906E-1,8.913080388E-1,3.254276642E-1,1.251185472E0
1.090843296E1,-2.607226682E-1,7.670798492E-1,1.440378838E0,1.652597653E0
1.091839896E1,-1.838570423E0,-2.800523937E-2,2.845550713E0,3.387961682E0
1.092836396E1,-3.684124176E0,-1.317356052E0,3.472284815E0,5.231152813E0
1.093832996E1,-5.166769904E0,-2.783700328E0,2.986522990E0,6.585120981E0
1.094829496E1,-5.786863616E0,-4.109265870E0,2.333817017E0,7.471315706E0
1.095825996E1,-5.920629199E0,-4.771443747E0,1.816685172E0,7.817983791E0
1.096822596E1,-5.504350129E0,-4.363003455E0,1.324268338E0,7.147541964E0
1.097819096E1,-4.409698734E0,-3.044559236E0,9.859598422E-1,5.448568682E0
1.098815696E1,-2.796397557E0,-1.389318320E0,8.706875405E-1,3.241626364E0
1.099812196E1,-1.218262119E0,1.165157121E-1,9.297321394E-1,1.536925617E0
1.100808696E1,2.345136935E-1,1.325143958E0,1.149364669E0,1.769757702E0
1.101805296E1,1.284639711E0,2.066850985E0,1.196271325E0,2.711685318E0
1.102801796E1,1.755099666E0,2.327085995E0,1.097709489E0,3.114589891E0
1.103798396E1,1.685462251E0,2.143300990E0,9.777971292E-1,2.896654857E0
1.104794896E1,1.386223388E0,1.663918769E0,8.169487050E-1,2.314658968E0
1.105791396E1,8.928300691E-1,1.043152628E0,6.177527788E-1,1.505633233E0
1.106787996E1,2.484660271E-1,4.243727857E-1,4.273022407E-1,6.514712832E-1
1.107784496E1,-1.774185562E-1,-3.526455760E-3,2.897894695E-1,3.398054100E-1
1.108780996E1,-5.089588997E-1,-2.694373584E-1,1.835850298E-1,6.044328870E-1
1.109777596E1,-7.592515969E-1,-4.267297983E-1,1.318541282E-1,8.808784362E-1
1.110774096E1,-8.875202125E-1,-4.325378376E-1,1.905516949E-1,1.005530237E0
1.111770696E1,-8.829397961E-1,-2.215872538E-1,2.422975069E-1,9.420146902E-1
1.112767196E1,-6.249887082E-1,1.820343482E-1,3.205063552E-1,7.255837050E-1
1.113763696E1,-1.419879377E-1,6.535123032E-1,5.780437526E-1,8.839533273E-1
1.114760296E1,4.076860017E-1,1.127515671E0,8.811929405E-1,1.487951767E0
1.115756796E1,8.676750550E-1,1.521890486E0,1.207072594E0,2.127447978E0
1.116753396E1,1.254839084E0,1.901860101E0,1.573069410E0,2.768797634E0
1.117749896E1,1.704736720E0,2.238805318E0,1.865288106E0,3.376044468E0
1.118746396E1,2.043841899E0,2.450542937E0,2.036818516E0,3.785641301E0
1.119742996E1,2.184832594E0,2.529014325E0,2.086190650E0,3.939745975E0
1.120739496E1,2.244997519E0,2.468677492E0,2.097064717E0,3.941073819E0
1.121736096E1,2.252368519E0,2.308660249E0,1.997065635E0,3.793592920E0
1.122732596E1,2.304903998E0,2.079944655E0,1.828514966E0,3.603084677E0
1.123729096E1,2.364521039E0,1.801804301E0,1.723548090E0,3.436288186E0
1.124725696E1,2.270138792E0,1.422665575E0,1.565160466E0,3.102778555E0
1.125722196E1,2.111814319E0,9.118422908E-1,1.423889982E0,2.705305669E0
1.126718796E1,1.962693363E0,3.978884071E-1,1.347889627E0,2.413977396E0
1.127715296E1,1.763739511E0,-1.569907236E-1,1.300051802E0,2.196715238E0
1.128711796E1,1.575710598E0,-6.675538069E-1,1.299265936E0,2.148623733E0
1.129708396E1,1.479574771E0,-1.117932084E0,1.297521127E0,2.263288475E0
1.130704896E1,1.405536742E0,-1.541066430E0,1.309208542E0,2.462609648E0
1.131701496E1,1.334560899E0,-1.926529503E0,1.359570025E0,2.709427869E0
1.132697996E1,1.248376449E0,-2.271164979E0,1.352985476E0,2.923560127E0
1.133694496E1,1.166880881E0,-2.557599608E0,1.300036599E0,3.097260387E0
1.134691096E1,1.157591409E0,-2.790790077E0,1.244664636E0,3.267677643E0
1.135687588E1,1.281835386E0,-2.923411945E0,1.303266893E0,3.447889782E0
1.136684187E1,1.409839708E0,-2.974013749E0,1.395599106E0,3.574926943E0
1.137680687E1,1.578126667E0,-3.028104587E0,1.404215856E0,3.692116376E0
1.138677187E1,1.694521927E0,-3.066334267E0,1.440536128E0,3.788001417E0
1.139673788E1,1.735265910E0,-3.137600132E0,1.435402565E0,3.862131910E0
1.140670288E1,1.689841815E0,-3.263656746E0,1.387653033E0,3.928435013E0
1.141666787E1,1.586780546E0,-3.445465976E0,1.288548574E0,4.006178444E0
1.142663388E1,1.432921591E0,-3.675442815E0,1.198605826E0,4.122960114E0
1.143659888E1,1.213667377E0,-4.087785539E0,1.085354615E0,4.400110652E0
1.144656487E1,8.586875921E-1,-4.752801070E0,1.002933140E0,4.932781900E0
1.145652987E1,5.797186875E-1,-5.344992453E0,9.990412331E-1,5.468372835E0
1.146649487E1,3.230633426E-1,-5.702619272E0,1.021253344E0,5.802343912E0
1.147646088E1,2.595485473E-1,-5.649279801E0,9.661649707E-1,5.737177222E0
1.148642587E1,2.133567131E-1,-5.061445178E0,7.418859512E-1,5.119974916E0
1.149639187E1,1.595003486E-1,-4.063531289E0,4.072734806E-1,4.087003619E0
1.150635688E1,-1.860883398E0,-2.097503843E0,1.091873968E-1,2.806123889E0
1.151632188E1,-1.245397877E0,-4.319630563E-1,1.078475658E0,1.703149347E0
1.152628787E1,1.197141976E0,3.792416364E-1,2.020389886E0,2.378854435E0
1.153625287E1,1.040992666E0,1.089656703E0,1.401100751E0,2.057693072E0
1.154621888E1,8.546752328E-1,1.129701360E0,3.375036263E-1,1.456229245E0
1.155618388E1,3.366353148E-1,1.075777168E0,-7.218165529E-1,1.338521194E0
1.156614887E1,-5.922574568E-1,1.018690801E0,-1.560734417E0,1.955605216E0
1.157611488E1,-2.050206301E0,8.045833057E-1,-2.494161412E0,3.327392570E0
1.158607988E1,-3.086341393E0,3.242251843E-1,-4.641953941E0,5.583758730E0
1.159604587E1,-4.215833130E0,-9.296277666E-1,-7.809093329E0,8.922970099E0
1.160601087E1,-4.231627629E0,-2.035343263E0,-1.079337888E1,1.177057018E1
1.161597588E1,-3.010311802E0,-1.938756616E0,-1.195356704E1,1.247832197E1
1.162594188E1,-1.138441485E0,3.152041000E-1,-9.081386644E0,9.157892007E0
1.163590687E1,1.213952136E-1,2.301872216E0,-5.878897036E0,6.314648277E0
1.164587288E1,7.102320492E-1,3.756092291E0,-3.276295210E0,5.034557494E0
1.165583788E1,5.416845962E-1,5.576329354E0,-5.562093723E-1,5.630119016E0
1.166580288E1,1.337013514E0,6.691034945E0,1.614800988E0,7.011785507E0
1.167576887E1,2.203531405E0,6.591681980E0,2.131395475E0,7.269708979E0
1.168573387E1,1.028900040E0,6.045722192E0,2.453301653E0,6.605155647E0
1.169569888E1,6.850463372E-1,5.300717921E0,2.264619021E0,5.804773748E0
1.170566488E1,4.701825044E-1,4.511653125E0,1.910047664E0,4.921825636E0
1.171562987E1,2.833613330E-1,3.841389134E0,1.751593967E0,4.231388135E0
1.172559588E1,2.015257493E-1,3.129559041E0,1.780060552E0,3.606018301E0
1.173556088E1,-6.622439504E-2,2.199707326E0,1.679379685E0,2.768287217E0
1.174552588E1,-3.337014744E-1,1.213324145E0,1.479761882E0,1.942474551E0
1.175549187E1,-4.813006926E-1,4.821426916E-1,1.487649776E0,1.636219358E0
1.176545688E1,-3.982012331E-1,2.809464329E-1,1.604815991E0,1.677179026E0
1.177542288E1,-4.207194453E-1,7.223258454E-1,1.643249739E0,1.843645623E0
1.178538787E1,-9.654600888E-1,1.366001378E0,1.470037962E0,2.226900213E0
1.179535287E1,-1.590870089E0,1.907979212E0,9.501713741E-1,2.659713885E0
1.180531888E1,-1.339083136E0,2.409192013E0,5.054517397E-1,2.802290359E0
1.181528388E1,-1.060052835E0,2.626349416E0,3.023279464E-1,2.848302206E0
1.182524987E1,-8.631671441E-1,2.690995063E0,2.185294524E-1,2.834478271E0
1.183521487E1,-9.004314494E-1,2.697490150E0,1.576071663E-1,2.848169574E0
1.184517988E1,-1.004988436E0,2.563261467E0,1.802477315E-2,2.753295480E0
1.185514588E1,-1.182111123E0,2.292530120E0,-1.593155766E-1,2.584272144E0
1.186511087E1,-1.333742874E0,1.902483999E0,-2.038641970E-1,2.332354182E0
1.187507688E1,-1.491301947E0,1.474754911E0,-5.900556877E-2,2.098181403E0
1.188504188E1,-1.320893617E0,1.199028288E0,-3.559844823E-1,1.819107950E0
1.189500688E1,-6.851153344E-1,8.256771362E-1,-1.142709514E0,1.567453600E0
1.190497287E1,1.846293426E-1,2.312515318E-2,-2.509272956E0,2.516162462E0
1.191493788E1,6.991813964E-1,-1.272858156E0,-4.586606244E0,4.811026849E0
1.192490388E1,3.545441669E-1,-2.447321121E0,-5.497761487E0,6.028305201E0
1.193486887E1,-5.326503557E-1,-3.180176632E0,-4.937350305E0,5.897004990E0
1.194483387E1,-9.790998888E-1,-3.531592539E0,-4.222388443E0,5.591005868E0
1.195479988E1,-1.399648011E-2,-4.602025352E0,-4.491524670E0,6.430600835E0
1.196476488E1,2.396702945E0,-7.178499187E0,-7.658770770E0,1.076716329E1
1.197473087E1,3.889645620E0,-1.032034732E1,-1.119823542E1,1.571748670E1
1.198469587E1,3.988778145E0,-8.458284540E0,-3.916035858E0,1.013845478E1
1.199466088E1,2.609907630E0,-4.106591354E0,2.330182096E0,5.394947542E0
1.200462687E1,4.696507001E-1,-3.148696393E0,2.391045179E0,3.981451720E0
1.201459187E1,-1.136832039E0,-3.625958413E0,1.355105091E0,4.034386113E0
1.202455788E1,-2.193691710E0,-4.221761037E0,7.226060732E-1,4.812245745E0
1.203452288E1,-2.754021031E0,-4.645994074E0,5.148102084E-1,5.425396053E0
1.204448788E1,-2.773429694E0,-4.307613366E0,4.643051755E-1,5.144222436E0
1.205445387E1,-2.085276146E0,-3.144162462E0,3.362762958E-1,3.787771896E0
1.206441888E1,-8.865507442E-1,-1.737196076E0,5.518917882E-1,2.026920564E0
1.207438388E1,1.219185394E-1,-4.650623900E-1,9.093516693E-1,1.028624137E0
1.208434987E1,9.046151322E-1,4.763054162E-1,1.263410225E0,1.625238685E0
1.209431487E1,1.411064699E0,1.132812079E0,1.577626145E0,2.400681371E0
1.210428088E1,1.521379439E0,1.347618901E0,1.717705260E0,2.661049316E0
1.211424588E1,1.250989569E0,1.041560431E0,1.671422209E0,2.333125636E0
1.212421087E1,7.787976694E-1,4.743565392E-1,1.450227596E0,1.713096616E0
1.213417687E1,3.256326091E-1,-1.071917421E-1,1.143976752E0,1.194240125E0
1.214414188E1,3.751807451E-2,-4.908193749E-1,8.672417763E-1,9.972058781E-1
1.215410787E1,-9.365426838E-2,-6.497864574E-1,6.983145466E-1,9.584554076E-1
1.216407287E1,-2.188612819E-3,-5.717460090E-1,7.032574904E-1,9.063494837E-1
1.217403787E1,3.042277068E-1,-2.598765761E-1,7.678584060E-1,8.658503705E-1
1.218400388E1,6.074935466E-1,7.939349413E-2,9.301212716E-1,1.113767173E0
1.219396888E1,8.569123775E-1,4.173075950E-1,1.132120645E0,1.479912703E0
1.220393487E1,1.072605638E0,7.102963686E-1,1.438837512E0,1.930092529E0
1.221389988E1,1.277883253E0,9.624119353E-1,1.687910188E0,2.325567273E0
1.222386488E1,1.495565736E0,1.208053465E0,1.886327265E0,2.693388311E0
1.223383087E1,1.620090380E0,1.463172746E0,2.046588044E0,2.992338541E0
1.224379587E1,1.681350489E0,1.689682771E0,2.139378093E0,3.202952694E0
1.225376188E1,1.764562215E0,1.878717991E0,2.202773313E0,3.390497215E0
1.226372688E1,1.875454075E0,2.059657740E0,2.255143315E0,3.584018606E0
1.227369187E1,1.921023180E0,2.222164727E0,2.278970135E0,3.717801905E0
1.228365787E1,1.940980897E0,2.336470191E0,2.310000139E0,3.816097540E0
1.229362288E1,1.993596482E0,2.425840205E0,2.326324980E0,3.907801882E0
1.230358887E1,2.053269072E0,2.448136223E0,2.345054781E0,3.963403433E0
1.231355387E1,2.059247265E0,2.409217740E0,2.306416672E0,3.919743268E0
1.232351887E1,1.975219268E0,2.264813733E0,2.243003911E0,3.749925192E0
1.233348488E1,1.830608270E0,2.065396197E0,2.198060750E0,3.528237400E0
1.234344988E1,1.584318284E0,1.740229027E0,2.168775555E0,3.200320124E0
1.235341633E1,1.283129375E0,1.352424143E0,2.149686735E0,2.845456925E0
1.236338133E1,9.737105101E-1,9.394136667E-1,2.108516489E0,2.505284810E0
1.237334633E1,7.160283941E-1,5.051076311E-1,2.095490355E0,2.271323448E0
1.238331233E1,4.466313815E-1,1.008469284E-2,2.067807882E0,2.115516657E0
1.239327733E1,1.742142820E-1,-5.310107964E-1,1.985763260E0,2.062905428E0
1.240324333E1,-7.026131272E-2,-1.103880640E0,1.848093491E0,2.153819554E0
1.241320833E1,-2.619757265E-1,-1.644598399E0,1.693421481E0,2.375081364E0
1.242317333E1,-3.497067654E-1,-2.131958562E0,1.432410837E0,2.592169542E0
1.243313933E1,-3.916207767E-1,-2.473292699E0,1.145811901E0,2.753802556E0
1.244310433E1,-4.174800879E-1,-2.667610878E0,8.888700423E-1,2.842626843E0
1.245307033E1,-3.400278693E-1,-2.715042906E0,6.738389790E-1,2.818002112E0
1.246303533E1,-1.671543539E-1,-2.697356248E0,5.358467361E-1,2.755141200E0
1.247300033E1,1.510335803E-3,-2.667561761E0,4.227183160E-1,2.700847794E0
1.248296633E1,6.803644717E-2,-2.700807860E0,3.355573806E-1,2.722423701E0
1.249293133E1,2.616862893E-2,-2.852652449E0,2.138958263E-1,2.860780001E0
1.250289733E1,-1.613702881E-1,-3.330922530E0,4.756943822E-2,3.335168380E0
1.251286233E1,-4.911199218E-1,-4.087347583E0,-1.710646793E-1,4.120300009E0
1.252282733E1,-9.330349392E-1,-4.981147705E0,-4.211916080E-1,5.085252110E0
1.253279333E1,-1.386453769E0,-5.791860647E0,-6.539865124E-1,5.991293864E0
1.254275833E1,-1.713351715E0,-6.354396122E0,-8.427758566E-1,6.635073120E0
1.255272433E1,-1.882509910E0,-6.256051801E0,-9.566784480E-1,6.602822227E0
1.256268933E1,-1.531568213E0,-4.995588573E0,-8.193761766E-1,5.288949206E0
1.257265433E1,-5.553790677E-1,-2.979517733E0,-2.930609867E-1,3.044972343E0
1.258262033E1,3.846830553E-1,-1.102088469E0,3.617862359E-1,1.222075827E0
1.259258533E1,1.068218472E0,3.214202750E-1,8.798287851E-1,1.420739381E0
1.260255033E1,1.525710472E0,1.311683668E0,1.195901781E0,2.340616918E0
1.261251633E1,1.691780752E0,1.921963413E0,1.359063949E0,2.898813600E0
1.262248133E1,1.542975546E0,2.103090858E0,1.397646801E0,2.959253499E0
1.263244733E1,1.077588050E0,1.862234690E0,1.226476872E0,2.476562045E0
1.264241233E1,2.254160106E-1,1.303128022E0,9.309224863E-1,1.617272919E0
1.265237733E1,-1.264376477E0,4.538608789E-3,-1.208797815E-1,1.270149754E0
1.266234333E1,-3.627553826E0,-2.311720682E0,-4.270640836E0,6.061482692E0
1.267230833E1,-8.872084975E0,-6.014117991E0,-1.471907902E1,1.820809694E1
1.268227433E1,-6.949857852E0,-3.788507500E0,-2.121085664E1,2.263965001E1
1.269223933E1,-1.088322954E0,1.788897157E-2,-1.744249221E1,1.747642130E1
1.270220433E1,1.847103265E-1,2.115315632E0,-6.335557562E0,6.681913480E0
1.271217033E1,4.135507590E-1,2.988619509E0,-1.687548537E0,3.456977128E0
1.272213533E1,5.936920711E-1,4.257618502E0,1.579772951E0,4.579898270E0
1.273210133E1,5.396564895E-1,5.919966710E0,4.490800200E0,7.450135664E0
1.274206633E1,2.504280311E0,6.829279495E0,6.031547956E0,9.449341196E0
1.275203133E1,2.363335224E0,6.725097899E0,5.988553964E0,9.309944883E0
1.276199733E1,1.390773692E0,6.369257405E0,5.547016093E0,8.559852737E0
1.277196233E1,9.567442292E-1,5.815355929E0,5.175021495E0,7.843122565E0
1.278192833E1,4.319276807E-1,5.234954871E0,4.826002362E0,7.133134852E0
1.279189333E1,7.006367683E-2,4.810426549E0,4.461881041E0,6.561516207E0
1.280185833E1,-3.795646951E-1,4.473502382E0,4.132319980E0,6.101832621E0
1.281182433E1,-5.635528904E-1,4.246925114E0,3.954486271E0,5.830259553E0
1.282178933E1,-6.182231873E-1,4.069926973E0,3.962746341E0,5.714005953E0
1.283175533E1,-5.411919683E-1,3.933911381E0,4.009884839E0,5.643378769E0
1.284172033E1,-5.536447835E-1,3.701019121E0,3.834397618E0,5.357860597E0
1.285168533E1,-6.557243049E-1,3.338611618E0,3.578883357E0,4.938087483E0
1.286165133E1,-8.478059238E-1,2.902197661E0,3.400075503E0,4.549949403E0
1.287161633E1,-1.173894616E0,2.327591195E0,3.177242207E0,4.109814762E0
1.288158233E1,-1.531685742E0,1.678288887E0,2.945390166E0,3.719951348E0
1.289154733E1,-1.923413522E0,9.598648882E-1,2.586222314E0,3.362946035E0
1.290151233E1,-2.261775520E0,2.879549056E-1,2.002974247E0,3.034872710E0
1.291147833E1,-2.618608872E0,-3.499049860E-1,9.282899237E-1,2.800226438E0
1.292144333E1,-2.771532857E0,-6.548086309E-1,-7.717691700E-1,2.950558654E0
1.293140933E1,-1.712353595E0,-3.341718829E-1,-3.820404646E0,4.199918731E0
1.294137433E1,5.619033909E-1,-3.443144631E-1,-8.351284586E0,8.377245497E0
1.295133933E1,1.113160756E0,-1.752035140E0,-1.023037738E1,1.043883975E1
1.296130533E1,-1.253947383E0,-3.407222262E0,-7.720896267E0,8.531927493E0
1.297127033E1,-2.529626529E0,-3.588422213E0,-3.853000535E0,5.841352367E0
1.298123633E1,-1.591750095E0,-3.017325245E0,-1.763262086E0,3.840184003E0
1.299120133E1,-1.378793916E-1,-2.664370351E0,-2.148343337E0,3.425384531E0
1.300116633E1,1.414225119E-1,-2.243222889E0,-3.585284597E0,4.231585388E0
1.301113233E1,1.197247226E0,-2.187211826E0,-5.790737396E0,6.304755038E0
1.302109733E1,3.118200240E0,-3.585645370E0,-5.975159748E0,7.634301505E0
1.303106233E1,4.231800122E0,-6.565634973E0,-5.573727343E0,9.595943485E0
1.304102833E1,2.544583122E0,-6.874547469E0,-2.180050156E0,7.647674473E0
1.305099333E1,-3.539226079E-1,-5.402491633E0,8.663103148E-1,5.482943609E0
1.306095933E1,-1.891730384E0,-4.366236965E0,1.595782335E0,5.018883376E0
1.307092433E1,-2.862984187E0,-4.856476296E0,7.723689482E-1,5.690219175E0
1.308088933E1,-3.543879001E0,-5.688985319E0,4.872630984E-2,6.702686520E0
1.309085533E1,-3.867496659E0,-5.789391952E0,-2.629875872E-1,6.967334645E0
1.310082033E1,-3.353702112E0,-4.790187582E0,-2.455187380E-1,5.852648493E0
1.311078633E1,-2.158811315E0,-3.230010697E0,6.327856779E-2,3.885542378E0
1.312075133E1,-8.751858035E-1,-1.499821925E0,4.355064690E-1,1.790274247E0
1.313071633E1,1.878578827E-1,-3.441086411E-2,8.148173949E-1,8.369002800E-1
1.314068233E1,9.485505259E-1,9.932840645E-1,1.113017499E0,1.767814834E0
1.315064733E1,1.450419384E0,1.584630525E0,1.300735341E0,2.511310956E0
1.316061333E1,1.673869269E0,1.654667889E0,1.452941581E0,2.766008566E0
1.317057833E1,1.536593894E0,1.276626102E0,1.483453229E0,2.488278216E0
1.318054333E1,1.198361997E0,6.772689557E-1,1.267774002E0,1.871367317E0
1.319050933E1,7.815338740E-1,9.509209871E-2,8.897117490E-1,1.188033964E0
1.320047433E1,4.433671734E-1,-2.908732510E-1,6.120365408E-1,8.097965336E-1
1.321044033E1,2.724410731E-1,-5.117816430E-1,3.937938944E-1,7.008696167E-1
1.322040533E1,2.283501434E-1,-5.135211897E-1,3.631039059E-1,6.690980846E-1
1.323037033E1,3.576440683E-1,-3.249011225E-1,5.837485886E-1,7.577812571E-1
1.324033633E1,6.190575850E-1,2.498983026E-2,8.829251781E-1,1.078616547E0
1.325030133E1,9.221190646E-1,4.299475211E-1,1.214485694E0,1.584340223E0
1.326026733E1,1.247388269E0,8.438409269E-1,1.580673130E0,2.183248164E0
1.327023233E1,1.559262965E0,1.200652059E0,1.884728051E0,2.724897464E0
1.328019733E1,1.795558305E0,1.533675549E0,2.110386721E0,3.167005278E0
1.329016333E1,1.988978351E0,1.856335434E0,2.278699701E0,3.548871433E0
1.330012833E1,2.187254511E0,2.142289422E0,2.381658643E0,3.878889552E0
1.331009433E1,2.421800364E0,2.398248948E0,2.435494835E0,4.189075090E0
1.332005933E1,2.584880378E0,2.585303131E0,2.480328069E0,4.417853118E0
1.333002433E1,2.598280442E0,2.692391962E0,2.549304456E0,4.527580915E0
1.333999033E1,2.670212889E0,2.735787658E0,2.570310870E0,4.606633147E0
1.334995533E1,2.675298212E0,2.640793793E0,2.569680541E0,4.553489921E0
1.335992083E1,2.582908697E0,2.448750765E0,2.524349124E0,4.363500446E0
1.336988583E1,2.378012905E0,2.145907679E0,2.451795118E0,4.033753146E0
1.337985083E1,2.122660319E0,1.725012233E0,2.442267373E0,3.666882048E0
1.338981683E1,1.828254765E0,1.283232286E0,2.452627469E0,3.317315494E0
1.339978183E1,1.538321747E0,8.268109113E-1,2.452640626E0,3.010896232E0
1.340974783E1,1.268686168E0,3.337415278E-1,2.428267969E0,2.759969806E0
1.341971283E1,9.936957085E-1,-1.890293723E-1,2.356694833E0,2.564600125E0
1.342967783E1,6.681636715E-1,-7.687463057E-1,2.224061564E0,2.446193658E0
1.343964383E1,2.856113416E-1,-1.380660347E0,2.110827601E0,2.538383343E0
1.344960883E1,-6.133729219E-3,-1.980666534E0,2.001405146E0,2.815794755E0
1.345957483E1,-1.835698271E-1,-2.520460433E0,1.779836604E0,3.090992885E0
1.346953983E1,-2.596853721E-1,-2.925534484E0,1.478074083E0,3.287992017E0
1.347950483E1,-2.982460052E-1,-3.176470667E0,1.176994517E0,3.400622395E0
1.348947083E1,-2.523061860E-1,-3.305944979E0,9.412321508E-1,3.446570553E0
1.349943583E1,-1.272886223E-1,-3.317271620E0,7.992348576E-1,3.414567286E0
1.350940183E1,4.112697601E-2,-3.253307759E0,6.981481934E-1,3.327628840E0
1.351936683E1,2.291629064E-1,-3.150820686E0,6.189125741E-1,3.219198566E0
1.352933183E1,4.026299143E-1,-3.066445949E0,5.379751226E-1,3.139206721E0
1.353929783E1,3.898549175E-1,-3.197337041E0,4.538059151E-1,3.252828126E0
1.354926283E1,1.765175003E-1,-3.707232372E0,3.028825548E-1,3.723770687E0
1.355922783E1,-2.151050305E-1,-4.464119940E0,6.691582829E-2,4.469800302E0
1.356919383E1,-6.736927986E-1,-5.289726325E0,-2.289512372E-1,5.337366883E0
1.357915883E1,-1.191845568E0,-6.047683933E0,-5.518318543E-1,6.188658595E0
1.358912483E1,-1.606763406E0,-6.477378269E0,-8.983811232E-1,6.733884951E0
1.359908983E1,-1.756984223E0,-6.167677569E0,-1.216504738E0,6.527413265E0
1.360905483E1,-1.286187469E0,-4.781453011E0,-1.146685475E0,5.082465807E0
1.361902083E1,-4.253831846E-1,-2.863450502E0,-5.606743062E-1,2.948670092E0
1.362898583E1,4.020814455E-1,-1.184038365E0,7.040047646E-2,1.252426671E0
1.363895183E1,9.547778106E-1,7.797846794E-2,5.469228244E-1,1.103089246E0
1.364891683E1,1.315139957E0,9.238051093E-1,9.186855796E-1,1.851213705E0
1.365888183E1,1.326152018E0,1.363174249E0,1.164160902E0,2.229841657E0
1.366884783E1,4.622083640E-1,1.330166132E0,1.083744145E0,1.776929904E0
1.367881283E1,-1.593235872E0,5.734177279E-1,2.653539553E-1,1.713948995E0
1.368877883E1,-4.680240632E0,-5.367352206E-1,-3.427290491E0,5.825723747E0
1.369874383E1,-1.317036209E1,-7.103332061E-1,-1.776563625E1,2.212647378E1
1.370870883E1,-9.795045161E0,-3.268757272E-1,-1.939993185E1,2.173492842E1
1.371867483E1,-2.664813862E0,1.330354997E0,-1.264262749E1,1.298873001E1
1.372863983E1,2.071686047E-1,3.073345079E0,-7.228149065E0,7.857131010E0
1.373860583E1,1.251569028E0,4.453120742E0,-2.025874282E0,5.049839204E0
1.374857083E1,1.253790093E0,5.442405896E0,1.069253429E0,5.686393799E0
1.375853583E1,8.939322692E-1,6.361615094E0,2.873337559E0,7.037423551E0
1.376850183E1,1.935138944E0,6.796690623E0,4.191562507E0,8.216383779E0
1.377846683E1,1.684635747E0,6.328507574E0,4.311695892E0,7.840837148E0
1.378843283E1,8.373300523E-1,5.889082886E0,3.704868635E0,7.007743607E0
1.379839783E1,8.964401400E-1,5.448871163E0,3.302957636E0,6.434542021E0
1.380836283E1,7.417640367E-1,4.997142178E0,3.226759353E0,5.994465761E0
1.381832883E1,5.419140995E-1,4.552755543E0,3.161862276E0,5.569436864E0
1.382829383E1,1.754427820E-1,4.182402844E0,3.146254011E0,5.236619904E0
1.383825983E1,-9.347651303E-2,3.749804195E0,3.117497697E0,4.877351868E0
1.384822483E1,-2.031141454E-1,3.311196948E0,3.051429422E0,4.507383066E0
1.385818983E1,-1.416663408E-1,2.972933768E0,2.955733598E0,4.194611501E0
1.386815583E1,-1.823951215E-1,2.512511728E0,2.374764776E0,3.462006775E0
1.387812083E1,-7.806945062E-1,2.044302952E0,1.686988666E0,2.763076045E0
1.388808683E1,-1.523240608E0,1.685324256E0,1.270870395E0,2.603015820E0
1.389805183E1,-1.993999355E0,1.442216910E0,9.077065551E-1,2.622966686E0
1.390801683E1,-2.113700046E0,1.453050047E0,5.857164690E-1,2.630997169E0
1.391798283E1,-2.289483136E0,1.528010767E0,5.703130026E-1,2.811015271E0
1.392794783E1,-2.127745058E0,1.637651907E0,5.262844920E-1,2.736088114E0
1.393791283E1,-2.054808059E0,1.697425069E0,3.579174256E-1,2.689162120E0
1.394787883E1,-1.957184116E0,1.681023629E0,-9.784832999E-2,2.581856774E0
1.395784383E1,-1.506914012E0,1.703574586E0,-7.669955762E-1,2.400257991E0
1.396780983E1,-1.039540218E0,1.692508730E0,-1.960255805E0,2.790668824E0
1.397777483E1,5.396921575E-1,1.563706264E0,-5.006348619E0,5.272567819E0
1.398773983E1,1.920607443E0,4.580954325E-1,-7.887053086E0,8.130448373E0
1.399770583E1,1.426838148E0,-1.449097914E0,-8.438810388E0,8.680395880E0
1.400767083E1,-1.490728335E0,-2.260100877E0,-4.115444623E0,4.926176143E0
1.401763683E1,-2.160842637E0,-2.015870281E0,-1.444942005E0,3.289503198E0
1.402760183E1,3.829668975E-1,-2.542249498E0,-2.096158984E0,3.317164247E0
1.403756683E1,5.907886362E-1,-3.250126289E0,-3.579332716E0,4.870726311E0
1.404753283E1,1.254356396E-1,-3.612868837E0,-5.083278097E0,6.237649520E0
1.405749783E1,1.973880841E0,-5.420097014E0,-7.148897073E0,9.185879739E0
1.406746383E1,4.143179137E0,-9.004391093E0,-7.912219502E0,1.268259476E1
1.407742883E1,3.614625340E0,-1.024485041E1,-4.198073967E0,1.164672921E1
1.408739383E1,1.002902150E0,-5.617214255E0,1.830170313E0,5.992364482E0
1.409735983E1,-8.539308822E-1,-3.043904933E0,2.576532308E0,4.078366576E0
1.410732483E1,-1.972348578E0,-3.277125222E0,1.690933783E0,4.181981073E0
1.411729083E1,-2.712394410E0,-3.864335947E0,1.160741012E0,4.861840746E0
1.412725583E1,-3.003534586E0,-4.050232381E0,9.059468356E-1,5.123118389E0
1.413722083E1,-2.810518875E0,-3.703911738E0,6.311274076E-1,4.692153058E0
1.414718683E1,-2.028683577E0,-2.806493359E0,3.975978005E-1,3.485691616E0
1.415715183E1,-1.063622268E0,-1.683596989E0,4.027798954E-1,2.031753625E0
1.416711783E1,-1.348853248E-1,-6.548688573E-1,6.976064488E-1,9.662825821E-1
1.417708283E1,5.637291840E-1,1.108298796E-1,9.519135520E-1,1.111851279E0
1.418704783E1,9.375410959E-1,5.395342827E-1,1.078119270E0,1.527226803E0
1.419701383E1,9.806204572E-1,5.920639139E-1,1.206930799E0,1.663982606E0
1.420697883E1,6.891268167E-1,3.227686429E-1,1.169153109E0,1.394989017E0
1.421694483E1,3.075638357E-1,-1.024391252E-1,9.641052890E-1,1.017147136E0
1.422690983E1,1.017207947E-1,-4.812264329E-1,7.806021202E-1,9.226405962E-1
1.423687483E1,-1.114195713E-1,-7.962229568E-1,5.804434499E-1,9.916148024E-1
1.424684083E1,-3.144924939E-1,-9.331244016E-1,6.370579460E-1,1.172804120E0
1.425680583E1,-2.015731117E-1,-7.642737705E-1,8.157380390E-1,1.135858558E0
1.426677083E1,-1.304630756E-2,-4.418185383E-1,1.052535947E0,1.141580373E0
1.427673683E1,3.315976462E-1,-2.767370224E-2,1.364263293E0,1.404256802E0
1.428670183E1,7.379431736E-1,4.289482319E-1,1.702695165E0,1.904659428E0
1.429666783E1,1.092700472E0,8.530239791E-1,2.002924253E0,2.435846833E0
1.430663283E1,1.456573871E0,1.245953947E0,2.195069607E0,2.914161845E0
1.431659783E1,1.749080249E0,1.644977884E0,2.338103904E0,3.351412213E0
1.432656383E1,2.003882319E0,2.031084151E0,2.451391660E0,3.761670939E0
1.433652883E1,2.237856315E0,2.389600332E0,2.589177789E0,4.173970802E0
1.434649483E1,2.463205667E0,2.673294371E0,2.703537633E0,4.530231858E0
1.435646008E1,2.613792520E0,2.838395768E0,2.773358650E0,4.751833338E0
1.436642508E1,2.692357464E0,2.886369833E0,2.801981355E0,4.840559786E0
1.437639108E1,2.731133859E0,2.828669509E0,2.784371881E0,4.818006862E0
1.438635608E1,2.722170662E0,2.673769165E0,2.708438476E0,4.679197970E0
1.439632208E1,2.520752794E0,2.416509218E0,2.657751303E0,4.388320116E0
1.440628708E1,2.229257399E0,1.985657133E0,2.599081803E0,3.958238121E0
1.441625208E1,1.978562706E0,1.553577717E0,2.608675622E0,3.624017467E0
1.442621808E1,1.836336202E0,1.206800991E0,2.669170038E0,3.457306462E0
1.443618308E1,1.616430607E0,8.510873812E-1,2.692167137E0,3.253453785E0
1.444614908E1,1.385862030E0,4.357608229E-1,2.698767766E0,3.064938583E0
1.445611408E1,1.135195404E0,-8.031735420E-3,2.705079836E0,2.933630861E0
1.446607908E1,8.763982236E-1,-5.267891067E-1,2.656106189E0,2.846134342E0
1.447604508E1,7.226100200E-1,-1.027068107E0,2.483875867E0,2.783284653E0
1.448601008E1,5.421327853E-1,-1.541188052E0,2.228888148E0,2.763532331E0
1.449597608E1,2.819293499E-1,-2.086039208E0,1.939602123E0,2.862359190E0
1.450594108E1,7.260019898E-2,-2.544001908E0,1.576990553E0,2.994013310E0
1.451590608E1,-2.970444024E-2,-2.866872877E0,1.246022067E0,3.126085962E0
1.452587208E1,-9.778298736E-2,-3.069192971E0,9.562615415E-1,3.216200109E0
1.453583708E1,-1.179816091E-1,-3.257673874E0,7.727209505E-1,3.350142743E0
1.454580308E1,-7.571150243E-2,-3.414137179E0,6.790125954E-1,3.481827540E0
1.455576808E1,-3.791919351E-2,-3.593272478E0,5.798248145E-1,3.639950794E0
1.456573308E1,-7.033440292E-2,-3.773196566E0,4.916280448E-1,3.805740058E0
1.457569908E1,-1.927815306E-1,-4.226666266E0,3.006158817E-1,4.241726341E0
1.458566408E1,-5.175738949E-1,-4.891319270E0,4.170438856E-2,4.918803329E0
1.459562908E1,-1.008948755E0,-5.700454048E0,-3.122416082E-1,5.797469169E0
1.460559508E1,-1.595138556E0,-6.482203977E0,-7.120970187E-1,6.713457944E0
1.461556008E1,-2.016371972E0,-7.041943898E0,-1.077532502E0,7.403769721E0
1.462552608E1,-2.202005866E0,-6.857756605E0,-1.303097616E0,7.319543625E0
1.463549108E1,-1.753799245E0,-5.272424998E0,-1.109440465E0,5.666139365E0
1.464545608E1,-5.755086923E-1,-2.878964919E0,-3.419311380E-1,2.955768287E0
1.465542208E1,5.154472625E-1,-8.430252403E-1,4.217526484E-1,1.074361547E0
1.466538708E1,1.304498025E0,6.355134040E-1,9.439353186E-1,1.731070844E0
1.467535308E1,1.821462055E0,1.687576604E0,1.260397739E0,2.784643832E0
1.468531808E1,1.982689086E0,2.270715913E0,1.439210564E0,3.340439165E0
1.469528308E1,1.781885176E0,2.379654803E0,1.462200354E0,3.312989833E0
1.470524908E1,1.101186828E0,2.144456400E0,1.257520032E0,2.718945074E0
1.471521408E1,-3.281720549E-2,1.426564499E0,8.602368119E-1,1.666184447E0
1.472518008E1,-2.160928299E0,2.738543451E-2,-6.427692139E-1,2.254664795E0
1.473514508E1,-7.774153292E0,-2.930385919E0,-8.709785564E0,1.203681792E1
1.474511008E1,-1.355376285E1,-4.624127242E0,-2.093356062E1,2.536337912E1
1.475507608E1,-7.327927122E0,-3.048942894E-1,-2.387954224E1,2.498047265E1
1.476504108E1,-6.673123169E-1,2.948660806E0,-1.103411927E1,1.144079081E1
1.477500708E1,1.111603058E0,4.553623855E0,-3.480011326E0,5.837947447E0
1.478497208E1,1.266886102E0,5.347733043E0,7.868937242E-1,5.551797081E0
1.479493708E1,1.878618588E0,6.069274192E0,3.812047513E0,7.409251194E0
1.480490308E1,1.940085981E0,6.411859049E0,5.039097705E0,8.382623441E0
1.481486808E1,1.677151018E0,6.415189038E0,5.214614747E0,8.435620480E0
1.482483408E1,1.658599265E0,6.294301947E0,5.124047808E0,8.284024050E0
1.483479908E1,1.418032826E0,5.844258716E0,4.994700381E0,7.817493775E0
1.484476408E1,9.634574175E-1,5.372442207E0,4.740737679E0,7.229521367E0
1.485473008E1,5.097164065E-1,4.861537061E0,4.308602715E0,6.516011876E0
1.486469508E1,9.584171176E-2,4.427774232E0,4.092586103E0,6.030226471E0
1.487466008E1,-2.002349764E-1,4.047668962E0,3.945643820E0,5.656131471E0
1.488462608E1,-4.496234018E-1,3.580761775E0,3.764921587E0,5.215232559E0
1.489459108E1,-8.119654155E-1,2.977710359E0,3.515862359E0,4.678390209E0
1.490455708E1,-1.378312983E0,2.189516798E0,3.352358422E0,4.234623653E0
1.491452208E1,-1.885127124E0,1.466224408E0,3.264149666E0,4.044526094E0
1.492448708E1,-2.326386668E0,7.334490037E-1,2.864212687E0,3.762145224E0
1.493445308E1,-2.493366775E0,4.048816770E-1,2.463691571E0,3.528538395E0
1.494441808E1,-2.456762035E0,3.652866715E-1,2.171327280E0,3.299056866E0
1.495438408E1,-2.571136497E0,1.014521152E-1,1.844376854E0,3.165874508E0
1.496434908E1,-2.390244695E0,5.356108010E-2,1.170433649E0,2.661964203E0
1.497431408E1,-1.886825155E0,3.988257158E-1,4.902270520E-1,1.989847652E0
1.498428008E1,-1.310175086E0,7.681726938E-1,-4.817167220E-1,1.593329547E0
1.499424508E1,-7.336571646E-1,1.098373733E0,-1.863493449E0,2.284137808E0
1.500421108E1,6.812199193E-1,1.434570506E0,-4.956805161E0,5.204994767E0
1.501417608E1,2.589141828E0,1.124340633E0,-1.009609257E1,1.048326678E1
1.502414108E1,2.784303176E0,-8.646365494E-1,-1.222806341E1,1.257081840E1
1.503410708E1,-5.065694350E-1,-3.150513707E0,-8.871155852E0,9.427606025E0
1.504407208E1,-1.606155880E0,-3.555424621E0,-2.971578091E0,4.904187730E0
1.505403808E1,-9.590076864E-2,-3.650529583E0,-1.932082897E0,4.131405029E0
1.506400308E1,-2.141025254E-1,-3.878473930E0,-3.623081876E0,5.311790865E0
1.507396808E1,-1.542200205E-1,-3.446561744E0,-4.599443806E0,5.749561287E0
1.508393408E1,1.570988386E0,-4.446800487E0,-7.481786077E0,8.844159767E0
1.509389908E1,4.073147619E0,-7.830788838E0,-8.563954836E0,1.229850023E1
1.510386508E1,3.369842182E0,-6.876910329E0,-2.090616700E0,7.938413581E0
1.511383008E1,2.310296300E-1,-3.784712657E0,1.924674767E0,4.252269693E0
1.512379508E1,-2.027702706E0,-2.776676652E0,2.639964365E0,4.334849864E0
1.513376108E1,-3.212583071E0,-3.348816764E0,2.116617807E0,5.100522978E0
1.514372608E1,-4.017934408E0,-4.574894856E0,1.104804208E0,6.188218822E0
1.515369208E1,-4.659738832E0,-5.454277498E0,5.201148024E-1,7.192553678E0
1.516365708E1,-4.593370888E0,-5.509290442E0,-8.791493386E-2,7.173497496E0
1.517362208E1,-3.535904276E0,-4.457561118E0,-4.974547952E-1,5.711386123E0
1.518358808E1,-1.991328640E0,-2.621416120E0,-5.656684130E-2,3.292478099E0
1.519355308E1,-6.578348574E-1,-8.562838018E-1,6.258362621E-1,1.248054356E0
1.520351808E1,2.324800318E-1,4.399550307E-1,1.191302069E0,1.291049191E0
1.521348408E1,7.741488406E-1,1.201823841E0,1.559851195E0,2.115850354E0
1.522344908E1,9.632475024E-1,1.406682796E0,1.810265222E0,2.486697089E0
1.523341508E1,8.080849108E-1,1.196505799E0,1.936781427E0,2.415729630E0
1.524338008E1,4.618394047E-1,7.830509341E-1,1.908937863E0,2.114357625E0
1.525334508E1,3.600890815E-2,3.550423497E-1,1.731321086E0,1.767717289E0
1.526331108E1,-2.468010324E-1,4.763609648E-2,1.452994790E0,1.474575806E0
1.527327608E1,-2.950598574E-1,-7.422455549E-2,1.242391824E0,1.279104002E0
1.528324208E1,-2.670701131E-1,-3.147497714E-2,1.216709683E0,1.246073662E0
1.529320708E1,-9.066254050E-2,1.369464684E-1,1.398652815E0,1.408262663E0
1.530317208E1,2.010734671E-1,4.034111023E-1,1.679550131E0,1.738982375E0
1.531313808E1,4.210913283E-1,6.535660976E-1,1.936087362E0,2.086360665E0
1.532310308E1,6.915335307E-1,9.399902022E-1,2.187532838E0,2.479334613E0
1.533306808E1,8.705065691E-1,1.262995657E0,2.406061998E0,2.853431978E0
1.534303408E1,1.041942547E0,1.604345582E0,2.646674922E0,3.265648046E0
1.535299908E1,1.157678825E0,1.897281146E0,2.872599056E0,3.632040934E0
1.536296488E1,1.214634214E0,2.117580843E0,3.023561885E0,3.886053444E0
1.537292988E1,1.149650306E0,2.254423231E0,3.204193778E0,4.083010862E0
1.538289487E1,1.037549241E0,2.371968638E0,3.439477550E0,4.304967998E0
1.539286087E1,9.217357796E-1,2.428190201E0,3.645561204E0,4.476139072E0
1.540282588E1,7.753621379E-1,2.387300622E0,3.869156392E0,4.612023622E0
1.541279187E1,6.275000873E-1,2.286347859E0,4.069033518E0,4.709371154E0
1.542275687E1,5.181369817E-1,2.110750710E0,4.304852895E0,4.822394938E0
1.543272187E1,4.752128640E-1,1.825631120E0,4.446028070E0,4.829691693E0
1.544268788E1,4.128134251E-1,1.521188235E0,4.409599916E0,4.682841017E0
1.545265288E1,3.102886382E-1,1.203496730E0,4.147243828E0,4.329470498E0
1.546261887E1,1.888548329E-1,8.485210383E-1,3.760779711E0,3.859937582E0
1.547258388E1,1.435801345E-1,5.155583596E-1,3.305360842E0,3.348406482E0
1.548254888E1,2.202850789E-1,2.256849825E-1,2.733864509E0,2.751994618E0
1.549251487E1,3.036795303E-1,-8.304975808E-2,2.022223281E0,2.046583865E0
1.550247987E1,3.206759244E-1,-3.939087921E-1,1.426359846E0,1.514100259E0
1.551244588E1,1.906619149E-1,-8.024812317E-1,8.495787996E-1,1.184108200E0
1.552241088E1,2.394083977E-2,-1.214778348E0,3.212682474E-1,1.256770816E0
1.553237587E1,-1.493390572E-1,-1.592828321E0,-1.123434314E-1,1.603753492E0
1.554234187E1,-2.585913581E-1,-1.882396474E0,-3.987681207E-1,1.941469029E0
1.555230688E1,-2.728647038E-1,-2.035257309E0,-5.015911156E-1,2.113840370E0
1.556227287E1,-1.598543975E-1,-2.058180733E0,-4.277659249E-1,2.108232683E0
1.557223787E1,-2.946411967E-2,-2.024751032E0,-2.292985618E-1,2.037906452E0
1.558220287E1,1.159970641E-1,-2.019532392E0,3.338906318E-2,2.023136483E0
1.559216888E1,3.030339977E-1,-2.016326948E0,3.436034417E-1,2.067720313E0
1.560213388E1,3.951343685E-1,-2.135245866E0,4.685306659E-1,2.221469573E0
1.561209887E1,4.008131844E-1,-2.372148732E0,4.590725023E-1,2.449181165E0
1.562206488E1,2.371282759E-1,-2.876416118E0,2.738900131E-1,2.899140432E0
1.563202988E1,-2.151482999E-2,-3.603396932E0,2.253809273E-2,3.603531643E0
1.564199587E1,-3.505277145E-1,-4.329978966E0,-2.426182267E-1,4.350913826E0
1.565196087E1,-6.668217355E-1,-4.918362057E0,-4.485527766E-1,4.983586675E0
1.566192587E1,-8.697534478E-1,-5.223147004E0,-6.040273172E-1,5.329407536E0
1.567189188E1,-9.174459699E-1,-5.207969971E0,-6.979245374E-1,5.334018840E0
1.568185687E1,-8.026499239E-1,-4.615565749E0,-6.303237078E-1,4.727050038E0
1.569182288E1,-1.242971867E-1,-3.149399813E0,-2.313848484E-1,3.160333514E0
1.570178788E1,7.727595422E-1,-1.450865527E0,3.191854692E-1,1.674529024E0
1.571175288E1,1.407600809E0,-1.068935341E-1,7.185175538E-1,1.583992973E0
1.572171887E1,1.723979614E0,7.514461488E-1,9.092949513E-1,2.088921811E0
1.573168387E1,1.930605597E0,1.325633955E0,1.014706216E0,2.552287613E0
1.574164988E1,1.955241671E0,1.633941849E0,9.661515221E-1,2.725102699E0
1.575161488E1,1.732579114E0,1.665850105E0,8.283469748E-1,2.542252086E0
1.576157987E1,7.849354917E-1,1.263364032E0,-4.064984322E-2,1.487906184E0
1.577154588E1,-3.134420416E0,-1.224818602E0,-1.374337051E1,1.414938179E1
1.578151088E1,-9.580003865E0,-3.788916805E0,-3.201500492E1,3.363172468E1
1.579147687E1,-6.452318857E0,-1.421696692E0,-1.501119656E1,1.640090431E1
1.580144187E1,-2.971490090E0,1.738471938E0,-5.609895880E0,6.582018674E0
1.581140688E1,-9.159312487E-2,4.130174344E0,2.995265454E-2,4.131298413E0
1.582137288E1,6.148388189E-1,4.398856827E0,2.780486113E0,5.240140378E0
1.583133787E1,8.885820669E-1,4.360904889E0,4.218860818E0,6.132361384E0
1.584130287E1,2.689002916E-1,4.867560863E0,4.789851075E0,6.834334601E0
1.585126888E1,1.459436668E0,5.735690539E0,5.246234150E0,7.908923701E0
1.586123388E1,1.814347748E0,5.004706137E0,4.943320897E0,7.264665357E0
1.587119987E1,1.364386377E-1,4.257391046E0,4.452582799E0,6.161938623E0
1.588116487E1,-1.468917051E-1,3.560028133E0,4.195014119E0,5.503955027E0
1.589112988E1,-5.960420671E-1,2.681219103E0,3.913045008E0,4.780807804E0
1.590109588E1,-8.966357294E-1,1.827510415E0,3.181304268E0,3.776830257E0
1.591106087E1,-1.217553144E0,1.337941759E0,2.512490678E0,3.095986631E0
1.592102688E1,-1.382552799E0,1.408835741E0,2.417937401E0,3.121328509E0
1.593099188E1,-1.500461025E0,1.557890623E0,2.360116332E0,3.201336530E0
1.594095688E1,-1.428424498E0,1.771734994E0,2.106640995E0,3.101189726E0
1.595092287E1,-1.185103728E0,1.971012197E0,1.907393906E0,2.987894147E0
1.596088788E1,-9.883805895E-1,2.102921873E0,1.991764257E0,3.060441382E0
1.597085288E1,-7.478080112E-1,2.142515125E0,2.012775350E0,3.033290703E0
1.598081887E1,-6.425587142E-1,2.071947418E0,1.850125691E0,2.851107307E0
1.599078387E1,-5.203314418E-1,1.986515504E0,1.680786525E0,2.653682724E0
1.600074988E1,-5.950196815E-1,1.882948451E0,1.366999497E0,2.401714162E0
1.601071488E1,-7.993032700E-1,1.720476547E0,9.020490816E-1,2.100623196E0
1.602067988E1,-8.777869374E-1,1.695713589E0,3.548287801E-1,1.942127171E0
1.603064587E1,-9.286489427E-1,1.741977929E0,-5.339618862E-1,2.044991750E0
1.604061088E1,-9.057430601E-1,1.760945127E0,-2.117184402E0,2.898925322E0
1.605057688E1,1.639793158E-2,2.092154810E0,-5.844068681E0,6.207295658E0
1.606054187E1,5.684323919E-1,1.497173721E0,-8.340255568E0,8.492614878E0
1.607050687E1,1.433632028E-1,-1.246345711E-1,-7.831513892E0,7.833817501E0
1.608047288E1,-1.448892969E0,-1.739209272E0,-5.476032064E0,5.925459214E0
1.609043788E1,-3.069069302E0,-2.576918809E0,-2.965813029E0,4.985553515E0
1.610040387E1,-3.089546544E0,-2.247158650E0,-1.242427199E0,4.017293267E0
1.611036888E1,-2.011806466E0,-2.017411607E0,-1.350551280E0,3.152983287E0
1.612033388E1,-4.350652966E-1,-2.258886995E0,-2.739076717E0,3.576925150E0
1.613029987E1,9.834917325E-1,-2.719195599E0,-4.491355101E0,5.341680572E0
1.614026487E1,2.447352404E0,-3.688468072E0,-5.440785048E0,7.014019707E0
1.615023088E1,3.800289640E0,-6.268713947E0,-5.999257293E0,9.472595418E0
1.616019588E1,3.017545392E0,-7.437424421E0,-2.457620991E0,8.394090967E0
1.617016088E1,8.183441430E-2,-7.024626784E0,4.725848329E-1,7.040981093E0
1.618012687E1,-1.458136247E0,-5.068119775E0,1.666179303E0,5.530655733E0
1.619009188E1,-1.738140986E0,-3.922957792E0,1.379563117E0,4.507097328E0
1.620005688E1,-2.188943479E0,-4.214253797E0,8.135859713E-1,4.818021456E0
1.621002287E1,-2.554801716E0,-4.426651567E0,5.798917651E-1,5.143785606E0
1.621998787E1,-2.569351050E0,-4.029267190E0,5.483925220E-1,4.810124038E0
1.622995388E1,-2.073208662E0,-3.155111958E0,5.908693278E-1,3.821263166E0
1.623991888E1,-1.124446467E0,-1.969222364E0,7.739941818E-1,2.396097571E0
1.624988387E1,-1.947441486E-1,-8.692026401E-1,1.034939044E0,1.365480625E0
1.625984988E1,5.675699276E-1,-5.371252298E-3,1.227467390E0,1.352346356E0
1.626981488E1,1.004526214E0,5.130504888E-1,1.306311539E0,1.725903692E0
1.627978087E1,1.148167452E0,6.551758361E-1,1.308605401E0,1.860105365E0
1.628974587E1,1.032153138E0,5.316341096E-1,1.217460758E0,1.682315554E0
1.629971087E1,7.170689061E-1,2.401042163E-1,1.094785589E0,1.330561286E0
1.630967688E1,4.863418695E-1,-1.033787727E-3,9.819927987E-1,1.095828152E0
1.631964187E1,4.054596743E-1,-1.163280165E-1,8.970134595E-1,9.912431092E-1
1.632960787E1,3.945908698E-1,-1.280768269E-1,8.862148216E-1,9.785102648E-1
1.633957288E1,5.257778308E-1,-3.719764709E-2,9.830479288E-1,1.115441268E0
1.634953788E1,7.096657464E-1,1.127173609E-1,1.213794554E0,1.410541702E0
1.635950387E1,9.164513585E-1,3.096843284E-1,1.470709515E0,1.760333478E0
1.636946887E1,1.147450583E0,5.748847944E-1,1.668480767E0,2.104985377E0
1.637943488E1,1.384508985E0,8.925634360E-1,1.871068663E0,2.492876362E0
1.638939988E1,1.601314970E0,1.143406649E0,1.990944770E0,2.799187288E0
1.639936487E1,1.719549764E0,1.331557769E0,2.104909634E0,3.026638738E0
1.640933088E1,1.843293804E0,1.476156489E0,2.156431206E0,3.197962722E0
1.641929588E1,2.111143643E0,1.611447026E0,2.199927473E0,3.448676541E0
1.642926088E1,2.205045834E0,1.711633803E0,2.197406154E0,3.552535884E0
1.643922687E1,2.351099340E0,1.766592953E0,2.195884124E0,3.670207876E0
1.644919187E1,2.470042816E0,1.776105788E0,2.157575798E0,3.729718033E0
1.645915788E1,2.421402753E0,1.652679836E0,2.059408356E0,3.582695174E0
1.646912287E1,2.406008788E0,1.509417790E0,2.001631434E0,3.474730026E0
1.647908787E1,2.461899399E0,1.415538404E0,1.958885071E0,3.449917151E0
1.648905388E1,2.475070837E0,1.268958063E0,1.906758313E0,3.372233307E0
