"Time (s)","Linear Acceleration x (m/s^2)","Linear Acceleration y (m/s^2)","Linear Acceleration z (m/s^2)","Absolute acceleration (m/s^2)"
6.452916685E-3,-2.781783611E-1,-2.848810244E-1,-1.023683739E-1,4.111200343E-1
1.641891667E-2,-6.049295425E-2,-1.247181863E-1,6.742015064E-2,1.541411697E-1
2.638491668E-2,-7.756331563E-4,-9.034123600E-2,2.973104507E-1,3.107340416E-1
3.634991669E-2,-2.145505683E-1,-2.422916597E-1,4.806107211E-1,5.794168275E-1
4.631591667E-2,-3.941374183E-1,-2.334834141E-1,5.131732804E-1,6.878994293E-1
5.628191668E-2,-3.261297686E-1,-1.559744775E-1,4.260790032E-1,5.587772191E-1
6.624691669E-2,-2.298103394E-1,-2.163908333E-1,4.279349095E-1,5.317575308E-1
7.621291667E-2,-1.410924366E-1,-3.262050515E-1,4.849581259E-1,6.012496946E-1
8.617891668E-2,3.773646802E-3,-4.455625105E-1,4.767527282E-1,6.525590816E-1
9.614391669E-2,1.764735000E-1,-4.570990670E-1,3.798626107E-1,6.199823032E-1
1.061099167E-1,2.875769562E-1,-3.813969201E-1,5.958955944E-2,4.813678760E-1
1.160759167E-1,3.066844875E-1,-3.115723944E-1,-4.267221969E-1,6.109210793E-1
1.260409167E-1,2.397280211E-1,-2.738309562E-1,-6.232687497E-1,7.217456969E-1
1.360069167E-1,1.288626927E-1,-2.209072226E-1,-6.104434669E-1,6.618510564E-1
1.459729167E-1,-8.945991442E-2,-1.196813947E-1,-6.334955299E-1,6.508788665E-1
1.559379167E-1,-3.329396553E-1,-2.312398374E-2,-6.736904597E-1,7.518260226E-1
1.659039167E-1,-4.794146731E-1,6.492982149E-2,-7.320450872E-1,8.774647117E-1
1.758699167E-1,-4.863891589E-1,1.257630837E-1,-6.806942546E-1,8.460114866E-1
1.858349167E-1,-4.437654418E-1,1.206391686E-1,-5.499224460E-1,7.168655892E-1
1.958009167E-1,-3.480285414E-1,1.123472321E-1,-4.581006950E-1,5.861757526E-1
2.057669167E-1,-1.928586408E-1,7.344921470E-2,-4.559448266E-1,5.004747020E-1
2.157319167E-1,-3.855661310E-2,-1.343748629E-2,-5.381636953E-1,5.397104237E-1
2.256979167E-1,1.538809551E-1,-7.512561142E-2,-6.806644338E-1,7.018741179E-1
2.356629167E-1,3.187526290E-1,-1.404337478E-1,-6.635315073E-1,7.493990507E-1
2.456289167E-1,3.488946602E-1,-1.660346121E-1,-4.677135175E-1,6.066719961E-1
2.555949167E-1,3.163353901E-1,-1.375194955E-1,-3.299981403E-1,4.773661732E-1
2.655599167E-1,2.422423238E-1,-5.574618459E-2,-2.228549302E-1,3.338462228E-1
2.755259167E-1,1.443977214E-2,-6.495964229E-2,-6.464857042E-2,9.277769022E-2
2.854919167E-1,-1.803871876E-1,7.606350482E-2,-2.795682442E-1,3.412969343E-1
2.954569167E-1,-4.414860510E-1,2.542065310E-1,-7.538908696E-1,9.098803971E-1
3.054229167E-1,-8.641994700E-1,3.673659414E-1,-1.080965402E0,1.431881510E0
3.153889167E-1,-1.046082522E0,3.954308224E-1,-1.325604719E0,1.734324666E0
3.253539167E-1,-1.139538862E0,3.850239480E-1,-1.311372011E0,1.779463068E0
3.353199167E-1,-1.145939224E0,3.211366850E-1,-7.163944298E-1,1.389073956E0
3.452859167E-1,-1.109145035E0,6.834389377E-1,-3.262980223E-2,1.303209958E0
3.552511667E-1,-5.975916523E-1,6.670111853E-1,3.310342669E-2,8.961671391E-1
3.652171667E-1,-5.328440447E-1,4.806177378E-1,-4.934482831E-1,8.708658874E-1
3.751831667E-1,-1.481285520E0,9.055050784E-1,-8.034243876E-1,1.913017769E0
3.851481667E-1,-1.377900754E0,1.193224926E0,-5.664677274E-1,1.908738300E0
3.951141667E-1,1.759463735E-2,5.144105512E-1,-1.256712239E0,1.358032930E0
4.050801667E-1,7.971062518E-1,1.349420428E-2,-1.458365750E0,1.662044263E0
4.150451667E-1,6.596433281E-1,4.966665906E-1,-1.395994086E0,1.621914458E0
4.250111667E-1,3.676242422E-1,1.130610602E0,-8.846667713E-1,1.481912012E0
4.349771667E-1,7.276516356E-2,1.110867186E0,-3.594587517E-1,1.169842412E0
4.449421667E-1,-2.215778252E-1,7.670634770E-1,-2.074247128E-1,8.249291617E-1
4.549081667E-1,-5.884787668E-1,7.396224940E-1,-1.099159598E-2,9.452351600E-1
4.648741667E-1,-8.215193273E-1,7.312171215E-1,2.142033899E-1,1.120471140E0
4.748391667E-1,-9.305055068E-1,5.485661843E-1,2.559115791E-1,1.110070310E0
4.848051667E-1,-9.965389171E-1,3.555583665E-1,1.072584003E-1,1.063492327E0
4.947711667E-1,-1.035088806E0,3.058807147E-1,-3.826476395E-2,1.080016685E0
5.047361667E-1,-1.114662979E0,3.493506700E-1,-9.341511726E-3,1.168163820E0
5.147021667E-1,-1.283292366E0,3.679182109E-1,-6.680443883E-2,1.336662239E0
5.246681667E-1,-1.229477371E0,3.410452849E-1,-1.251690066E-1,1.282027212E0
5.346331667E-1,-8.627151543E-1,2.899812582E-1,-1.177927440E-1,9.177372707E-1
5.445991667E-1,-4.672494679E-1,2.460423562E-1,-4.604682326E-3,5.280910048E-1
5.545641667E-1,-2.781503675E-1,2.261217695E-1,2.390002620E-1,4.308361717E-1
5.645301667E-1,-1.822354194E-1,1.506812856E-1,5.489985859E-1,5.977575138E-1
5.744961667E-1,-5.388092279E-2,5.362803072E-2,7.342307764E-1,7.381557780E-1
5.844611667E-1,2.377246919E-1,2.509917319E-2,6.030116558E-1,6.486648246E-1
5.944271667E-1,4.848860590E-1,-2.974800199E-2,4.738367218E-1,6.786167348E-1
6.043931667E-1,7.459803177E-1,-1.245170420E-1,3.419369853E-1,8.300072470E-1
6.143581667E-1,8.594814979E-1,-2.176324895E-1,2.482949960E-1,9.207186056E-1
6.243241667E-1,5.735275825E-1,-2.633419284E-1,4.657207865E-1,7.843332902E-1
6.342901667E-1,2.358825266E-1,-1.098712286E-1,6.198048592E-1,6.722129995E-1
6.442551667E-1,3.648187481E-2,4.409853101E-2,4.784683013E-1,4.818791581E-1
6.542211667E-1,-2.484460004E-2,2.051238334E-1,1.591191101E-1,2.607909745E-1
6.641871667E-1,-8.337230511E-2,3.891123211E-1,-1.002680540E-1,4.103815571E-1
6.741521667E-1,-1.414832499E-1,5.081929144E-1,-2.222088128E-1,5.724109579E-1
6.841181667E-1,-1.168003254E-1,4.474128619E-1,-1.116198385E-1,4.756885255E-1
6.940841667E-1,-5.437691286E-3,2.646736318E-1,4.556852102E-2,2.686227652E-1
7.040491667E-1,2.538498509E-1,9.319584668E-3,1.866437083E-1,3.152181393E-1
7.140151667E-1,5.121750145E-1,-2.072937351E-1,2.675563091E-1,6.139057881E-1
7.239811667E-1,7.082170987E-1,-4.657219559E-1,3.240480137E-1,9.074555164E-1
7.339461667E-1,8.608498925E-1,-7.394333366E-1,4.325524557E-1,1.214465242E0
7.439121667E-1,8.231183946E-1,-9.482315603E-1,3.887053549E-1,1.314442405E0
7.538781667E-1,5.524333866E-1,-1.002163061E0,3.278791094E-1,1.190385719E0
7.638431667E-1,3.695873717E-1,-8.674154386E-1,5.197777104E-1,1.076649078E0
7.738091667E-1,5.321567045E-1,-7.917436972E-1,6.025830549E-1,1.128341783E0
7.837751667E-1,4.084992032E-1,-7.399879450E-1,6.018217474E-1,1.037614174E0
7.937401667E-1,4.583381651E-1,-6.324468318E-1,3.144118023E-1,8.419724758E-1
8.037061667E-1,7.359867684E-1,-7.682261959E-1,-2.965473890E-2,1.064296676E0
8.136721667E-1,1.077780789E0,-6.809214190E-1,-3.436326778E-1,1.320359355E0
8.236371667E-1,1.561175589E0,-4.306947953E-1,-4.797488415E-1,1.689060738E0
8.336031667E-1,1.639509275E0,-5.134378669E-1,-6.629818690E-1,1.841508638E0
8.435691667E-1,1.427008595E0,-5.817064485E-1,-8.168741530E-1,1.744138556E0
8.535341667E-1,1.149465533E0,-3.368411368E-1,-1.007502154E0,1.565181636E0
8.635001667E-1,7.939722173E-1,-3.054965526E-2,-1.002706853E0,1.279353819E0
8.734651667E-1,4.971266934E-1,9.293681502E-2,-7.987150401E-1,9.453665512E-1
8.834311667E-1,2.932153532E-1,3.782446861E-2,-5.363563210E-1,6.124410476E-1
8.933971667E-1,2.988815975E-1,-1.472153485E-2,-3.047288132E-1,4.270908364E-1
9.033621667E-1,3.930024006E-1,-1.494109780E-2,-1.336626720E-1,4.153791439E-1
9.133281667E-1,5.544410281E-1,-4.730836004E-2,5.776405871E-2,5.594458160E-1
9.232941667E-1,6.737874504E-1,-1.347002605E-1,2.463133746E-1,7.299342210E-1
9.332591667E-1,6.881767903E-1,-3.355395466E-1,3.432783365E-1,8.390554799E-1
9.432251667E-1,8.143895980E-1,-4.772096881E-1,3.749901259E-1,1.015665840E0
9.531911667E-1,9.996375760E-1,-5.552399039E-1,3.971902496E-1,1.210506806E0
9.631561667E-1,1.161208424E0,-6.012101287E-1,3.372188669E-1,1.350398158E0
9.731221667E-1,1.309203571E0,-5.797748208E-1,1.014749193E-1,1.435426764E0
9.830881667E-1,1.387491065E0,-5.524940515E-1,-1.869436705E-1,1.505101016E0
9.930531667E-1,1.350702576E0,-4.476467505E-1,-3.852356172E-1,1.474174869E0
1.003019167E0,1.076544761E0,-2.770209047E-1,-6.031964278E-1,1.264727296E0
1.012985167E0,7.970749692E-1,-1.350855920E-1,-8.403513086E-1,1.166090453E0
1.022950167E0,6.773342983E-1,-1.788487852E-2,-1.045323699E0,1.245713955E0
1.032916167E0,7.596636795E-1,9.657992274E-2,-1.236777327E0,1.454659666E0
1.042882167E0,8.899815249E-1,1.929066610E-1,-1.311342775E0,1.596527472E0
1.052847167E0,9.570984243E-1,2.455994296E-1,-1.157641110E0,1.522001779E0
1.062813167E0,9.584234034E-1,2.726153201E-1,-8.439485157E-1,1.305811483E0
1.072779167E0,9.469149866E-1,2.918082207E-1,-6.596530491E-1,1.190353802E0
1.082744167E0,9.969304613E-1,3.459338495E-1,-6.144148958E-1,1.221084042E0
1.092710167E0,9.960986949E-1,3.944350415E-1,-6.508325243E-1,1.253544808E0
1.102675167E0,9.467617895E-1,4.519394839E-1,-6.481784731E-1,1.233183894E0
1.112641167E0,8.736721786E-1,4.909947914E-1,-6.391889638E-1,1.188672155E0
1.122607167E0,8.018073401E-1,4.999919021E-1,-6.833705252E-1,1.166139866E0
1.132572167E0,7.460498265E-1,5.032832998E-1,-7.452451766E-1,1.168449741E0
1.142538167E0,7.732877650E-1,5.274972045E-1,-7.355955166E-1,1.190515868E0
1.152504167E0,8.339304811E-1,5.341010499E-1,-7.481208372E-1,1.241123993E0
1.162469167E0,8.611369177E-1,4.962543619E-1,-7.998189944E-1,1.275749037E0
1.172435167E0,8.908067132E-1,4.839491889E-1,-7.229748863E-1,1.245165091E0
1.182401167E0,8.638255405E-1,5.607938817E-1,-2.927116156E-1,1.070684095E0
1.192366167E0,7.469172610E-1,6.596317068E-1,2.096630269E-1,1.018311332E0
1.202332167E0,5.261312219E-1,6.897173855E-1,6.970986181E-1,1.112865948E0
1.212298167E0,1.280789465E-1,7.633227208E-1,1.133455857E0,1.372511556E0
1.222263167E0,-1.236873952E-1,8.075130531E-1,1.139524097E0,1.402102375E0
1.232229167E0,-2.706749216E-1,7.608709833E-1,9.004910910E-1,1.209575864E0
1.242195167E0,-2.364962650E-1,7.869264686E-1,5.829902047E-1,1.007502521E0
1.252160167E0,-1.280240558E-2,8.204392004E-1,3.262091446E-1,8.830044106E-1
1.262126167E0,1.687771024E-1,8.338030118E-1,1.658229429E-1,8.667239590E-1
1.272092167E0,2.874312875E-1,8.028095528E-1,5.438846111E-2,8.544460357E-1
1.282057167E0,3.094670313E-1,7.194288424E-1,8.392216265E-2,7.876488000E-1
1.292023167E0,2.690075149E-1,6.276217094E-1,1.065310067E-1,6.911026759E-1
1.301989167E0,2.464154086E-1,5.409037006E-1,8.670251369E-2,6.006785270E-1
1.311954167E0,2.746174067E-1,4.716884547E-1,7.255634487E-2,5.506079745E-1
1.321920167E0,3.369433900E-1,4.126040947E-1,6.243539929E-2,5.363498542E-1
1.331885167E0,4.033059986E-1,3.204034442E-1,2.935653090E-2,5.159223793E-1
1.341851167E0,4.057531314E-1,2.289573768E-1,7.069693029E-2,4.712272700E-1
1.351817167E0,2.780546194E-1,2.110882857E-1,3.306746632E-1,4.808517117E-1
1.361782292E0,5.309432611E-2,1.927938098E-1,5.628214037E-1,5.972908781E-1
1.371748292E0,-2.204051661E-1,1.706582978E-1,7.344740206E-1,7.855919926E-1
1.381714292E0,-4.645815296E-1,1.774580249E-1,9.211873108E-1,1.046858830E0
1.391679292E0,-5.512358037E-1,1.432287169E-1,9.710494423E-1,1.125749704E0
1.401645292E0,-5.746513443E-1,3.018361956E-2,9.160978943E-1,1.081836665E0
1.411611292E0,-6.865631781E-1,-6.979762852E-2,7.981484449E-1,1.055121626E0
1.421576292E0,-7.601139151E-1,-1.735658258E-1,7.498913741E-1,1.081774160E0
1.431542292E0,-7.090791245E-1,-2.326794219E-1,6.054575461E-1,9.609951916E-1
1.441508292E0,-7.039622992E-1,-2.838890442E-1,4.039975780E-1,8.598662402E-1
1.451473292E0,-7.365401343E-1,-3.111794615E-1,1.961097658E-1,8.232758146E-1
1.461439292E0,-7.580138145E-1,-3.787604105E-1,3.631120920E-4,8.473750783E-1
1.471405292E0,-6.194147037E-1,-4.672931027E-1,-4.315362096E-2,7.771098082E-1
1.481370292E0,-3.243464410E-1,-6.063936853E-1,7.272825301E-2,6.915224611E-1
1.491336292E0,-4.637470588E-2,-7.411152881E-1,3.520006281E-1,8.217706042E-1
1.501301292E0,1.225607099E-1,-6.858009204E-1,5.837918580E-1,9.089317705E-1
1.511267292E0,2.100183732E-1,-4.165223140E-1,5.616695023E-1,7.301172405E-1
1.521233292E0,3.062270525E-1,-1.528751609E-1,3.579367214E-1,4.952418794E-1
1.531198292E0,5.848506425E-1,7.159506261E-2,1.351098579E-1,6.045087268E-1
1.541164292E0,8.673116505E-2,-3.018341491E-1,1.004633510E-1,3.297256942E-1
1.551130292E0,-1.326897136E-1,-5.479338080E-1,-2.465653896E-1,6.153312193E-1
1.561095292E0,-2.575555969E-2,-3.270622534E-1,-4.780011088E-1,5.797569546E-1
1.571061292E0,1.282908350E-1,-4.060598910E-2,-5.353155166E-1,5.519692809E-1
1.581027292E0,1.600151959E-1,-1.446601152E-2,-4.476528901E-1,4.756124877E-1
1.590992292E0,1.497136079E-1,-1.481406704E-1,-2.738742256E-1,3.454951723E-1
1.600958292E0,1.700205311E-1,-2.528833061E-1,-5.775236428E-2,3.101488080E-1
1.610924292E0,1.762443622E-1,-2.860495904E-1,1.153608871E-1,3.552387615E-1
1.620889292E0,9.228792027E-2,-2.683284339E-1,1.492355615E-1,3.206063965E-1
1.630855292E0,-1.181741013E-2,-3.028562424E-1,5.567367911E-2,3.081576111E-1
1.640821292E0,-6.161350461E-2,-3.673381671E-1,-1.789902878E-1,4.132445718E-1
1.650786292E0,-1.395259493E-1,-3.775310335E-1,-5.093328291E-1,6.491664675E-1
1.660752292E0,-2.644880923E-1,-2.809218746E-1,-8.917968661E-1,9.716854949E-1
1.670717292E0,-3.890522775E-1,-2.041952956E-1,-1.305176886E0,1.377150717E0
1.680683292E0,-4.419813833E-1,-1.455983010E-1,-1.616276826E0,1.681932575E0
1.690649292E0,-4.710447494E-1,-1.456383544E-1,-1.780248540E0,1.847262448E0
1.700614292E0,-4.088466374E-1,-1.436166796E-1,-1.745003863E0,1.798004395E0
1.710580292E0,-3.228335105E-1,-1.061968383E-1,-1.571972473E0,1.608289992E0
1.720546292E0,-1.440656544E-1,-5.653555870E-2,-1.485196284E0,1.493237819E0
1.730511292E0,9.058952339E-2,-4.110154063E-2,-1.496332306E0,1.499635345E0
1.740477292E0,2.056149995E-1,1.892217457E-2,-1.604076025E0,1.617311186E0
1.750443292E0,1.399083389E-1,9.866387039E-2,-1.695137054E0,1.703760116E0
1.760408292E0,-8.930235023E-2,1.890565619E-1,-1.789295937E0,1.801470855E0
1.770374292E0,-4.375495958E-1,2.993698400E-1,-1.958009158E0,2.028514682E0
1.780340292E0,-7.472346917E-1,3.764683020E-1,-2.066103126E0,2.229096273E0
1.790305292E0,-7.987853529E-1,4.575630435E-1,-2.060666385E0,2.256937732E0
1.800271292E0,-6.739787275E-1,5.532454187E-1,-1.957615056E0,2.143031620E0
1.810237292E0,-4.734789087E-1,6.847387737E-1,-1.694380424E0,1.887849169E0
1.820202292E0,-2.662785098E-1,8.727302653E-1,-1.267081692E0,1.561428312E0
1.830168292E0,-2.828543794E-1,1.112990310E0,-8.297777885E-1,1.416786931E0
1.840133292E0,-4.240795844E-1,1.260027026E0,-4.332336563E-1,1.398285737E0
1.850099292E0,-5.883190647E-1,1.381567250E0,-8.877242804E-3,1.501641167E0
1.860065292E0,-7.560586517E-1,1.474680651E0,2.875298131E-1,1.681957521E0
1.870030292E0,-9.778348437E-1,1.514060479E0,4.763738286E-1,1.864261822E0
1.879996292E0,-1.413186946E0,1.575104826E0,6.354677957E-1,2.209495842E0
1.889962292E0,-2.082955532E0,1.769792841E0,6.878220105E-1,2.818504846E0
1.899927292E0,-2.619554074E0,1.963825676E0,7.221644622E-1,3.352640205E0
1.909893292E0,-2.615021020E0,2.066977869E0,9.712687129E-1,3.471900828E0
1.919859292E0,-2.083171148E0,2.092064763E0,1.374066442E0,3.256439097E0
1.929824292E0,-1.228752901E0,1.950972619E0,1.825210705E0,2.940666926E0
1.939790292E0,-2.955962663E-1,1.619094307E0,2.195124278E0,2.743613333E0
1.949756292E0,4.467152891E-1,1.138737647E0,2.446846327E0,2.735568483E0
1.959721292E0,1.050412677E0,6.909423772E-1,2.609564399E0,2.896652294E0
1.969687292E0,1.491093493E0,4.016350105E-1,2.575152365E0,3.002678836E0
1.979652292E0,1.770861274E0,1.648081586E-1,2.340105990E0,2.939252869E0
1.989618292E0,1.915695344E0,1.720104665E-2,1.935618415E0,2.723380836E0
1.999584292E0,2.003627235E0,-1.506301224E-2,1.423217552E0,2.457701607E0
2.009549292E0,2.003957164E0,3.522041112E-2,9.400925285E-1,2.213788326E0
2.019515292E0,1.767919540E0,4.314046472E-2,6.814426982E-1,1.895195174E0
2.029481292E0,1.388567683E0,1.845322788E-2,6.281277859E-1,1.524140823E0
2.039446292E0,9.602136015E-1,3.807122111E-3,7.986349332E-1,1.248936512E0
2.049412292E0,5.874954113E-1,-7.813517332E-2,1.065602428E0,1.219329528E0
2.059378292E0,3.774651061E-1,-2.162186328E-1,1.278031772E0,1.350035412E0
2.069343292E0,3.389853839E-1,-3.405821854E-1,1.398387351E0,1.478646171E0
2.079309292E0,3.274236844E-1,-5.752558002E-1,1.460671892E0,1.603648303E0
2.089275292E0,3.417172761E-1,-8.219024661E-1,1.414878253E0,1.671578545E0
2.099240292E0,5.866556049E-1,-8.918623549E-1,1.168191826E0,1.582483934E0
2.109206292E0,8.857657555E-1,-8.524082673E-1,6.924822414E-1,1.410926108E0
2.119172292E0,1.230061215E0,-8.099302921E-1,1.643664014E-1,1.481908899E0
2.129137292E0,1.550160019E0,-7.227205324E-1,-3.797164303E-1,1.752000463E0
2.139103292E0,1.741530909E0,-6.229538772E-1,-8.486549395E-1,2.034997948E0
2.149068292E0,1.763778834E0,-5.078739488E-1,-1.126584794E0,2.153612087E0
2.159034292E0,1.723534934E0,-4.610930076E-1,-1.175173987E0,2.136401958E0
2.169000292E0,1.653998822E0,-4.862939224E-1,-1.174712057E0,2.086178875E0
2.178965292E0,1.536330477E0,-5.542204419E-1,-1.119047733E0,1.979833191E0
2.188931292E0,1.473095764E0,-6.656172091E-1,-9.991342038E-1,1.900349061E0
2.198897292E0,1.552937447E0,-7.649476621E-1,-8.164782965E-1,1.914000117E0
2.208862292E0,1.627111862E0,-8.096323764E-1,-6.033291596E-1,1.914942211E0
2.218828292E0,1.590830913E0,-8.405118147E-1,-3.659234333E-1,1.836056389E0
2.228794292E0,1.394310965E0,-8.589551023E-1,-9.335430622E-2,1.640311544E0
2.238759292E0,1.241385225E0,-8.516723952E-1,1.284732682E-1,1.510923071E0
2.248725292E0,1.248856505E0,-8.361860445E-1,2.120340729E-1,1.517830069E0
2.258690292E0,1.303292475E0,-8.319029590E-1,1.238750178E-1,1.551121797E0
2.268656292E0,1.348693327E0,-8.203713727E-1,-1.305659866E-1,1.583991905E0
2.278622292E0,1.433158404E0,-8.299897501E-1,-5.057783067E-1,1.731657498E0
2.288587292E0,1.455586715E0,-8.124437177E-1,-8.668000191E-1,1.878866614E0
2.298553292E0,1.342570269E0,-7.292536265E-1,-1.233580654E0,1.963676911E0
2.308519292E0,1.131249995E0,-6.076645777E-1,-1.501839799E0,1.975982179E0
2.318484292E0,9.945514485E-1,-4.738966557E-1,-1.592098004E0,1.936100896E0
2.328450292E0,1.049544366E0,-3.338660735E-1,-1.659582474E0,1.991789125E0
2.338416292E0,1.163696414E0,-2.577932131E-1,-1.762339688E0,2.127554432E0
2.348381292E0,1.188777607E0,-1.573058885E-1,-1.782979774E0,2.148709896E0
2.358347292E0,1.151094933E0,-2.228724718E-2,-1.688029763E0,2.043272069E0
2.368313292E0,1.119129959E0,8.808216423E-2,-1.566596543E0,1.927286969E0
2.378278292E0,1.109541841E0,1.321277779E-1,-1.480206270E0,1.854602774E0
2.388244292E0,1.176383264E0,1.246462655E-1,-1.384125407E0,1.820773851E0
2.398209292E0,1.201647402E0,9.693747997E-2,-1.156423720E0,1.670529609E0
2.408175292E0,1.170348353E0,1.495811319E-1,-8.757316411E-1,1.469352132E0
2.418141292E0,1.141509958E0,2.360822091E-1,-6.821303308E-1,1.350585644E0
2.428106292E0,1.026696078E0,3.622250694E-1,-5.341735554E-1,1.212704921E0
2.438072292E0,8.417389990E-1,4.276179904E-1,-5.745573503E-1,1.105213933E0
2.448038292E0,8.174196251E-1,4.264567333E-1,-7.433746523E-1,1.184333594E0
2.458003292E0,8.154843429E-1,4.512158909E-1,-7.485669798E-1,1.195392411E0
2.467969292E0,6.005497953E-1,5.654731160E-1,-3.252303207E-1,8.866761884E-1
2.477935292E0,1.678901894E-1,7.774226967E-1,6.324149644E-1,1.016130824E0
2.487900292E0,-1.342610249E-1,9.195343029E-1,1.835937422E0,2.057725826E0
2.497866292E0,-1.737727442E-1,8.659679604E-1,2.848440115E0,2.982232144E0
2.507832292E0,-8.998521365E-2,5.695974496E-1,3.609364015E0,3.655139832E0
2.517797292E0,-2.896860469E-2,1.671325730E-1,3.861846203E0,3.865569631E0
2.527763292E0,9.469693657E-3,-1.879224944E-1,3.619416549E0,3.624304167E0
2.537728292E0,5.604037262E-2,-3.032526836E-1,2.860644423E0,2.877219010E0
2.547694292E0,2.455193410E-1,-2.144592056E-1,1.741073949E0,1.771330290E0
2.557660292E0,3.726598643E-1,-7.370649219E-2,6.544876188E-1,7.567443852E-1
2.567625292E0,3.127670902E-1,-7.403422862E-2,-1.249900818E-1,3.448577101E-1
2.577591292E0,1.820464264E-1,-1.253850612E-1,-5.879726171E-1,6.281513460E-1
2.587557292E0,-1.220989991E-3,-1.704138842E-1,-7.508409619E-1,7.699380059E-1
2.597522292E0,-1.912307759E-1,-3.100874940E-1,-5.445780909E-1,6.552013131E-1
2.607488292E0,-3.979515570E-1,-4.839550361E-1,-3.728535533E-2,6.276687952E-1
2.617454292E0,-5.823705095E-1,-6.758969066E-1,5.945589209E-1,1.072143810E0
2.627419292E0,-6.736623931E-1,-8.024476102E-1,1.248647760E0,1.629989084E0
2.637385292E0,-6.666609371E-1,-9.060851222E-1,1.894089736E0,2.202953241E0
2.647350292E0,-6.505622368E-1,-9.534914231E-1,2.413501410E0,2.675325434E0
2.657316292E0,-6.321046966E-1,-9.782488266E-1,2.689385324E0,2.930754261E0
2.667282292E0,-6.447444034E-1,-1.126542986E0,2.719641157E0,3.013509991E0
2.677247292E0,-6.455138969E-1,-1.272101819E0,2.470997082E0,2.853201326E0
2.687213292E0,-6.537302582E-1,-1.308608325E0,1.932606515E0,2.423795977E0
2.697179292E0,-6.124117859E-1,-1.159191792E0,1.146726113E0,1.741767661E0
2.707144292E0,-5.909200889E-1,-9.060333744E-1,1.258741808E-1,1.089002909E0
2.717110292E0,-6.621894251E-1,-6.628725260E-1,-8.432374942E-1,1.260533336E0
2.727076292E0,-7.797827791E-1,-4.370179743E-1,-1.599095952E0,1.831980828E0
2.737041292E0,-8.649216742E-1,-2.273447147E-1,-2.032281661E0,2.220347692E0
2.747007292E0,-8.571584722E-1,-4.665639549E-2,-2.238179081E0,2.397153117E0
2.756972292E0,-7.958583098E-1,1.035612059E-1,-2.261110691E0,2.399320098E0
2.766938292E0,-7.001327384E-1,3.205984488E-1,-2.189588719E0,2.321048895E0
2.776904292E0,-6.961348508E-1,5.453332588E-1,-2.053048047E0,2.235396694E0
2.786869292E0,-8.582971443E-1,6.102516782E-1,-1.823865845E0,2.106078754E0
2.796835292E0,-9.754649672E-1,5.618191910E-1,-1.360948799E0,1.766169397E0
2.806801292E0,-1.061061626E0,4.970542610E-1,-8.098580790E-1,1.424354177E0
2.816766292E0,-1.203343679E0,3.806192404E-1,-2.367052299E-1,1.284109178E0
2.826732292E0,-1.257113505E0,2.028878582E-1,2.957492441E-1,1.307274058E0
2.836698292E0,-1.104072502E0,-3.862495244E-2,7.004250991E-1,1.308076181E0
2.846663292E0,-8.084267537E-1,-2.362897852E-1,8.194767487E-1,1.175129278E0
2.856629292E0,-4.303123143E-1,-3.564638078E-1,5.633295268E-1,7.934578060E-1
2.866594292E0,-1.104578505E-1,-4.045583260E-1,3.952133060E-2,4.212247755E-1
2.876560292E0,5.195000773E-2,-4.424073529E-1,-5.061519438E-1,6.742498494E-1
2.886526292E0,1.596025287E-1,-3.304767349E-1,-9.596228135E-1,1.027406338E0
2.896491292E0,2.049367042E-1,-1.597848156E-1,-1.330184258E0,1.355330366E0
2.906457292E0,7.745207235E-2,1.115268677E-2,-1.561339896E0,1.563299548E0
2.916423292E0,-1.389044268E-1,1.552783665E-1,-1.685452895E0,1.698280681E0
2.926388292E0,-3.646675976E-1,2.631682661E-1,-1.794646724E0,1.850134281E0
2.936354292E0,-5.953574312E-1,4.098518103E-1,-1.889956339E0,2.023453469E0
2.946320292E0,-7.799962755E-1,5.531568334E-1,-1.897177066E0,2.124537006E0
2.956285292E0,-9.136224025E-1,7.030420205E-1,-1.820477384E0,2.154788129E0
2.966251292E0,-9.256541450E-1,7.923187709E-1,-1.581151432E0,1.996157429E0
2.976216292E0,-8.569977468E-1,8.205380183E-1,-1.320190782E0,1.775001825E0
2.986182292E0,-6.038242726E-1,8.775211814E-1,-1.101610166E0,1.532381198E0
2.996148292E0,-2.963547233E-1,9.599517193E-1,-8.946731114E-1,1.345278188E0
3.006113292E0,-8.265453198E-2,9.671280071E-1,-6.511114365E-1,1.168808991E0
3.016079292E0,1.599961970E-2,9.515454698E-1,-2.919848067E-1,9.954646634E-1
3.026045292E0,3.274120996E-2,8.676159981E-1,2.723182815E-1,9.099377745E-1
3.036010292E0,-5.476036230E-2,7.650494036E-1,9.167545366E-1,1.195298359E0
3.045976292E0,-1.413861313E-1,6.245668316E-1,1.528751609E0,1.657454448E0
3.055941292E0,-1.024752135E-1,4.748447818E-1,1.978637550E0,2.037396695E0
3.065907292E0,6.125999931E-2,4.120255128E-1,2.141364977E0,2.181504476E0
3.075873292E0,1.676781730E-1,4.400243202E-1,2.056328920E0,2.109555877E0
3.085838292E0,2.822183485E-1,5.087276423E-1,1.833158240E0,1.923257691E0
3.095804292E0,3.429879492E-1,4.872017026E-1,1.559162977E0,1.669130139E0
3.105770292E0,4.328371420E-1,3.923639578E-1,1.296663340E0,1.422193125E0
3.115735292E0,5.931833634E-1,3.336263376E-1,1.077734231E0,1.274630969E0
3.125701292E0,6.633479047E-1,3.902846879E-1,8.848644072E-1,1.172747884E0
3.135667292E0,6.343729046E-1,4.896139714E-1,6.255748916E-1,1.016609447E0
3.145632292E0,6.283045180E-1,5.145786586E-1,3.313997179E-1,8.771451056E-1
3.155598292E0,6.484566544E-1,4.498233765E-1,3.809344053E-2,7.901191131E-1
3.165564292E0,6.009470040E-1,2.994745052E-1,-1.182055575E-1,6.817586337E-1
3.175529292E0,4.636658191E-1,1.442703983E-1,1.285188764E-1,5.023116972E-1
3.185495292E0,2.987298623E-1,6.389164835E-2,7.285203856E-1,7.899769779E-1
3.195460292E0,1.735872412E-1,-5.354938567E-2,1.444865114E0,1.456240112E0
3.205426292E0,1.861079572E-1,-2.492378595E-1,1.883105741E0,1.908623304E0
3.215392292E0,1.812318179E-1,-4.880384392E-1,2.055753554E0,2.120648289E0
3.225357292E0,1.650485522E-1,-7.689331242E-1,2.000907256E0,2.149913724E0
3.235323292E0,2.741785001E-1,-9.062076214E-1,1.765089049E0,2.002979144E0
3.245289292E0,4.342394139E-1,-9.164528203E-1,1.373304550E0,1.707165788E0
3.255254292E0,5.920620867E-1,-8.446756169E-1,8.021508640E-1,1.306698290E0
3.265220292E0,7.568023445E-1,-7.455083013E-1,1.645003027E-1,1.074985007E0
3.275186292E0,1.020087189E0,-6.509971234E-1,-4.772117347E-1,1.300809813E0
3.285151292E0,1.262389301E0,-5.559091178E-1,-1.041293213E0,1.728280432E0
3.295117292E0,1.467402184E0,-4.410908523E-1,-1.444198532E0,2.105597233E0
3.305082292E0,1.590663828E0,-3.271865067E-1,-1.656412114E0,2.319690392E0
3.315048292E0,1.579213372E0,-2.795641512E-1,-1.740959344E0,2.367067896E0
3.325014292E0,1.432303248E0,-2.959720230E-1,-1.672652171E0,2.221903985E0
3.334979292E0,1.152198595E0,-3.616032180E-1,-1.520395353E0,1.941628316E0
3.344945292E0,8.958015510E-1,-4.658055711E-1,-1.331866502E0,1.671317932E0
3.354911167E0,8.029810224E-1,-5.173288965E-1,-1.106541708E0,1.461794193E0
3.364876167E0,7.779205871E-1,-5.060171655E-1,-9.257627571E-1,1.310820542E0
3.374842167E0,8.011144450E-1,-5.289426363E-1,-8.114075911E-1,1.256959405E0
3.384807167E0,8.452207236E-1,-6.195239004E-1,-7.211821300E-1,1.272128767E0
3.394773167E0,9.160201994E-1,-7.556172600E-1,-5.797701430E-1,1.321432506E0
3.404739167E0,1.139335525E0,-8.025695246E-1,-5.552972066E-1,1.500186078E0
3.414704167E0,1.404568150E0,-7.798653710E-1,-6.692986161E-1,1.740391428E0
3.424670167E0,1.558252566E0,-7.994497427E-1,-9.438873714E-1,1.989521128E0
3.434636167E0,1.605700090E0,-8.503941938E-1,-1.302024068E0,2.235332131E0
3.444601167E0,1.614023601E0,-7.978981841E-1,-1.657441809E0,2.447208010E0
3.454567167E0,1.559022937E0,-6.270738253E-1,-1.878755413E0,2.520614211E0
3.464533167E0,1.393603744E0,-4.536413160E-1,-1.995849999E0,2.476154086E0
3.474498167E0,1.246821674E0,-2.992227826E-1,-2.062859091E0,2.428885792E0
3.484464167E0,1.103316384E0,-1.699461070E-1,-2.092279356E0,2.371459809E0
3.494429167E0,7.047116198E-1,-6.233014941E-2,-2.027779305E0,2.147648115E0
3.504395167E0,-5.547991700E-2,-3.323645085E-2,-1.768267595E0,1.769449906E0
3.514361167E0,-9.547609267E-1,-3.190533221E-3,-1.301413618E0,1.614080547E0
3.524326167E0,-1.831886179E0,3.307916075E-2,-8.158637542E-1,2.005625804E0
3.534292167E0,-2.091643471E0,1.964980209E-1,-4.969624597E-1,2.158831992E0
3.544258167E0,-1.571171404E0,1.862858588E-1,-4.924747217E-1,1.657049593E0
3.554223167E0,-2.011180522E-1,2.153848198E-1,-7.965240884E-1,8.492877692E-1
3.564189167E0,1.669454913E0,5.072158447E-1,-9.220141071E-1,1.973438024E0
3.574154167E0,3.103923970E0,5.706218818E-1,-7.720862353E-1,3.249010695E0
3.584120167E0,3.590252683E0,3.775395119E-1,-2.250792110E-1,3.617058344E0
3.594086167E0,2.964459398E0,1.376916960E-1,4.896154332E-1,3.007773562E0
3.604051167E0,1.601440978E0,-2.064359486E-2,1.162833438E0,1.979197051E0
3.614017167E0,3.324410705E-1,-2.861715049E-2,1.611019009E0,1.645210702E0
3.623983167E0,-3.177776058E-1,5.358739257E-2,1.833488608E0,1.861594663E0
3.633948167E0,-4.178982003E-1,4.843804210E-2,1.838841149E0,1.886351484E0
3.643914167E0,-3.716587113E-1,-9.392382503E-2,1.736837642E0,1.778639052E0
3.653880167E0,-3.302474510E-1,-2.584519020E-1,1.632822107E0,1.685813987E0
3.663845167E0,-2.209424521E-1,-3.192854565E-1,1.550029042E0,1.597920148E0
3.673811167E0,6.415959701E-2,-2.553230569E-1,1.388869253E0,1.413599703E0
3.683776167E0,3.962772068E-1,-1.424688712E-1,1.146929596E0,1.221793969E0
3.693742167E0,4.794928797E-1,-7.611934572E-2,8.457599831E-1,9.752012743E-1
3.703708167E0,3.894886626E-1,-9.020850420E-2,5.399400795E-1,6.718439416E-1
3.713673167E0,1.423841962E-1,-1.826754954E-1,4.823105067E-1,5.350392704E-1
3.723639167E0,-2.758993722E-1,-3.257422444E-1,7.378694987E-1,8.524552015E-1
3.733605167E0,-8.270720626E-1,-4.158045682E-1,1.250571494E0,1.555914746E0
3.743570167E0,-1.357962333E0,-4.911301544E-1,1.940079841E0,2.418507870E0
3.753536167E0,-1.644638160E0,-5.810430819E-1,2.589711347E0,3.122346970E0
3.763501167E0,-1.559813042E0,-6.632879707E-1,2.995652540E0,3.441932857E0
3.773467167E0,-1.166240903E0,-6.759963092E-1,3.089133731E0,3.370435589E0
3.783433167E0,-8.299808331E-1,-8.364895150E-1,2.922378742E0,3.151012599E0
3.793398167E0,-5.351812134E-1,-9.383123437E-1,2.524040099E0,2.745473986E0
3.803364167E0,-2.459903525E-1,-8.538042900E-1,1.915872368E0,2.111885402E0
3.813330167E0,-7.025455188E-2,-7.236870772E-1,1.087979137E0,1.308570705E0
3.823295167E0,-1.706231780E-1,-6.532746139E-1,8.551669836E-2,6.805829088E-1
3.833261167E0,-3.255397115E-1,-6.257988399E-1,-8.643500358E-1,1.115661811E0
3.843226167E0,-4.021692633E-1,-5.199882102E-1,-1.600347841E0,1.730098571E0
3.853192167E0,-5.016400495E-1,-3.844357181E-1,-2.141086650E0,2.232416987E0
3.863158167E0,-7.120397159E-1,-2.838665324E-1,-2.388129172E0,2.508135106E0
3.873123167E0,-8.679604722E-1,-1.857616559E-1,-2.468690940E0,2.623413374E0
3.883089167E0,-9.618093798E-1,-1.866884395E-1,-2.325111390E0,2.523107773E0
3.893055167E0,-8.653475708E-1,-2.298432299E-1,-2.054715673E0,2.241318993E0
3.903020167E0,-5.628847364E-1,-2.871629003E-1,-1.694050056E0,1.808067297E0
3.912986167E0,-2.553433760E-1,-3.590254730E-1,-1.292000186E0,1.365050919E0
3.922952167E0,-4.612956136E-2,-4.506712228E-1,-9.464069366E-1,1.049246671E0
3.932917167E0,-1.131958824E-2,-5.196081412E-1,-6.394561815E-1,8.240297091E-1
3.942883167E0,-9.906246778E-2,-5.625772825E-1,-3.715911394E-1,6.814591302E-1
3.952848167E0,-2.715938846E-1,-5.772894618E-1,-1.925230837E-1,6.664019047E-1
3.962814167E0,-3.912497343E-1,-5.705593166E-1,-1.128968704E-1,7.009707495E-1
3.972780167E0,-4.265495944E-1,-5.766591319E-1,-1.901754266E-1,7.420559304E-1
3.982745167E0,-4.207870903E-1,-6.083501637E-1,-3.294028938E-1,8.097270920E-1
3.992711167E0,-3.295599646E-1,-5.856141427E-1,-5.722044307E-1,8.825936805E-1
4.002677167E0,-2.726547157E-1,-5.236962220E-1,-8.693336177E-1,1.050875476E0
4.012642167E0,-2.057999543E-1,-4.058107996E-1,-1.129079801E0,1.217315581E0
4.022608167E0,-1.247807149E-1,-2.654054108E-1,-1.300079284E0,1.332747689E0
4.032573167E0,-6.756706193E-2,-1.489101639E-1,-1.427373753E0,1.436709914E0
4.042539167E0,-4.216273718E-2,-1.486391455E-2,-1.535485847E0,1.536136523E0
4.052505167E0,-9.476728588E-2,1.785736737E-1,-1.671687965E0,1.683867586E0
4.062470167E0,-2.452325899E-1,3.770132625E-1,-1.777924857E0,1.833928793E0
4.072436167E0,-3.941117636E-1,5.398807302E-1,-1.805093944E0,1.924879069E0
4.082402167E0,-5.854204537E-1,6.831772748E-1,-1.746311885E0,1.964447377E0
4.092367167E0,-7.601957030E-1,7.599582329E-1,-1.593051685E0,1.921782426E0
4.102333167E0,-7.726393088E-1,8.424872965E-1,-1.394158060E0,1.802895738E0
4.112298167E0,-7.116688563E-1,9.601452622E-1,-1.091114999E0,1.618296458E0
4.122264167E0,-6.779795386E-1,1.072113010E0,-6.825285262E-1,1.440460951E0
4.132230167E0,-7.532315961E-1,1.163292152E0,-2.395838141E-1,1.406416322E0
4.142195167E0,-8.229225129E-1,1.168929745E0,2.001244640E-1,1.443484677E0
4.152161167E0,-8.647909889E-1,1.140002107E0,4.976436603E-1,1.514964512E0
4.162127167E0,-8.176651351E-1,1.078016651E0,7.876690650E-1,1.565604909E0
4.172092167E0,-7.066757727E-1,1.008668089E0,9.879584205E-1,1.578880553E0
4.182058167E0,-6.925823750E-1,9.098761645E-1,1.210913923E0,1.665490171E0
4.192024167E0,-6.557579264E-1,8.264954540E-1,1.475419155E0,1.813828789E0
4.201989167E0,-4.055523527E-1,8.949096313E-1,1.521939018E0,1.811528176E0
4.211955167E0,-2.430534788E-1,9.810771248E-1,1.424455408E0,1.746614018E0
4.221920167E0,-2.769593628E-1,1.035128786E0,1.260227585E0,1.654198192E0
4.231886167E0,-4.918011224E-1,1.064551975E0,1.057361947E0,1.578972305E0
4.241852167E0,-1.034979682E0,1.091319944E0,9.474851632E-1,1.777608027E0
4.251817167E0,-1.556063661E0,1.143112826E0,9.417478752E-1,2.148238839E0
4.261783167E0,-1.908947657E0,1.202547727E0,8.739698750E-1,2.419509358E0
4.271749167E0,-1.809121945E0,1.273643729E0,8.071841472E-1,2.355129892E0
4.281714167E0,-1.092861855E0,1.289685273E0,7.552199417E-1,1.851483810E0
4.291680167E0,-2.995367780E-1,1.122210492E0,9.651969641E-1,1.510193315E0
4.301645167E0,3.310404065E-1,7.712375119E-1,1.422836314E0,1.651925612E0
4.311611167E0,6.931711896E-1,4.030740103E-1,2.112846937E0,2.259884319E0
4.321577167E0,7.717764790E-1,5.335935116E-2,2.729502486E0,2.837017796E0
4.331542167E0,5.886922632E-1,-1.997087270E-1,3.137169192E0,3.198167084E0
4.341508167E0,4.075237414E-1,-4.117243811E-1,3.252615448E0,3.303800814E0
4.351474167E0,3.301329187E-1,-6.301977003E-1,3.012552747E0,3.095417733E0
4.361439792E0,4.038170452E-1,-8.315126574E-1,2.532996279E0,2.696396049E0
4.371405792E0,6.985494585E-1,-9.694265476E-1,1.983414726E0,2.315533017E0
4.381370792E0,1.032844718E0,-1.099045285E0,1.401150160E0,2.058613738E0
4.391336792E0,1.322872169E0,-1.142065005E0,7.530342525E-1,1.902988134E0
4.401302792E0,1.647755457E0,-1.108193839E0,1.355103922E-1,1.990365468E0
4.411267792E0,1.870621059E0,-1.034029217E0,-4.042653805E-1,2.175286203E0
4.421233792E0,1.844337970E0,-9.918760550E-1,-8.837247849E-1,2.272965058E0
4.431199792E0,1.706877532E0,-9.413011479E-1,-1.266425634E0,2.324502666E0
4.441164792E0,1.420269386E0,-8.768303329E-1,-1.535778793E0,2.268173949E0
4.451130792E0,9.979621294E-1,-8.449074590E-1,-1.643875099E0,2.100505265E0
4.461095792E0,6.499406777E-1,-8.227538207E-1,-1.526957683E0,1.852281431E0
4.471061792E0,5.087641874E-1,-8.627467293E-1,-1.283081428E0,1.627719530E0
4.481027792E0,4.552161174E-1,-9.250634301E-1,-1.018817686E0,1.449466640E0
4.490992792E0,5.847562100E-1,-9.638947892E-1,-8.286919606E-1,1.399200970E0
4.500958792E0,8.008277853E-1,-9.805260247E-1,-7.412684852E-1,1.467049895E0
4.510924792E0,1.114707052E0,-9.549418250E-1,-7.334911036E-1,1.640882354E0
4.520889792E0,1.328340046E0,-8.546071127E-1,-7.651222014E-1,1.755064836E0
4.530855792E0,1.369980846E0,-8.243498182E-1,-8.375066382E-1,1.804942523E0
4.540820792E0,1.358873768E0,-8.493644992E-1,-9.129392284E-1,1.844292820E0
4.550786792E0,1.205116701E0,-8.429281765E-1,-8.784962046E-1,1.713064434E0
4.560752792E0,9.893257919E-1,-8.335667843E-1,-9.042198604E-1,1.578357584E0
4.570717792E0,8.509812543E-1,-8.096715528E-1,-9.614974308E-1,1.517963909E0
4.580683792E0,7.299627475E-1,-7.525945419E-1,-1.143762159E0,1.551591452E0
4.590649792E0,5.969640268E-1,-7.390471280E-1,-1.440480872E0,1.725555519E0
4.600614792E0,4.127923751E-1,-7.157158604E-1,-1.755894887E0,1.940570429E0
4.610580792E0,3.945913084E-1,-6.357563558E-1,-1.917850481E0,2.058649779E0
4.620545792E0,5.943804346E-1,-4.789276001E-1,-2.026973559E0,2.165936646E0
4.630511792E0,8.454686455E-1,-3.881504542E-1,-2.111305611E0,2.307182132E0
4.640477792E0,1.041259884E0,-3.271920615E-1,-2.126687881E0,2.390413800E0
4.650442792E0,1.026454880E0,-2.401524559E-1,-1.975008768E0,2.238736800E0
4.660408792E0,8.483842134E-1,-1.411912546E-1,-1.691467341E0,1.897564890E0
4.670374792E0,6.013181560E-1,-1.128696808E-1,-1.411026108E0,1.537958961E0
4.680339792E0,3.306710087E-1,-1.302169079E-1,-1.155557747E0,1.208972070E0
4.690305792E0,1.731673381E-1,-1.203921238E-1,-8.832967687E-1,9.081268480E-1
4.700270792E0,1.162546340E-1,-1.089970699E-1,-5.194356483E-1,5.433312930E-1
4.710236792E0,1.626139909E-1,-1.075843826E-1,-1.121408254E-1,2.249294870E-1
4.720202792E0,2.688318792E-1,-1.607042903E-1,2.467612714E-1,3.987324582E-1
4.730167792E0,3.269513024E-1,-2.576859167E-1,5.979865587E-1,7.286200040E-1
4.740133792E0,2.425639938E-1,-3.062248233E-1,9.385202122E-1,1.016578144E0
4.750099792E0,-3.134326860E-2,-3.446541864E-1,1.162544001E0,1.212962267E0
4.760064792E0,-3.739991690E-1,-3.573239332E-1,1.287253416E0,1.387291292E0
4.770030792E0,-6.943722077E-1,-2.967190048E-1,1.384102018E0,1.576684283E0
4.779995792E0,-8.336876754E-1,-2.399466339E-1,1.498240253E0,1.731280850E0
4.789961792E0,-7.191278569E-1,-1.135438648E-1,1.688490524E0,1.838759727E0
4.799927792E0,-4.591095590E-1,3.451231331E-2,1.736326595E0,1.796330351E0
4.809892792E0,-1.444900344E-1,6.049880147E-2,1.575297199E0,1.583066247E0
4.819858792E0,1.057407555E-1,9.501608491E-2,1.280515085E0,1.288381949E0
4.829824792E0,2.325336070E-1,1.017169940E-1,8.913483846E-1,9.267794603E-1
4.839789792E0,2.074269786E-1,1.072700948E-2,5.731031477E-1,6.095803787E-1
4.849755792E0,3.132404588E-2,-5.944922626E-2,5.450347584E-1,5.491614465E-1
4.859720792E0,-4.331168582E-1,-3.528853118E-2,1.010399449E0,1.099882967E0
4.869686792E0,-9.959677903E-1,-2.704688072E-2,1.714624654E0,1.983083729E0
4.879652792E0,-1.263366809E0,-1.474574232E-1,2.342024462E0,2.665130009E0
4.889617792E0,-1.196104460E0,-2.358053434E-1,2.717665967E0,2.978586636E0
4.899583792E0,-9.246901584E-1,-2.829058349E-1,2.792923726E0,2.955589711E0
4.909549792E0,-4.641068088E-1,-3.201321334E-1,2.485960692E0,2.549094010E0
4.919514792E0,2.797344513E-2,-3.192126587E-1,1.956291246E0,1.982360884E0
4.929480792E0,3.568986945E-1,-3.668385226E-1,1.359368881E0,1.452525709E0
4.939445792E0,3.758596800E-1,-3.955881125E-1,8.250251716E-1,9.891546833E-1
4.949411792E0,1.459782969E-1,-3.372896183E-1,4.732958543E-1,5.992352756E-1
4.959377792E0,-1.599230292E-1,-2.435853562E-1,2.301364678E-1,3.713111833E-1
4.969342792E0,-4.216586544E-1,-1.787309638E-1,-7.842285633E-3,4.580417881E-1
4.979308792E0,-6.128911845E-1,-1.173325682E-1,-3.494746310E-1,7.152167876E-1
4.989274792E0,-6.794693360E-1,-9.979413718E-2,-7.404773569E-1,1.009922851E0
4.999239792E0,-6.160931928E-1,-9.943424106E-2,-1.078388534E0,1.245945352E0
5.009205792E0,-5.102759119E-1,-9.976314694E-2,-1.357226461E0,1.453409047E0
5.019170792E0,-4.869960999E-1,-1.814069420E-1,-1.513242454E0,1.599992626E0
5.029136792E0,-4.686495471E-1,-3.199619794E-1,-1.532229533E0,1.633932498E0
5.039102792E0,-4.136819924E-1,-4.338329959E-1,-1.423954301E0,1.544988580E0
5.049067792E0,-3.822333643E-1,-5.029190183E-1,-1.321471322E0,1.464689844E0
5.059033792E0,-4.088301556E-1,-5.746260551E-1,-1.300597347E0,1.479489999E0
5.068999792E0,-3.271555164E-1,-5.670392928E-1,-1.366418869E0,1.515145147E0
5.078964792E0,-3.103761271E-1,-4.592417791E-1,-1.465350249E0,1.566680473E0
5.088930792E0,-3.580985431E-1,-3.745767277E-1,-1.550286904E0,1.634604471E0
5.098895792E0,-3.978561743E-1,-3.065777028E-1,-1.638364098E0,1.713626663E0
5.108861792E0,-4.995586600E-1,-2.366289237E-1,-1.770647997E0,1.854924912E0
5.118827792E0,-6.199647805E-1,-1.744154263E-1,-1.886260899E0,1.993177676E0
5.128792792E0,-6.333742002E-1,-6.385744214E-2,-1.889292095E0,1.993656257E0
5.138758792E0,-6.502318691E-1,6.862467706E-2,-1.825032949E0,1.938622216E0
5.148723792E0,-6.693235398E-1,1.756041652E-1,-1.666076977E0,1.804063002E0
5.158689792E0,-7.407071525E-1,3.376226172E-1,-1.391119847E0,1.611784894E0
5.168655792E0,-9.602785787E-1,5.242958540E-1,-1.020010518E0,1.495808326E0
5.178620792E0,-1.056627829E0,6.583450270E-1,-7.246436816E-1,1.440482214E0
5.188586792E0,-1.082647865E0,7.694321841E-1,-5.225381809E-1,1.427304605E0
5.198552792E0,-1.087695328E0,9.193580094E-1,-2.344370949E-1,1.443350625E0
5.208517792E0,-1.093487361E0,1.054592705E0,2.062020600E-1,1.533101325E0
5.218483792E0,-1.139030154E0,1.102831357E0,6.281891817E-1,1.705358714E0
5.228448792E0,-1.238461471E0,1.105205035E0,9.324122107E-1,1.903853333E0
5.238414792E0,-1.275001599E0,1.140480117E0,1.061054463E0,2.012997901E0
5.248380792E0,-1.147432237E0,1.163849684E0,9.995440936E-1,1.915785797E0
5.258345792E0,-1.029469924E0,1.123472029E0,9.359579623E-1,1.788299480E0
5.268311792E0,-1.032765926E0,9.961433530E-1,9.825690418E-1,1.739065542E0
5.278277792E0,-8.483118542E-1,9.146472001E-1,1.141614477E0,1.691004470E0
5.288242792E0,-5.575312816E-1,8.691114235E-1,1.369578704E0,1.715208915E0
5.298208792E0,-3.477585462E-1,7.499363977E-1,1.683742000E0,1.875720589E0
5.308173792E0,-2.797803520E-1,6.032940763E-1,1.996125988E0,2.103986632E0
5.318139792E0,-2.775858188E-1,4.741530561E-1,2.136488400E0,2.206004916E0
5.328105792E0,-1.483855956E-1,3.399775833E-1,2.016618724E0,2.050452175E0
5.338070792E0,3.563717142E-2,2.843325555E-1,1.671791461E0,1.696172661E0
5.348036792E0,2.204076511E-1,2.244290006E-1,1.243377664E0,1.282550554E0
5.358001958E0,3.979655904E-1,1.377335036E-1,7.987711734E-1,9.029853357E-1
5.367966958E0,5.724402928E-1,-5.030067265E-3,2.743279696E-1,6.347984131E-1
5.377932958E0,6.361636144E-1,-1.069408965E-1,-2.396434557E-1,6.881638508E-1
5.387897958E0,5.477488167E-1,-1.274745637E-1,-5.580880827E-1,7.923009773E-1
5.397863958E0,3.366704712E-1,-1.034357831E-1,-4.276747084E-1,5.540321503E-1
5.407829958E0,7.023200355E-2,-1.202702093E-1,1.171565670E-1,1.819975790E-1
5.417794958E0,-1.877260280E-1,-2.954399264E-1,8.414184254E-1,9.113236408E-1
5.427760958E0,-3.968977426E-1,-5.613809422E-1,1.566078479E0,1.710344463E0
5.437726958E0,-4.219569355E-1,-7.612791190E-1,2.176562877E0,2.344145795E0
5.447691958E0,-1.880743027E-1,-8.646125758E-1,2.564972363E0,2.713302429E0
5.457657958E0,1.538479183E-1,-8.864992887E-1,2.541365983E0,2.695939768E0
5.467622958E0,4.013382643E-1,-9.046972856E-1,2.057934566E0,2.283559558E0
5.477588958E0,4.717782826E-1,-9.015280947E-1,1.352056353E0,1.692153668E0
5.487554958E0,4.431288993E-1,-8.196126965E-1,5.140626419E-1,1.064137488E0
5.497519958E0,3.219824848E-1,-6.786138153E-1,-2.972221577E-1,8.077935639E-1
5.507485958E0,1.011286911E-1,-5.191532278E-1,-9.643806928E-1,1.099898726E0
5.517450958E0,-4.707586013E-2,-4.003226030E-1,-1.497835625E0,1.551124071E0
5.527416958E0,-8.624365345E-2,-3.528019890E-1,-1.885039415E0,1.919708522E0
5.537382958E0,-8.775808230E-2,-3.443173867E-1,-2.068075976E0,2.098378943E0
5.547347958E0,-3.748693809E-2,-3.953317121E-1,-2.066538159E0,2.104346073E0
5.557313958E0,1.807454757E-2,-5.293104261E-1,-1.805920156E0,1.881978699E0
5.567279958E0,1.243227683E-1,-5.766062146E-1,-1.395094199E0,1.514667852E0
5.577244958E0,2.240821145E-1,-5.846218702E-1,-9.582434553E-1,1.144651058E0
5.587210958E0,3.117785087E-1,-6.455811399E-1,-5.860886443E-1,9.260025624E-1
5.597175958E0,3.499478169E-1,-6.924126595E-1,-3.759291887E-1,8.621029640E-1
5.607141958E0,3.865378652E-1,-7.202082762E-1,-4.088238698E-1,9.139192737E-1
5.617107958E0,4.169770081E-1,-7.349774659E-1,-5.988917077E-1,1.035728236E0
5.627072958E0,4.470854178E-1,-7.226755089E-1,-8.970003033E-1,1.235619199E0
5.637038958E0,4.985325833E-1,-6.753776738E-1,-1.249120799E0,1.504982561E0
5.647004958E0,5.211314870E-1,-6.597451428E-1,-1.614762982E0,1.820522224E0
5.656969958E0,5.674995417E-1,-6.383343932E-1,-1.942423990E0,2.121918350E0
5.666935958E0,6.458289888E-1,-6.368550476E-1,-2.195873891E0,2.375824400E0
5.676900958E0,5.651394593E-1,-5.825642350E-1,-2.316609539E0,2.454677871E0
5.686866958E0,4.743590243E-1,-5.217017367E-1,-2.306953447E0,2.412306654E0
5.696832958E0,4.551878314E-1,-4.653331161E-1,-2.261997129E0,2.353797333E0
5.706797958E0,5.324628793E-1,-4.547277287E-1,-2.248149168E0,2.354669554E0
5.716763958E0,6.401879606E-1,-5.034832746E-1,-2.274625946E0,2.416042058E0
5.726729958E0,7.214793147E-1,-5.592011002E-1,-2.237806613E0,2.416819545E0
5.736694958E0,8.313873808E-1,-5.784942806E-1,-2.071003093E0,2.305409816E0
5.746660958E0,8.512781467E-1,-6.320638391E-1,-1.781572934E0,2.073205562E0
5.756625958E0,7.530379070E-1,-6.955853587E-1,-1.531927232E0,1.843286772E0
5.766591958E0,7.030548844E-1,-6.861260256E-1,-1.455056811E0,1.755632483E0
5.776557958E0,8.132026132E-1,-6.257304275E-1,-1.409063782E0,1.743071370E0
5.786522958E0,8.915782533E-1,-4.659038043E-1,-1.240493233E0,1.597122912E0
5.796488958E0,8.992119395E-1,-2.530818191E-1,-8.887224001E-1,1.289364194E0
5.806454958E0,9.133309188E-1,-7.849477708E-2,-4.779923379E-1,1.033833387E0
5.816419958E0,8.673092385E-1,4.234582812E-2,-3.235556781E-2,8.689449736E-1
5.826385958E0,6.532000619E-1,1.542013094E-1,3.527660286E-1,7.582164834E-1
5.836350958E0,3.039678711E-1,2.285504106E-1,6.487573475E-1,7.520092105E-1
5.846316958E0,-3.173568255E-1,3.572017264E-1,9.189419800E-1,1.035742628E0
5.856282958E0,-1.209287520E0,5.606900936E-1,1.122631491E0,1.742713732E0
5.866247958E0,-2.141689936E0,7.021579215E-1,1.267726640E0,2.585921956E0
5.876213958E0,-2.698016107E0,7.295170435E-1,1.388561105E0,3.120831295E0
5.886178958E0,-2.788642979E0,6.322164515E-1,1.619925488E0,3.286394057E0
5.896144958E0,-2.573435038E0,6.012437502E-1,1.894898406E0,3.251876675E0
5.906110958E0,-2.141980689E0,6.115994614E-1,2.079466937E0,3.047346045E0
5.916075958E0,-1.613322228E0,5.216882882E-1,2.141816967E0,2.731729709E0
5.926041958E0,-1.057524719E0,3.932740769E-1,2.207664217E0,2.479274959E0
5.936007958E0,-6.460292559E-1,3.036817230E-1,2.243912861E0,2.354723193E0
5.945972958E0,-5.563901974E-1,1.606506421E-1,2.148613771E0,2.225290951E0
5.955938958E0,-7.973513232E-1,1.849781290E-2,1.924540281E0,2.083258648E0
5.965903958E0,-1.195704730E0,-2.395355746E-2,1.823909115E0,2.181038292E0
5.975869958E0,-1.665757134E0,-8.632273704E-2,1.965800573E0,2.578094323E0
5.985835958E0,-2.065494431E0,-1.807099539E-1,2.102355863E0,2.952765400E0
5.995800958E0,-2.209391484E0,-2.466984138E-1,2.231348948E0,3.149791893E0
6.005766958E0,-2.112628251E0,-2.419175841E-1,2.429552017E0,3.228690950E0
6.015732958E0,-1.875909573E0,-2.762008327E-1,2.697358003E0,3.297129633E0
6.025697958E0,-1.460499984E0,-3.568758903E-1,2.877286769E0,3.246413368E0
6.035663958E0,-1.021457996E0,-4.110550211E-1,2.732706760E0,2.946188878E0
6.045628958E0,-7.936851921E-1,-5.125575686E-1,2.279534099E0,2.467575156E0
6.055594958E0,-8.241044544E-1,-6.092389405E-1,1.632706917E0,1.927706439E0
6.065560958E0,-9.595520622E-1,-6.898735061E-1,8.349800563E-1,1.447016693E0
6.075525958E0,-1.035843755E0,-7.412564984E-1,-9.679890096E-2,1.277420646E0
6.085491958E0,-1.148165551E0,-6.999893354E-1,-9.485826856E-1,1.645623989E0
6.095456958E0,-1.236863573E0,-6.107177013E-1,-1.618382993E0,2.126492681E0
6.105422958E0,-1.266451654E0,-5.266882423E-1,-2.113055098E0,2.519186802E0
6.115388958E0,-1.181324234E0,-4.789556667E-1,-2.380533054E0,2.700344997E0
6.125353958E0,-9.327764922E-1,-3.984167030E-1,-2.370495724E0,2.578382794E0
6.135319958E0,-7.446948074E-1,-4.194734037E-1,-2.169458510E0,2.331754386E0
6.145285958E0,-7.136316935E-1,-5.313417488E-1,-1.801517787E0,2.009243784E0
6.155250958E0,-8.035626742E-1,-6.259678245E-1,-1.372806367E0,1.709428563E0
6.165216958E0,-9.303085287E-1,-6.636309099E-1,-9.862147808E-1,1.509469952E0
6.175181958E0,-9.655895316E-1,-6.847618702E-1,-7.049917746E-1,1.377779142E0
6.185147958E0,-9.850074770E-1,-7.228260747E-1,-5.823598748E-1,1.353462333E0
6.195113958E0,-9.917801607E-1,-7.671757436E-1,-6.411319935E-1,1.408274384E0
6.205078958E0,-9.389071517E-1,-7.656338328E-1,-8.008586293E-1,1.452279708E0
6.215044958E0,-7.769986273E-1,-7.077694944E-1,-1.027558689E0,1.469878016E0
6.225009958E0,-6.596700060E-1,-6.155296674E-1,-1.265984754E0,1.554592772E0
6.234975958E0,-6.024946889E-1,-4.778169215E-1,-1.487650945E0,1.674638527E0
6.244941958E0,-5.628288589E-1,-3.108990875E-1,-1.624696231E0,1.747304327E0
6.254906958E0,-5.582992768E-1,-1.927648661E-1,-1.668011820E0,1.769497050E0
6.264872958E0,-5.280269988E-1,-1.472878540E-1,-1.610038431E0,1.700802744E0
6.274838958E0,-3.781850080E-1,-3.333936185E-2,-1.427032861E0,1.476671324E0
6.284803958E0,-1.956231130E-1,7.493353039E-2,-1.238049096E0,1.255646846E0
6.294769958E0,-1.272928798E-1,5.810319722E-2,-9.966555691E-1,1.006430217E0
6.304734958E0,-4.571371470E-2,-1.450752676E-2,-6.304479611E-1,6.322695973E-1
6.314700958E0,7.850500971E-2,-1.269947997E-1,-2.756558722E-1,3.134914283E-1
6.324666958E0,1.884067170E-1,-3.523409361E-1,-1.553032172E-1,4.286727370E-1
6.334631958E0,3.341783879E-1,-5.600287735E-1,-3.795369208E-1,7.545566224E-1
6.344597958E0,2.164091058E-1,-5.411495760E-1,-8.741283345E-1,1.050607496E0
6.354563958E0,-2.675147939E-1,-3.494222984E-1,-1.464534563E0,1.529222545E0
6.364529292E0,-8.407851720E-1,-2.068411607E-1,-2.079763976E0,2.252802958E0
6.374495292E0,-1.121374340E0,-1.055437043E-1,-2.465375569E0,2.710479031E0
6.384460292E0,-1.073515903E0,-3.825248480E-2,-2.383650790E0,2.614515392E0
6.394426292E0,-5.979931368E-1,9.103939354E-2,-1.829120153E0,1.926542109E0
6.404392292E0,2.608881444E-3,2.464475682E-1,-8.452237934E-1,8.804240291E-1
6.414357292E0,3.827657533E-1,4.434773934E-1,3.550534594E-1,6.850144373E-1
6.424323292E0,4.729820050E-1,6.510102797E-1,1.436947984E0,1.646920117E0
6.434288292E0,2.075917970E-1,8.943716875E-1,2.156567153E0,2.343880747E0
6.444254292E0,-2.703891389E-1,1.185910352E0,2.445848207E0,2.731605224E0
6.454220292E0,-7.258245268E-1,1.428080682E0,2.378480097E0,2.867647686E0
6.464185292E0,-1.003439947E0,1.594829239E0,1.964101372E0,2.721776300E0
6.474151292E0,-1.228609205E0,1.676278029E0,1.382350193E0,2.496053017E0
6.484117292E0,-1.523398921E0,1.630155192E0,9.208756542E-1,2.413744434E0
6.494082292E0,-1.677410781E0,1.424638426E0,6.906064546E-1,2.306564295E0
6.504048292E0,-1.743475401E0,1.093672571E0,8.399069202E-1,2.222896714E0
6.514013292E0,-1.688689183E0,6.432299745E-1,1.325298910E0,2.240944702E0
6.523979292E0,-1.325122470E0,2.059371811E-1,1.918218271E0,2.340495892E0
6.533945292E0,-7.561419015E-1,-1.398332387E-1,2.506652818E0,2.621948181E0
6.543910292E0,-1.139316814E-1,-4.754765734E-1,2.962677167E0,3.002751138E0
6.553876292E0,5.203364119E-1,-7.404370111E-1,3.216334645E0,3.341228142E0
6.563841292E0,1.064831619E0,-9.985741867E-1,3.130072426E0,3.453747266E0
6.573807292E0,1.478156821E0,-1.175255994E0,2.733482101E0,3.322363411E0
6.583773292E0,1.676590855E0,-1.246757647E0,2.130804321E0,2.984240034E0
6.593738292E0,1.775042033E0,-1.280672083E0,1.412073929E0,2.604774075E0
6.603704292E0,1.874830469E0,-1.282627830E0,7.296190774E-1,2.385889234E0
6.613670292E0,1.949507307E0,-1.191220939E0,2.383588225E-1,2.297041792E0
6.623635292E0,1.919115088E0,-1.094615581E0,-5.704894423E-2,2.210077051E0
6.633601292E0,1.748518332E0,-1.016886204E0,-2.581867307E-1,2.039125866E0
6.643566292E0,1.552262093E0,-8.707812421E-1,-3.899016953E-1,1.822032083E0
6.653532292E0,1.317299041E0,-7.225132486E-1,-4.914485353E-1,1.580766846E0
6.663498292E0,1.134159716E0,-6.294833167E-1,-5.828440243E-1,1.422067039E0
6.673463292E0,1.048937571E0,-5.768858577E-1,-6.418938857E-1,1.358342770E0
6.683429292E0,1.136946499E0,-5.517108169E-1,-7.406469262E-1,1.464783273E0
6.693394292E0,1.341332267E0,-5.521047731E-1,-8.432538664E-1,1.677816741E0
6.703360292E0,1.539193420E0,-5.364991392E-1,-9.707477260E-1,1.897181820E0
6.713326292E0,1.687022288E0,-5.375893526E-1,-1.168690009E0,2.121528423E0
6.723291292E0,1.827108711E0,-4.945234399E-1,-1.375446385E0,2.339814615E0
6.733257292E0,1.919815438E0,-3.996188906E-1,-1.633119730E0,2.551953492E0
6.743223292E0,1.782613008E0,-2.941950542E-1,-1.883976392E0,2.610292495E0
6.753188292E0,1.574719056E0,-1.981770489E-1,-2.023016163E0,2.571304852E0
6.763154292E0,1.346080791E0,-3.473465368E-2,-2.049995216E0,2.452676167E0
6.773119292E0,1.026997502E0,8.816826448E-2,-1.976680487E0,2.229296584E0
6.783085292E0,6.848220965E-1,1.754503834E-1,-1.859650220E0,1.989488146E0
6.793051292E0,4.730387230E-1,2.135173653E-1,-1.676871521E0,1.755349936E0
6.803016292E0,4.531577513E-1,2.156862438E-1,-1.505787839E0,1.587220690E0
6.812982292E0,4.812837356E-1,1.901058447E-1,-1.356565141E0,1.451910207E0
6.822947292E0,5.530833046E-1,2.398019153E-1,-1.251008281E0,1.388678443E0
6.832913292E0,7.313988237E-1,2.502479661E-1,-1.229142033E0,1.452018740E0
6.842879292E0,8.974223261E-1,2.186466891E-1,-1.224285920E0,1.533639208E0
6.852844292E0,9.546420090E-1,2.274797854E-1,-1.073280991E0,1.454311007E0
6.862810292E0,8.384873624E-1,2.372235855E-1,-7.466531861E-1,1.147530857E0
6.872775292E0,5.742509562E-1,2.820316762E-1,-3.299531168E-1,7.198437930E-1
6.882741292E0,2.007774518E-1,3.282422215E-1,3.115922749E-2,3.860381310E-1
6.892707292E0,-1.852190343E-1,3.612506309E-1,3.162875891E-1,5.146318568E-1
6.902672292E0,-5.257307607E-1,3.457970247E-1,5.308517522E-1,8.232690920E-1
6.912638292E0,-7.604754192E-1,2.927882141E-1,7.294068235E-1,1.093655392E0
6.922604292E0,-8.201300289E-1,2.312986019E-1,9.244278377E-1,1.257250625E0
6.932569292E0,-7.636927034E-1,1.627704039E-1,1.125410673E0,1.369770029E0
6.942535292E0,-7.166268566E-1,3.290228248E-2,1.272804946E0,1.461050664E0
6.952500292E0,-6.347507809E-1,-1.644178569E-1,1.385550959E0,1.532870916E0
6.962466292E0,-5.485689618E-1,-3.150775078E-1,1.564412608E0,1.687479940E0
6.972432292E0,-5.453832525E-1,-3.866056198E-1,1.786622005E0,1.907596652E0
6.982397292E0,-5.332958883E-1,-3.711207309E-1,1.961093565E0,2.065919425E0
6.992363292E0,-4.692558669E-1,-3.643610573E-1,1.951787136E0,2.040204175E0
7.002329292E0,-4.257002498E-1,-3.887968639E-1,1.755992535E0,1.848213594E0
7.012294292E0,-2.827321726E-1,-3.849368244E-1,1.541388026E0,1.613688597E0
7.022260292E0,-2.059839588E-1,-3.874362168E-1,1.277844077E0,1.351081677E0
7.032225292E0,-2.612262596E-1,-4.579366806E-1,1.050054097E0,1.174971816E0
7.042191292E0,-4.857204567E-1,-5.266575444E-1,1.009344612E0,1.237767780E0
7.052157292E0,-8.850861628E-1,-5.539581943E-1,1.291642921E0,1.660899946E0
7.062122292E0,-1.170949081E0,-5.548218280E-1,1.767309237E0,2.191422129E0
7.072088292E0,-1.187683374E0,-5.155723929E-1,2.263366547E0,2.607534240E0
7.082053292E0,-1.022106014E0,-5.174322461E-1,2.569906828E0,2.813691159E0
7.092019292E0,-7.168962671E-1,-5.524244696E-1,2.692781387E0,2.840807042E0
7.101985292E0,-3.793432318E-1,-5.452511054E-1,2.535648576E0,2.621204638E0
7.111950292E0,-1.672964412E-1,-5.839435932E-1,2.034383150E0,2.123132832E0
7.121916292E0,-1.825008099E-1,-6.021046065E-1,1.248404515E0,1.397980807E0
7.131881292E0,-3.461260767E-1,-5.799977459E-1,3.422275919E-1,7.571792198E-1
7.141847292E0,-6.033664356E-1,-5.376783764E-1,-5.845543349E-1,9.974231111E-1
7.151813292E0,-7.482181934E-1,-4.506884721E-1,-1.491128869E0,1.728124957E0
7.161778292E0,-7.637144843E-1,-3.667689407E-1,-2.230358430E0,2.385849533E0
7.171744292E0,-7.799598035E-1,-3.032690558E-1,-2.728899638E0,2.854330508E0
7.181710292E0,-7.141439827E-1,-2.848512036E-1,-2.852875813E0,2.954664488E0
7.191675292E0,-5.357562505E-1,-2.719420132E-1,-2.633329237E0,2.701001683E0
7.201641292E0,-3.291725135E-1,-3.435405841E-1,-2.232034827E0,2.282181883E0
7.211606292E0,-1.886510575E-1,-5.018141869E-1,-1.732849256E0,1.813883470E0
7.221572292E0,-2.066259831E-3,-6.416614589E-1,-1.198564603E0,1.359518593E0
7.231538292E0,1.294460987E-1,-6.799662763E-1,-6.503296638E-1,9.497573905E-1
7.241503292E0,1.561144453E-1,-6.752116129E-1,-2.158137131E-1,7.258498474E-1
7.251469292E0,1.227575418E-1,-7.011969316E-1,-9.726258516E-3,7.119277710E-1
7.261434292E0,1.158163851E-1,-7.354765257E-1,-9.308299541E-2,7.503356576E-1
7.271400292E0,1.728981469E-1,-7.256666520E-1,-3.502575731E-1,8.241154207E-1
7.281366292E0,2.735553331E-1,-6.029882669E-1,-6.929459256E-1,9.584369703E-1
7.291331292E0,3.421835916E-1,-3.264836714E-1,-1.070791832E0,1.170588034E0
7.301297292E0,2.068935663E-1,-6.651938707E-2,-1.393908384E0,1.410748156E0
7.311263292E0,-3.607870929E-2,1.789189517E-1,-1.598272664E0,1.608660677E0
7.321228292E0,-2.735437848E-1,3.948241737E-1,-1.626882505E0,1.696307465E0
7.331194292E0,-4.636043137E-1,5.651670143E-1,-1.568491040E0,1.730464347E0
7.341159292E0,-7.126293346E-1,6.772902980E-1,-1.480305673E0,1.777038998E0
7.351125292E0,-8.583791515E-1,7.917936909E-1,-1.442539676E0,1.855982957E0
7.361091583E0,-8.944572761E-1,8.656747225E-1,-1.401999176E0,1.874846189E0
7.371056583E0,-8.960752007E-1,8.751852188E-1,-1.360961663E0,1.849626065E0
7.381022583E0,-8.622423338E-1,8.621894896E-1,-1.339748549E0,1.811562511E0
7.390987583E0,-7.692127673E-1,8.170016223E-1,-1.294413916E0,1.713092910E0
7.400953583E0,-6.487742313E-1,7.521910840E-1,-1.134734643E0,1.508085588E0
7.410919583E0,-5.101161367E-1,6.795923468E-1,-8.631478482E-1,1.211234263E0
7.420884583E0,-3.716167941E-1,6.322474417E-1,-5.673535806E-1,9.272140824E-1
7.430850583E0,-2.840744010E-1,5.754089972E-1,-3.566456562E-1,7.341593175E-1
7.440815583E0,-1.961452145E-1,4.897274074E-1,-2.248400599E-1,5.734622318E-1
7.450781583E0,-1.071739081E-1,4.650527421E-1,-1.451454341E-1,4.988261185E-1
7.460747583E0,5.509385459E-2,4.348802322E-1,6.947076917E-3,4.384112351E-1
7.470712583E0,3.448858092E-1,3.796836859E-1,2.503403521E-1,5.707680918E-1
7.480678583E0,7.051628787E-1,3.035523534E-1,6.558839339E-1,1.009743755E0
7.490644583E0,9.238595615E-1,1.849328130E-1,1.079297192E0,1.432689451E0
7.500609583E0,9.735869146E-1,7.454761416E-2,1.354979376E0,1.670149076E0
7.510575583E0,8.774589816E-1,2.937027186E-2,1.375986668E0,1.632218180E0
7.520540583E0,7.472599078E-1,3.074699879E-2,1.201201698E0,1.415001154E0
7.530506583E0,5.426781844E-1,1.011442593E-1,1.003815485E0,1.145589499E0
7.540472583E0,3.644285926E-1,2.001072147E-1,8.350981700E-1,9.328665768E-1
7.550437583E0,2.552987178E-1,2.512490094E-1,5.357704300E-1,6.444792112E-1
7.560403583E0,9.584565863E-2,2.599297857E-1,2.720259207E-1,3.882627787E-1
7.570368583E0,-1.331937253E-2,3.432681039E-1,2.227993816E-1,4.094508045E-1
7.580334583E0,3.888983130E-3,4.327351812E-1,5.813354427E-1,7.247246084E-1
7.590300583E0,-1.313385500E-1,3.608828411E-1,1.169629072E0,1.231063932E0
7.600265583E0,-3.371321820E-1,1.388383350E-1,1.885481465E0,1.920409994E0
7.610231583E0,-4.318370488E-1,-1.026981568E-1,2.469269230E0,2.508848476E0
7.620196583E0,-3.608350401E-1,-3.212565529E-1,2.832975984E0,2.873875541E0
7.630162583E0,-1.595357242E-1,-3.694779557E-1,2.968910884E0,2.996063658E0
7.640128583E0,6.411062658E-2,-3.597359097E-1,2.721639735E0,2.746059530E0
7.650093583E0,2.706524098E-1,-3.955714479E-1,2.180209785E0,2.232273327E0
7.660059583E0,3.943616590E-1,-3.469465873E-1,1.458718922E0,1.550404446E0
7.670025583E0,4.945462440E-1,-2.822933391E-1,7.104454726E-1,9.104934301E-1
7.679990583E0,5.239454596E-1,-2.263044950E-1,-7.130679488E-3,5.707744000E-1
7.689956583E0,5.561112852E-1,-1.722364613E-1,-6.788056040E-1,8.942607048E-1
7.699921583E0,6.330647363E-1,-1.080825654E-1,-1.266071293E0,1.419644082E0
7.709887583E0,6.890070949E-1,-8.191539824E-2,-1.670499811E0,1.808869958E0
7.719853583E0,6.533583753E-1,-1.116090211E-1,-1.847696757E0,1.962986767E0
7.729818583E0,5.607283929E-1,-1.025101689E-1,-1.748988156E0,1.839533700E0
7.739784583E0,4.760390756E-1,-8.786932558E-2,-1.495183328E0,1.571593906E0
7.749749583E0,3.968402937E-1,-1.380296651E-1,-1.261466610E0,1.329598592E0
7.759715583E0,3.142201598E-1,-2.409532320E-1,-1.046321234E0,1.118740763E0
7.769681583E0,2.422258785E-1,-3.115672781E-1,-8.113134509E-1,9.022067727E-1
7.779646583E0,2.221282674E-1,-3.285812138E-1,-6.407571870E-1,7.535757122E-1
7.789612583E0,2.740071036E-1,-3.355598657E-1,-5.823721540E-1,7.258358231E-1
7.799577583E0,2.981809549E-1,-3.321715504E-1,-5.345027536E-1,6.963784994E-1
7.809543583E0,3.498190320E-1,-3.334662701E-1,-5.219780177E-1,7.113607800E-1
7.819509583E0,4.792233230E-1,-4.061152934E-1,-6.486760712E-1,9.029757860E-1
7.829474583E0,5.687658294E-1,-4.555226576E-1,-9.267035741E-1,1.178887176E0
7.839440583E0,5.646770176E-1,-4.679737186E-1,-1.331368904E0,1.520000886E0
7.849406583E0,5.191076195E-1,-4.438111232E-1,-1.656602733E0,1.791863178E0
7.859371583E0,4.877048555E-1,-3.819883659E-1,-1.867786036E0,1.967840394E0
7.869337583E0,3.776138446E-1,-3.561986366E-1,-1.866624779E0,1.937461677E0
7.879302583E0,2.563577948E-1,-2.848055953E-1,-1.793277891E0,1.833760928E0
7.889268583E0,2.479260367E-1,-1.903449959E-1,-1.792471560E0,1.819519945E0
7.899234583E0,2.720971106E-1,-1.501398334E-1,-1.807721683E0,1.834240031E0
7.909199583E0,1.829015634E-1,-1.726934212E-1,-1.736704910E0,1.754827611E0
7.919165583E0,-4.391258955E-3,-1.608428693E-1,-1.515188407E0,1.523707853E0
7.929130583E0,-1.090749110E-1,-1.374633622E-1,-1.294296387E0,1.306138067E0
7.939096583E0,-1.671199284E-1,-1.883110419E-1,-1.192441984E0,1.218732130E0
7.949062583E0,-2.113832778E-1,-2.514542466E-1,-1.200800579E0,1.244923354E0
7.959027583E0,-9.142721012E-2,-3.022829229E-1,-1.074535804E0,1.119982631E0
7.968993583E0,1.091029045E-1,-3.078009403E-1,-8.194866890E-1,8.821583169E-1
7.978958583E0,1.914755550E-1,-4.184668055E-1,-5.417556399E-1,7.108280586E-1
7.988924583E0,7.424268186E-2,-5.123429757E-1,-3.267804176E-1,6.122031868E-1
7.998890583E0,-6.875667796E-3,-5.328503305E-1,-1.580765516E-1,5.558461529E-1
8.008855583E0,-5.414346278E-2,-4.832729584E-1,7.777206123E-2,4.924761521E-1
8.018821583E0,-1.327419548E-1,-4.603077266E-1,3.226084292E-1,5.775637006E-1
8.028787583E0,-2.892222165E-1,-4.488381207E-1,5.685551834E-1,7.799744520E-1
8.038752583E0,-4.941219554E-1,-4.144953766E-1,9.075416636E-1,1.113370915E0
8.048718583E0,-6.798266009E-1,-4.010467806E-1,1.222727053E0,1.455357060E0
8.058683583E0,-9.539520375E-1,-4.325530404E-1,1.516011695E0,1.842666026E0
8.068649583E0,-1.301841927E0,-4.136185867E-1,1.705663211E0,2.185213886E0
8.078615583E0,-1.486038868E0,-3.223517364E-1,1.733673128E0,2.306045246E0
8.088580583E0,-1.426762134E0,-2.505397421E-1,1.613273111E0,2.168195213E0
8.098546583E0,-1.164459110E0,-3.219935945E-1,1.393583279E0,1.844375029E0
8.108511583E0,-8.360199836E-1,-4.905609280E-1,1.233698183E0,1.568945711E0
8.118477583E0,-6.381560531E-1,-6.237540686E-1,1.272507908E0,1.554216414E0
8.128443583E0,-7.668127046E-1,-6.560377157E-1,1.354457220E0,1.689065294E0
8.138408583E0,-1.197861329E0,-6.699295306E-1,1.495827692E0,2.030068428E0
8.148374583E0,-1.655684428E0,-6.886900297E-1,1.816856788E0,2.552754095E0
8.158339583E0,-1.971384079E0,-7.682159632E-1,2.376347618E0,3.181750926E0
8.168305583E0,-2.038711259E0,-8.269489056E-1,3.089050700E0,3.792416422E0
8.178271583E0,-1.874476420E0,-8.346754164E-1,3.656636415E0,4.193010228E0
8.188236583E0,-1.600297555E0,-8.558604634E-1,3.857744381E0,4.263289939E0
8.198202583E0,-1.282960390E0,-7.587137993E-1,3.595877413E0,3.892552936E0
8.208167583E0,-1.034327060E0,-6.236938423E-1,2.921281804E0,3.161125409E0
8.218133583E0,-1.022713539E0,-4.925947358E-1,1.928669584E0,2.237936309E0
8.228099583E0,-1.241192852E0,-4.349916217E-1,8.478497779E-1,1.564808823E0
8.238064583E0,-1.445754183E0,-3.994671553E-1,-1.823541909E-1,1.510970621E0
8.248030583E0,-1.651871312E0,-2.854958591E-1,-1.002505708E0,1.953254826E0
8.257996583E0,-1.940977681E0,-1.737260395E-1,-1.463308986E0,2.436975233E0
8.267961583E0,-2.147724701E0,-1.136771813E-1,-1.686616491E0,2.733188446E0
8.277927583E0,-2.140387761E0,-1.393578601E-1,-1.656319143E0,2.709995108E0
8.287892583E0,-1.991854304E0,-1.899409533E-1,-1.375849843E0,2.428275916E0
8.297858583E0,-1.686054720E0,-3.418568784E-1,-9.902826887E-1,1.985020516E0
8.307824583E0,-1.305491467E0,-5.201355600E-1,-6.251796198E-1,1.538082744E0
8.317789583E0,-9.387345126E-1,-6.237163541E-1,-4.381751382E-1,1.209231999E0
8.327755583E0,-6.653198051E-1,-6.931125712E-1,-4.203592569E-1,1.048693179E0
8.337720583E0,-5.660208540E-1,-7.255973625E-1,-5.859968430E-1,1.090991952E0
8.347686583E0,-5.905273753E-1,-7.275474089E-1,-9.356562459E-1,1.324198030E0
8.357652583E0,-6.977019777E-1,-6.829849014E-1,-1.388441822E0,1.697358865E0
8.367616833E0,-8.177154212E-1,-6.147329843E-1,-1.861344159E0,2.123948500E0
8.377582833E0,-8.264532810E-1,-5.641972536E-1,-2.314520913E0,2.521577012E0
8.387547833E0,-7.516475853E-1,-4.698942366E-1,-2.691715440E0,2.833920728E0
8.397513833E0,-6.052186508E-1,-3.528972986E-1,-2.926037929E0,3.008741279E0
8.407479833E0,-4.436374609E-1,-1.828550050E-1,-3.031624610E0,3.069364418E0
8.417444833E0,-3.746061466E-1,-1.434438944E-2,-3.004568959E0,3.027865610E0
8.427410833E0,-4.346040975E-1,1.341734263E-1,-2.849891979E0,2.885960415E0
8.437375833E0,-5.453831063E-1,2.573520407E-1,-2.594934665E0,2.664086846E0
8.447341833E0,-6.135155940E-1,3.967341667E-1,-2.252067388E0,2.367616291E0
8.457307833E0,-6.617593624E-1,4.735028458E-1,-1.784126413E0,1.960927703E0
8.467272833E0,-7.478556660E-1,5.383855972E-1,-1.342371025E0,1.628222072E0
8.477238833E0,-8.625182493E-1,6.483848798E-1,-9.770603800E-1,1.455674300E0
8.487203833E0,-8.782447743E-1,8.240422547E-1,-6.714141387E-1,1.378824306E0
8.497169833E0,-8.546581297E-1,9.474538806E-1,-3.791954434E-1,1.331126800E0
8.507135833E0,-8.835405976E-1,1.027334740E0,-2.483487904E-2,1.355240727E0
8.517100833E0,-9.248554154E-1,1.057521283E0,2.998493117E-1,1.436529991E0
8.527066833E0,-8.357901880E-1,1.074586967E0,5.870464182E-1,1.482533603E0
8.537032833E0,-7.248006063E-1,1.175332446E0,7.588387835E-1,1.575620061E0
8.546997833E0,-6.608398877E-1,1.365360231E0,8.644330662E-1,1.745898749E0
8.556963833E0,-5.513482895E-1,1.534281028E0,9.519805026E-1,1.887927458E0
8.566928833E0,-3.096429594E-1,1.678208487E0,1.115894330E0,2.038990594E0
8.576894833E0,-1.205766765E-1,1.741041205E0,1.528266875E0,2.319776466E0
8.586860833E0,-6.519638143E-2,1.732492283E0,2.069986262E0,2.700115406E0
8.596825833E0,-8.158181459E-2,1.574263412E0,2.600983610E0,3.041393861E0
8.606791833E0,-5.850066170E-3,1.369762892E0,2.999777750E0,3.297719084E0
8.616756833E0,1.714228944E-1,1.136017230E0,3.277202405E0,3.472747696E0
8.626722833E0,4.290005645E-1,8.236186239E-1,3.297468270E0,3.425738769E0
8.636688833E0,5.665734158E-1,5.125511366E-1,3.022010034E0,3.117091392E0
8.646653833E0,4.349289103E-1,2.598099178E-1,2.592854226E0,2.641885195E0
8.656619833E0,4.333356902E-2,9.690298140E-3,2.226808586E0,2.227251260E0
8.666584833E0,-4.821459076E-1,-2.509510937E-1,2.124978740E0,2.193393666E0
8.676550833E0,-9.478388467E-1,-5.290139723E-1,2.246453476E0,2.494956409E0
8.686516833E0,-1.134661334E0,-8.765043506E-1,2.356804469E0,2.758666983E0
8.696481833E0,-9.503956148E-1,-1.213180596E0,2.485803401E0,2.924769655E0
8.706447833E0,-4.864044347E-1,-1.468227080E0,2.450998435E0,2.898218998E0
8.716412833E0,9.957070045E-2,-1.652635690E0,2.286939012E0,2.823332976E0
8.726378833E0,6.739790929E-1,-1.676254348E0,1.966637895E0,2.670531982E0
8.736344833E0,1.096437719E0,-1.574666870E0,1.569687966E0,2.479046537E0
8.746309833E0,1.301541965E0,-1.479239725E0,1.060935765E0,2.237799443E0
8.756275833E0,1.268285633E0,-1.429939511E0,3.146117771E-1,1.937074088E0
8.766240833E0,1.053469601E0,-1.322307766E0,-5.627038747E-1,1.781833797E0
8.776206833E0,7.874533758E-1,-1.203776227E0,-1.435893146E0,2.032473653E0
8.786172833E0,5.476244172E-1,-1.097402510E0,-2.149365723E0,2.474663165E0
8.796137833E0,3.412774924E-1,-9.858923069E-1,-2.661772433E0,2.858930998E0
8.806103833E0,1.855996149E-1,-9.193746740E-1,-2.903192273E0,3.050937951E0
8.816068833E0,1.780186267E-1,-9.064172441E-1,-2.869830399E0,3.014831566E0
8.826034833E0,3.600578720E-1,-9.146904695E-1,-2.625306857E0,2.803308121E0
8.836000833E0,6.821437063E-1,-9.249742600E-1,-2.211557878E0,2.492365476E0
8.845965833E0,9.351806480E-1,-9.321414846E-1,-1.791748259E0,2.225716158E0
8.855931833E0,1.070465265E0,-9.103585598E-1,-1.485831292E0,2.045077802E0
8.865897833E0,1.133053203E0,-8.320506012E-1,-1.289777074E0,1.907784754E0
8.875862833E0,1.103495089E0,-7.289457706E-1,-1.253676365E0,1.822297390E0
8.885828833E0,1.022307889E0,-6.186424327E-1,-1.317189991E0,1.778432273E0
8.895793833E0,9.405578937E-1,-5.053292406E-1,-1.501745074E0,1.842619076E0
8.905759833E0,7.871064898E-1,-4.028877765E-1,-1.718442301E0,1.932588712E0
8.915725833E0,5.729506816E-1,-3.160042915E-1,-1.924306977E0,2.032507943E0
8.925690833E0,3.104840814E-1,-2.264284560E-1,-2.014869822E0,2.051187610E0
8.935656833E0,1.213368145E-1,-1.022754031E-1,-2.140616534E0,2.146490630E0
8.945621833E0,5.091806553E-2,-3.754994184E-2,-2.205447537E0,2.206354796E0
8.955587833E0,4.081232272E-2,-5.728224814E-3,-2.221522118E0,2.221904359E0
8.965553833E0,1.744063631E-1,6.306397498E-2,-2.172977949E0,2.180877761E0
8.975518833E0,3.996945389E-1,1.144373193E-1,-2.035778296E0,2.077798088E0
8.985484833E0,6.395441821E-1,1.502798742E-1,-1.895163869E0,2.005803304E0
8.995449833E0,7.738172304E-1,1.925552434E-1,-1.703892674E0,1.881255133E0
9.005415833E0,9.184072521E-1,3.161118802E-1,-1.534224603E0,1.815831416E0
9.015381833E0,9.972939388E-1,4.325884160E-1,-1.368333832E0,1.747588457E0
9.025346833E0,8.950993004E-1,4.574689034E-1,-1.168107042E0,1.541088776E0
9.035312833E0,6.877848076E-1,4.711320922E-1,-9.779427248E-1,1.285062396E0
9.045277833E0,5.006816543E-1,4.841582268E-1,-8.611124325E-1,1.107522428E0
9.055243833E0,4.013449156E-1,4.801493758E-1,-8.229499948E-1,1.033860657E0
9.065209833E0,2.712526265E-1,4.625580275E-1,-7.364381003E-1,9.109769436E-1
9.075174833E0,9.581729963E-2,4.933798707E-1,-5.434449005E-1,7.402276755E-1
9.085140833E0,-1.378725942E-1,4.569791991E-1,-2.928525335E-1,5.600012919E-1
9.095105833E0,-4.170529488E-1,3.700044975E-1,1.213823497E-2,5.576592391E-1
9.105071833E0,-6.721701837E-1,2.579291609E-1,3.579191798E-1,8.040188724E-1
9.115037833E0,-7.566211539E-1,1.404553825E-1,7.694204897E-1,1.088214673E0
9.125002833E0,-7.348148402E-1,8.786903322E-3,1.288051561E0,1.482938597E0
9.134968833E0,-7.596731081E-1,-1.680410841E-1,1.917027778E0,2.068897421E0
9.144933833E0,-8.292830410E-1,-3.370969525E-1,2.567550985E0,2.719129047E0
9.154899833E0,-8.853127424E-1,-3.626188794E-1,3.049027678E0,3.195597110E0
9.164865833E0,-1.004836116E0,-3.154128456E-1,3.221968437E0,3.389728823E0
9.174830833E0,-1.077392973E0,-2.486791581E-1,3.112700348E0,3.303259057E0
9.184796833E0,-1.113399834E0,-1.697741988E-1,2.825002720E0,3.041237057E0
9.194762833E0,-1.143687680E0,-1.216238397E-1,2.344657463E0,2.611557483E0
9.204727833E0,-1.331129168E0,-2.141338080E-1,1.849693581E0,2.288913388E0
9.214693833E0,-1.615579545E0,-3.809563324E-1,1.646249068E0,2.337811153E0
9.224658833E0,-1.859642911E0,-5.526595277E-1,1.816265634E0,2.657541188E0
9.234624833E0,-2.012647296E0,-7.190119359E-1,2.071125884E0,2.976119912E0
9.244590833E0,-1.831264327E0,-8.492297208E-1,2.241326053E0,3.016332646E0
9.254555833E0,-1.423369288E0,-1.002724687E0,2.240474113E0,2.837456815E0
9.264521833E0,-9.916727912E-1,-1.105742978E0,1.982069866E0,2.476829306E0
9.274486833E0,-6.726499477E-1,-1.082842651E0,1.559448906E0,2.014171554E0
9.284452833E0,-5.584382578E-1,-9.790905333E-1,1.047286609E0,1.538597024E0
9.294418833E0,-4.542968620E-1,-8.917091578E-1,4.932237500E-1,1.115706291E0
9.304383833E0,-4.752355219E-1,-8.454600209E-1,-5.000831187E-2,9.711602749E-1
9.314349833E0,-6.564957719E-1,-8.472463453E-1,-6.032619166E-1,1.229934148E0
9.324314833E0,-9.423863912E-1,-8.764882708E-1,-9.728211486E-1,1.613290050E0
9.334280833E0,-1.398871354E0,-8.909849802E-1,-1.205873623E0,2.050567359E0
9.344246833E0,-1.771700057E0,-8.790668929E-1,-1.342935866E0,2.390639336E0
9.354211833E0,-1.855033697E0,-8.608086696E-1,-1.469582464E0,2.518295893E0
9.364177917E0,-1.734635580E0,-8.016874722E-1,-1.648604912E0,2.523799032E0
9.374142917E0,-1.439402499E0,-6.470312494E-1,-1.788662099E0,2.385338780E0
9.384108917E0,-1.137411718E0,-5.414053917E-1,-1.849600026E0,2.237821590E0
9.394074917E0,-8.625141563E-1,-5.764039010E-1,-1.869361276E0,2.137915739E0
9.404039917E0,-5.765285198E-1,-6.865750918E-1,-1.807991824E0,2.018069604E0
9.414005917E0,-3.214371588E-1,-7.554450595E-1,-1.600049633E0,1.798382026E0
9.423970917E0,-1.195900685E-1,-7.236338675E-1,-1.331274764E0,1.519947452E0
9.433936917E0,-7.795105912E-3,-6.134805107E-1,-1.102526425E0,1.261738332E0
9.443902917E0,-5.786737170E-2,-4.315215915E-1,-9.263036245E-1,1.023522311E0
9.453867917E0,-1.303332675E-1,-2.455631769E-1,-8.567773068E-1,9.007526785E-1
9.463833917E0,-2.089431981E-1,-5.349851489E-2,-9.180801004E-1,9.430749821E-1
9.473798917E0,-2.718346437E-1,1.530391753E-1,-1.198344748E0,1.238283165E0
9.483764917E0,-4.057082175E-1,2.844351742E-1,-1.537511907E0,1.615377786E0
9.493730917E0,-4.735286831E-1,3.955223313E-1,-1.884808450E0,1.983222182E0
9.503695917E0,-3.898118309E-1,4.945794269E-1,-2.169312914E0,2.258867104E0
9.513661917E0,-1.813890715E-1,6.071614248E-1,-2.430889276E0,2.512124531E0
9.523626917E0,1.346401803E-1,7.746128172E-1,-2.544984241E0,2.663662475E0
9.533592917E0,4.263303969E-1,1.005093978E0,-2.402821471E0,2.639227640E0
9.543558917E0,8.021185581E-1,1.338795745E0,-1.818231468E0,2.396191541E0
9.553523917E0,1.101386803E0,1.675382236E0,-9.173673248E-1,2.204885787E0
9.563489917E0,1.101767237E0,1.755269527E0,1.070935088E-1,2.075170156E0
9.573454917E0,1.166955213E0,1.673985628E0,9.969678104E-1,2.271113641E0
9.583420917E0,1.105134210E0,1.646141480E0,1.575515885E0,2.532460009E0
9.593386917E0,6.042615712E-1,1.627547626E0,1.835380767E0,2.526393849E0
9.603351917E0,-2.794811207E-1,1.655595550E0,1.829293231E0,2.483026389E0
9.613317917E0,-1.141937243E0,1.647072356E0,1.861254696E0,2.735166733E0
9.623282917E0,-1.663345158E0,1.865892123E0,1.933853726E0,3.160389337E0
9.633248917E0,-2.018127452E0,2.492123072E0,1.507801620E0,3.543583151E0
9.643214917E0,-1.942286580E0,2.651599447E0,1.331305169E0,3.546241707E0
9.653179917E0,-1.621085576E0,2.621860508E0,1.084754983E0,3.267837870E0
9.663145917E0,-1.206910627E0,2.531053542E0,1.117886476E0,3.018697644E0
9.673110917E0,-7.751270067E-1,2.197735645E0,1.342431251E0,2.689421035E0
9.683076917E0,-2.129512817E-1,1.841826445E0,1.565482648E0,2.426604381E0
9.693042917E0,4.790603319E-1,1.472951922E0,1.803838547E0,2.377586943E0
9.703007917E0,1.007888874E0,1.075122572E0,1.848152840E0,2.363767638E0
9.712973917E0,1.317703669E0,7.323339397E-1,1.825199010E0,2.367278477E0
9.722938917E0,1.315936933E0,4.779192477E-1,1.798532783E0,2.279214117E0
9.732904917E0,1.051988867E0,2.954881659E-1,1.836646104E0,2.137115520E0
9.742870917E0,6.053733462E-1,4.410437822E-2,1.954391486E0,2.046477013E0
9.752835917E0,2.555314370E-1,-3.228756469E-1,2.089957427E0,2.130133105E0
9.762801917E0,4.603074342E-2,-7.644895327E-1,2.254046670E0,2.380606953E0
9.772766917E0,-1.007918914E-1,-1.140185125E0,2.389962859E0,2.649925205E0
9.782732917E0,-1.810699962E-1,-1.469964287E0,2.310342493E0,2.744314812E0
9.792698917E0,-1.696910953E-1,-1.712034630E0,2.002581314E0,2.640111657E0
9.802663917E0,2.118607029E-2,-1.830652124E0,1.522007430E0,2.380807146E0
9.812629917E0,3.393216719E-1,-1.858516445E0,9.200956357E-1,2.101380154E0
9.822594917E0,7.162714190E-1,-1.813968848E0,4.175350517E-1,1.994458134E0
9.832560917E0,1.094159717E0,-1.791966653E0,4.024346173E-2,2.099987978E0
9.842526917E0,1.291098545E0,-1.801645256E0,-2.731094098E-1,2.233259912E0
9.852491917E0,1.356360489E0,-1.802446325E0,-5.012934923E-1,2.310805421E0
9.862457917E0,1.268841996E0,-1.786025589E0,-7.372216272E-1,2.311567248E0
9.872423917E0,1.067099607E0,-1.769176545E0,-9.648701048E-1,2.280276636E0
9.882388917E0,7.817658623E-1,-1.687319619E0,-1.311222907E0,2.275414440E0
9.892354917E0,5.527745716E-1,-1.603394240E0,-1.766396486E0,2.448793450E0
9.902319917E0,4.645066852E-1,-1.537210483E0,-2.186870348E0,2.713150282E0
9.912285917E0,4.154312966E-1,-1.425133100E0,-2.492718903E0,2.901247154E0
9.922251917E0,4.288634473E-1,-1.348658828E0,-2.593575772E0,2.954562536E0
9.932216917E0,5.663822850E-1,-1.300072852E0,-2.495970540E0,2.870687592E0
9.942182917E0,7.869180632E-1,-1.282489690E0,-2.241711384E0,2.699868473E0
9.952147917E0,1.021940611E0,-1.221103573E0,-2.023232510E0,2.574670142E0
9.962113917E0,1.157864913E0,-1.141446370E0,-1.951649142E0,2.540174274E0
9.972078917E0,1.163430073E0,-1.036267532E0,-1.887003495E0,2.447080326E0
9.982044917E0,1.135229756E0,-9.178587833E-1,-1.870413190E0,2.372689792E0
9.992010917E0,1.078487571E0,-7.919015720E-1,-1.898603202E0,2.322700510E0
1.000197592E1,9.924215271E-1,-7.148019406E-1,-1.953878685E0,2.305099611E0
1.001194192E1,9.453535607E-1,-6.183915871E-1,-1.964438757E0,2.266080568E0
1.002190692E1,9.744740103E-1,-4.625141734E-1,-1.933875945E0,2.214361111E0
1.003187292E1,1.037534185E0,-2.874423972E-1,-1.931973261E0,2.211700929E0
1.004183892E1,1.144383791E0,-1.558896929E-1,-1.982931161E0,2.294761828E0
1.005180392E1,1.251034301E0,-3.345952213E-2,-1.957049630E0,2.322982913E0
1.006176992E1,1.360171411E0,1.271705085E-1,-1.865400957E0,2.312133071E0
1.007173592E1,1.474933690E0,2.829087585E-1,-1.695070980E0,2.264670480E0
1.008170092E1,1.532506691E0,3.913123360E-1,-1.480525528E0,2.166485158E0
1.009166692E1,1.536465256E0,4.058739495E-1,-1.213770872E0,1.999674692E0
1.010163192E1,1.427804985E0,4.349495217E-1,-9.274748218E-1,1.757275649E0
1.011159792E1,1.252269525E0,4.632111615E-1,-6.676941401E-1,1.492835894E0
1.012156392E1,1.025315770E0,4.413843825E-1,-3.786563301E-1,1.178759185E0
1.013152892E1,8.698483919E-1,4.192009234E-1,-7.149039745E-2,9.682337094E-1
1.014149492E1,8.949637911E-1,3.965280524E-1,2.351481164E-1,1.006722067E0
1.015145992E1,1.052715749E0,3.834840837E-1,5.269007885E-1,1.238101342E0
1.016142592E1,1.325879977E0,3.443992478E-1,8.102018952E-1,1.591538773E0
1.017139192E1,1.503910736E0,3.708146292E-1,1.138979137E0,1.922634772E0
1.018135692E1,1.372938514E0,4.519891852E-1,1.482895405E0,2.070804957E0
1.019132292E1,9.831909663E-1,4.772047180E-1,1.774449856E0,2.084001226E0
1.020128792E1,4.515139528E-1,4.524826902E-1,1.986808450E0,2.087106430E0
1.021125392E1,8.208175153E-3,4.751046905E-1,2.122572026E0,2.175110077E0
1.022121892E1,-3.639447355E-1,5.426540646E-1,2.180767025E0,2.276548708E0
1.023118492E1,-7.090615828E-1,6.255938950E-1,2.195389742E0,2.390370718E0
1.024115092E1,-9.014060341E-1,7.442014486E-1,2.267045031E0,2.550659092E0
1.025111592E1,-8.530128694E-1,7.977087343E-1,2.406034516E0,2.674504117E0
1.026108192E1,-6.042435180E-1,7.558950028E-1,2.616353601E0,2.789586645E0
1.027104792E1,-4.387538664E-1,6.397198910E-1,2.746889766E0,2.854321265E0
1.028101292E1,-4.921556099E-1,4.701836738E-1,2.794414181E0,2.876115514E0
1.029097892E1,-7.914242931E-1,3.411549202E-1,2.883554984E0,3.009589413E0
1.030094392E1,-1.259193798E0,2.398606798E-1,3.077937482E0,3.334186754E0
1.031090992E1,-1.718262499E0,2.591076672E-2,3.210145367E0,3.641171605E0
1.032087592E1,-2.132284251E0,-1.910264888E-1,3.200080554E0,3.850148413E0
1.033084092E1,-2.306512567E0,-3.756005752E-1,3.132731155E0,3.908334748E0
1.034080692E1,-2.147477072E0,-4.421684942E-1,3.053175693E0,3.758863201E0
1.035077192E1,-1.959905849E0,-4.191547304E-1,2.929647415E0,3.549613444E0
1.036073792E1,-1.859816427E0,-4.962768736E-1,2.566661623E0,3.208264292E0
1.037070433E1,-1.948832830E0,-6.794967449E-1,1.956561388E0,2.843905359E0
1.038066933E1,-2.060318914E0,-7.956876442E-1,1.160742474E0,2.495066321E0
1.039063533E1,-2.109161291E0,-9.044128186E-1,2.865235072E-1,2.312708286E0
1.040060033E1,-2.192139567E0,-1.011516268E0,-5.838672870E-1,2.483856286E0
1.041056633E1,-2.271427519E0,-9.946973366E-1,-1.318391009E0,2.808373304E0
1.042053233E1,-2.295489396E0,-1.011667418E0,-1.877342141E0,3.133234119E0
1.043049733E1,-2.145223701E0,-1.133863116E0,-2.211478940E0,3.283027474E0
1.044046333E1,-1.865468931E0,-1.284754609E0,-2.436402031E0,3.326653512E0
1.045042833E1,-1.536629709E0,-1.425461129E0,-2.502358038E0,3.264194547E0
1.046039433E1,-1.250608039E0,-1.531705914E0,-2.416632594E0,3.122540083E0
1.047035933E1,-1.027217942E0,-1.663611791E0,-2.249900994E0,2.980744097E0
1.048032533E1,-8.452742256E-1,-1.760388472E0,-2.113663208E0,2.877677579E0
1.049029133E1,-7.043129128E-1,-1.811737843E0,-2.033554600E0,2.813146815E0
1.050025633E1,-6.749221757E-1,-1.830708549E0,-2.056324827E0,2.834693199E0
1.051022233E1,-6.709929930E-1,-1.821152445E0,-2.137426878E0,2.887113001E0
1.052018733E1,-7.005542495E-1,-1.750656951E0,-2.220224036E0,2.912897318E0
1.053015333E1,-8.198782331E-1,-1.671303510E0,-2.337872939E0,2.988495544E0
1.054011933E1,-8.835594548E-1,-1.637283533E0,-2.456983060E0,3.081905325E0
1.055008433E1,-8.233752336E-1,-1.630524444E0,-2.529765108E0,3.120299383E0
1.056005033E1,-7.604284953E-1,-1.518977111E0,-2.653430210E0,3.150592776E0
1.057001533E1,-7.383010963E-1,-1.301400462E0,-2.955472228E0,3.312634565E0
1.057998133E1,-8.295726974E-1,-1.070260612E0,-3.269653065E0,3.538965923E0
1.058994733E1,-8.969614193E-1,-7.939109677E-1,-3.522701848E0,3.720787916E0
1.059991233E1,-8.848898426E-1,-4.540240163E-1,-3.562336614E0,3.698568641E0
1.060987833E1,-8.851912665E-1,-9.761341810E-2,-3.314915777E0,3.432456637E0
1.061984333E1,-8.207855017E-1,2.237752819E-1,-2.847695764E0,2.972059115E0
1.062980933E1,-7.900896661E-1,5.082206887E-1,-2.422089801E0,2.597893176E0
1.063977533E1,-9.088786295E-1,7.380267888E-1,-1.993138645E0,2.311567772E0
1.064974033E1,-1.148849237E0,9.420107076E-1,-1.572000539E0,2.162966583E0
1.065970633E1,-1.374335414E0,1.158311494E0,-1.100465282E0,2.107488359E0
1.066967133E1,-1.603602401E0,1.386247070E0,-5.479963732E-1,2.189411250E0
1.067963733E1,-1.629303253E0,1.671489452E0,-5.233959675E-2,2.334790250E0
1.068960333E1,-1.552734548E0,1.746562438E0,4.199791878E-1,2.374415180E0
1.069956833E1,-1.315755377E0,1.729226906E0,8.563013434E-1,2.335527755E0
1.070953433E1,-1.070557212E0,1.777571685E0,1.244107981E0,2.419433510E0
1.071949933E1,-7.996316642E-1,1.877792376E0,1.572660105E0,2.576582002E0
1.072946533E1,-5.070690065E-1,1.891158819E0,1.915423302E0,2.739059525E0
1.073943133E1,-2.418275370E-1,1.827884344E0,2.271423426E0,2.925577911E0
1.074939633E1,2.456097353E-2,1.695040575E0,2.576215389E0,3.083934422E0
1.075936233E1,1.887601446E-1,1.541461701E0,2.854092618E0,3.249242872E0
1.076932733E1,3.697921705E-1,1.384384147E0,3.080158255E0,3.397151835E0
1.077929333E1,5.992260222E-1,1.279624262E0,3.121883985E0,3.426757898E0
1.078925933E1,7.780901563E-1,1.338223887E0,2.992590353E0,3.369252808E0
1.079922433E1,8.228487649E-1,1.413379320E0,2.733193249E0,3.185132105E0
1.080919033E1,7.368206544E-1,1.472879417E0,2.369877089E0,2.885930676E0
1.081915533E1,7.572106263E-1,1.610869028E0,2.050308627E0,2.715148693E0
1.082912133E1,7.149078483E-1,1.667541997E0,1.922797810E0,2.643660523E0
1.083908733E1,6.884981679E-1,1.586510990E0,2.086008217E0,2.709700561E0
1.084905233E1,5.686797291E-1,1.285684023E0,2.534711267E0,2.898472227E0
1.085901833E1,4.543106029E-1,8.383723184E-1,3.203109997E0,3.342032304E0
1.086898333E1,3.026412110E-1,4.118234915E-1,3.802770613E0,3.836959034E0
1.087894933E1,1.716154870E-1,4.267648816E-2,4.112566624E0,4.116367014E0
1.088891533E1,1.033466130E-1,-3.195813257E-1,3.931725107E0,3.946045497E0
1.089888033E1,8.367307127E-2,-5.641092530E-1,3.321696793E0,3.370295242E0
1.090884633E1,2.114505208E-1,-7.042450851E-1,2.349552167E0,2.461923607E0
1.091881133E1,4.075925924E-1,-8.252994061E-1,1.353674278E0,1.636974307E0
1.092877733E1,5.932979688E-1,-9.621578738E-1,4.832349515E-1,1.229335704E0
1.093874333E1,6.887534720E-1,-1.134224474E0,-1.585823357E-1,1.336411186E0
1.094870833E1,7.364080603E-1,-1.305762777E0,-5.791509229E-1,1.607087133E0
1.095867433E1,7.927295378E-1,-1.449882025E0,-8.271763623E-1,1.847917406E0
1.096863933E1,7.682153054E-1,-1.579702199E0,-9.772650325E-1,2.010139482E0
1.097860533E1,7.112629133E-1,-1.678705501E0,-1.070381942E0,2.114158128E0
1.098857133E1,5.622875530E-1,-1.712997374E0,-1.092794319E0,2.108252053E0
1.099853633E1,3.411569667E-1,-1.714307150E0,-1.094720392E0,2.062437834E0
1.100850233E1,1.812853199E-1,-1.720643778E0,-1.130179077E0,2.066587555E0
1.101846733E1,8.333846435E-2,-1.686239053E0,-1.229012809E0,2.088257630E0
1.102843333E1,6.363407850E-2,-1.653708361E0,-1.476151811E0,2.217616921E0
1.103839933E1,1.069358533E-1,-1.656531397E0,-1.831725672E0,2.471993221E0
1.104836433E1,2.564157553E-1,-1.653521250E0,-2.254688110E0,2.807757119E0
1.105833033E1,4.792049774E-1,-1.587419647E0,-2.646449220E0,3.123016493E0
1.106829533E1,6.274948979E-1,-1.442729419E0,-2.931792759E0,3.327255145E0
1.107826133E1,6.112321101E-1,-1.331407496E0,-3.136295618E0,3.461589348E0
1.108822733E1,5.341962133E-1,-1.211147227E0,-3.210061167E0,3.472281079E0
1.109819233E1,3.783543214E-1,-1.061269933E0,-3.122631844E0,3.319680030E0
1.110815833E1,2.026547735E-1,-8.678729832E-1,-2.956884915E0,3.088274741E0
1.111812333E1,5.069879495E-2,-7.052145535E-1,-2.786258485E0,2.874566798E0
1.112808933E1,-5.753725983E-2,-5.709417245E-1,-2.625333754E0,2.687315075E0
1.113805533E1,-1.784409419E-1,-4.215143743E-1,-2.575126637E0,2.615490917E0
1.114802033E1,-3.488094371E-1,-3.286588356E-1,-2.580360480E0,2.624489448E0
1.115798633E1,-5.195884799E-1,-2.373507625E-1,-2.428804743E0,2.495075160E0
1.116795133E1,-6.163378988E-1,-8.510008425E-2,-2.312166824E0,2.394416391E0
1.117791733E1,-5.711428687E-1,2.164171457E-2,-2.183874820E0,2.257428132E0
1.118788233E1,-4.348689763E-1,1.574023676E-1,-2.048863195E0,2.100411132E0
1.119784833E1,-2.087985892E-1,2.858545858E-1,-1.809352471E0,1.843655624E0
1.120781433E1,4.660691343E-2,3.564006579E-1,-1.396294633E0,1.441815638E0
1.121777933E1,2.374824710E-1,3.496728516E-1,-7.722253990E-1,8.803414645E-1
1.122774533E1,2.827345846E-1,3.261661676E-1,-6.064673603E-2,4.358913176E-1
1.123771033E1,2.695323756E-1,2.946514294E-1,5.452698165E-1,6.758597037E-1
1.124767633E1,3.197297718E-1,2.990321633E-1,8.962138528E-1,9.974199876E-1
1.125764233E1,3.842748465E-1,3.040388417E-1,1.110394439E0,1.213706136E0
1.126760733E1,3.973340911E-1,2.758918074E-1,1.172299495E0,1.268178527E0
1.127757333E1,3.075420548E-1,2.393332610E-1,1.217746394E0,1.278580778E0
1.128753833E1,-2.663231313E-2,2.173597169E-1,1.209063864E0,1.228735103E0
1.129750433E1,-4.369303391E-1,1.761950263E-1,1.145559009E0,1.238651788E0
1.130747033E1,-7.081670319E-1,1.999741906E-1,1.056034629E0,1.287128338E0
1.131743533E1,-7.791044290E-1,3.062838802E-1,9.861235642E-1,1.293542891E0
1.132740133E1,-8.322578119E-1,3.223105136E-1,9.899833113E-1,1.332893128E0
1.133736633E1,-8.474760678E-1,2.166811475E-1,1.191111158E0,1.477806548E0
1.134733233E1,-7.034700367E-1,1.775790623E-1,1.513964000E0,1.678836326E0
1.135729833E1,-5.030024873E-1,1.453436548E-1,1.939949448E0,2.009363118E0
1.136726333E1,-2.476921481E-1,5.526700526E-2,2.348669237E0,2.362340583E0
1.137722933E1,-2.168439925E-3,-8.990532607E-2,2.740537351E0,2.742012517E0
1.138719433E1,1.336778748E-1,-2.707883576E-1,3.003449217E0,3.018592935E0
1.139716033E1,6.284843199E-2,-3.461291465E-1,3.026503619E0,3.046880284E0
1.140712633E1,-3.694848262E-1,-3.007717100E-1,2.548745170E0,2.592891166E0
1.141709133E1,-1.135004784E0,-1.931361642E-1,1.691511195E0,2.046154335E0
1.142705733E1,-1.860082622E0,-3.481402963E-2,8.547173327E-1,2.047354658E0
1.143702233E1,-2.293154895E0,4.175292045E-2,3.705930197E-1,2.323282562E0
1.144698833E1,-2.271507918E0,-6.646266907E-2,4.173058408E-1,2.310478235E0
1.145695433E1,-1.771259615E0,-2.127535728E-1,8.578479320E-1,1.979527161E0
1.146691933E1,-1.028152035E0,-4.275843689E-1,1.394173847E0,1.784277365E0
1.147688533E1,-3.420038628E-1,-7.107331556E-1,1.743087730E0,1.913233675E0
1.148685033E1,1.929974391E-1,-8.799641481E-1,1.814518486E0,2.025848526E0
1.149681633E1,5.244444463E-1,-9.533028504E-1,1.577614451E0,1.916427838E0
1.150678233E1,5.223182525E-1,-9.227289292E-1,9.881478703E-1,1.449372708E0
1.151674733E1,2.335468563E-1,-8.356603798E-1,2.087964696E-1,8.924507663E-1
1.152671333E1,-1.614856976E-1,-6.818631130E-1,-4.929255420E-1,8.567324701E-1
1.153667833E1,-5.773548044E-1,-4.373366475E-1,-1.073972132E0,1.295383362E0
1.154664433E1,-9.343847689E-1,-2.427056426E-1,-1.435548745E0,1.729965643E0
1.155660933E1,-1.092018175E0,-2.079006761E-1,-1.590911604E0,1.940805533E0
1.156657533E1,-1.025179822E0,-2.348981479E-1,-1.580812293E0,1.898720178E0
1.157654133E1,-9.151024789E-1,-2.622689644E-1,-1.369355925E0,1.667732954E0
1.158650633E1,-7.591426925E-1,-3.559170932E-1,-1.201797529E0,1.465364086E0
1.159647233E1,-5.615863256E-1,-3.991028738E-1,-1.156813145E0,1.346431935E0
1.160643733E1,-3.905216463E-1,-4.212351698E-1,-1.347847527E0,1.465141352E0
1.161640333E1,-1.841012293E-1,-3.928609711E-1,-1.754398000E0,1.807248004E0
1.162636933E1,2.995459143E-2,-3.382552859E-1,-2.286660685E0,2.311737659E0
1.163633433E1,2.766056428E-1,-2.401138642E-1,-2.728156457E0,2.752635647E0
1.164630033E1,3.636573814E-1,-6.153726697E-2,-3.030893708E0,3.053252397E0
1.165626533E1,3.018887474E-1,1.271874654E-1,-3.143931497E0,3.160952186E0
1.166623133E1,1.817089507E-1,3.154929525E-1,-3.100821730E0,3.122122571E0
1.167619733E1,6.109909125E-2,4.475002778E-1,-2.974323651E0,3.008419981E0
1.168616233E1,4.569105674E-2,5.387720981E-1,-2.752441113E0,2.805048151E0
1.169612833E1,2.148986969E-2,6.813085046E-1,-2.434694059E0,2.528315299E0
1.170609333E1,6.544276848E-2,8.641638020E-1,-1.981897958E0,2.163095316E0
1.171605933E1,4.918842260E-2,1.057682082E0,-1.504171668E0,1.839468210E0
1.172602533E1,-1.395826490E-1,1.205303519E0,-1.019624602E0,1.584889339E0
1.173599033E1,-2.400307607E-1,1.349809268E0,-6.340486765E-1,1.510502417E0
1.174595633E1,-1.979411137E-1,1.443395709E0,-3.129593539E-1,1.490139394E0
1.175592133E1,-2.050943050E-1,1.458389724E0,-2.567980170E-2,1.472964261E0
1.176588733E1,-2.911971136E-1,1.430924475E0,2.558238709E-1,1.482493327E0
1.177585333E1,-3.322295109E-1,1.472713063E0,4.944621903E-1,1.588632454E0
1.178581833E1,-2.668699191E-1,1.515502110E0,6.569732702E-1,1.673194573E0
1.179578433E1,-9.955995619E-2,1.498667099E0,7.904447383E-1,1.697267847E0
1.180574933E1,1.205785038E-1,1.406599473E0,1.113335588E0,1.797936980E0
1.181571533E1,3.841525666E-1,1.335303496E0,1.649883698E0,2.157017579E0
1.182568033E1,7.776684990E-1,1.268291188E0,2.194885712E0,2.651575780E0
1.183564633E1,1.197313080E0,1.131889388E0,2.511551031E0,3.003767764E0
1.184561233E1,1.501816702E0,1.027395259E0,2.544862618E0,3.128469302E0
1.185557733E1,1.664021096E0,1.012285177E0,2.354265608E0,3.055528438E0
1.186554333E1,1.838724790E0,1.051617642E0,2.022824374E0,2.928929321E0
1.187550833E1,1.781312733E0,1.098218489E0,1.501320566E0,2.575484876E0
1.188547433E1,1.505605990E0,1.065645405E0,8.038553274E-1,2.012121496E0
1.189544033E1,1.330616952E0,1.048869451E0,1.265980661E-1,1.699027860E0
1.190540533E1,1.250269777E0,1.107753544E0,-2.748378468E-1,1.692875740E0
1.191537133E1,1.000051340E0,1.005488081E0,-2.678036463E-1,1.443200525E0
1.192533633E1,6.250903036E-1,5.986917329E-1,1.139873761E-1,8.730193586E-1
1.193530233E1,3.311399554E-1,1.606335390E-1,7.929520243E-1,8.742023317E-1
1.194526833E1,1.182695845E-1,-1.308077690E-1,1.617809381E0,1.627392258E0
1.195523333E1,-9.908092305E-2,-4.261892232E-1,2.334167558E0,2.374824724E0
1.196519933E1,-9.904291615E-2,-6.925073844E-1,2.670816321E0,2.760912132E0
1.197516433E1,2.235317454E-1,-9.419612986E-1,2.743747473E0,2.909537373E0
1.198513033E1,8.708119400E-1,-1.040608797E0,2.622542294E0,2.952779739E0
1.199509633E1,1.590027067E0,-1.026885966E0,2.316225961E0,2.991251170E0
1.200506133E1,2.150541013E0,-1.085777661E0,1.822409304E0,3.020747498E0
1.201502733E1,2.471018717E0,-1.177290679E0,1.320730480E0,3.039124190E0
1.202499233E1,2.673659238E0,-1.137060665E0,8.869144410E-1,3.037758697E0
1.203495833E1,2.691948159E0,-1.106442598E0,4.929471767E-1,2.951914130E0
1.204492433E1,2.545460789E0,-1.085951323E0,1.910507548E-1,2.774015374E0
1.205488933E1,2.264674569E0,-1.011761558E0,-1.521036208E-2,2.480452320E0
1.206485533E1,1.887040771E0,-9.767051616E-1,-8.683699965E-2,2.126597402E0
1.207482033E1,1.495852981E0,-9.944394743E-1,-1.126056790E-2,1.796277487E0
1.208478633E1,1.177900105E0,-9.880303413E-1,6.559114158E-2,1.538816042E0
1.209475233E1,1.024564183E0,-9.896356943E-1,4.267181039E-2,1.425107525E0
1.210471733E1,1.006161680E0,-1.015293277E0,-1.418119365E-1,1.436416510E0
1.211468333E1,1.183051209E0,-1.055930548E0,-4.548625070E-1,1.649696756E0
1.212464833E1,1.458258892E0,-1.100695077E0,-8.487572658E-1,2.014556414E0
1.213461433E1,1.688262190E0,-1.112369043E0,-1.252945463E0,2.378542924E0
1.214457933E1,1.771506806E0,-1.099052010E0,-1.611019594E0,2.634679453E0
1.215454533E1,1.783407060E0,-1.014181136E0,-1.958138967E0,2.836091030E0
1.216451133E1,1.675163988E0,-9.370984617E-1,-2.342838394E0,3.028732351E0
1.217447633E1,1.506326806E0,-8.326329839E-1,-2.677534772E0,3.183000249E0
1.218444233E1,1.277568965E0,-7.126957735E-1,-2.959026166E0,3.300901934E0
1.219440733E1,1.047510850E0,-5.964510798E-1,-3.139292316E0,3.362765100E0
1.220437333E1,8.156605634E-1,-4.930524266E-1,-3.197439367E0,3.336468396E0
1.221433933E1,6.451094158E-1,-3.887179264E-1,-3.198476663E0,3.285958117E0
1.222430433E1,5.469970840E-1,-3.312070522E-1,-3.226640362E0,3.289393857E0
1.223427033E1,5.443215443E-1,-3.014271829E-1,-3.229294413E0,3.288690727E0
1.224423533E1,6.611481822E-1,-3.006419018E-1,-3.257023664E0,3.337020470E0
1.225420133E1,7.773874672E-1,-3.368095618E-1,-3.221747412E0,3.331280286E0
1.226416733E1,8.336351967E-1,-3.312523681E-1,-3.160398425E0,3.285238801E0
1.227413233E1,8.621188845E-1,-2.677103832E-1,-3.138507620E0,3.265753802E0
1.228409833E1,8.319661090E-1,-1.744741908E-1,-3.137074467E0,3.250206926E0
1.229406333E1,7.774846771E-1,-1.358015835E-1,-2.882682579E0,2.988776229E0
1.230402933E1,6.635149889E-1,-2.367069840E-2,-2.178546837E0,2.277472012E0
1.231399533E1,3.501675260E-1,8.664871931E-2,-1.138825355E0,1.194591347E0
1.232396033E1,-6.711565688E-2,1.645178443E-1,1.240410787E-1,2.166952277E-1
1.233392633E1,-6.859323366E-1,2.899260020E-1,1.503137296E0,1.677492768E0
1.234389133E1,-1.411682896E0,4.068983817E-1,2.825667549E0,3.184778169E0
1.235385733E1,-1.918095772E0,4.970335034E-1,4.004277944E0,4.467703610E0
1.236382217E1,-2.118844719E0,3.539214385E-1,4.823143659E0,5.279912696E0
1.237378817E1,-2.021255274E0,2.350855511E-1,5.246847523E0,5.627623568E0
1.238375417E1,-1.719259888E0,1.757480067E-1,5.270275562E0,5.546399411E0
1.239371917E1,-1.396894411E0,1.170138949E-1,4.874903212E0,5.072443944E0
1.240368517E1,-1.118548381E0,2.146726289E-1,4.286028369E0,4.434780039E0
1.241365017E1,-1.008473523E0,3.826382840E-1,3.665215450E0,3.820632827E0
1.242361617E1,-1.227744548E0,5.065793753E-1,3.125151994E0,3.395666993E0
1.243358217E1,-1.626501121E0,6.247337696E-1,2.791149681E0,3.290336566E0
1.244354717E1,-2.013518969E0,6.914119086E-1,2.698004120E0,3.436791425E0
1.245351317E1,-2.451179260E0,6.402809313E-1,2.953948444E0,3.891535795E0
1.246347817E1,-2.880609741E0,4.526847115E-1,3.183996034E0,4.317483836E0
1.247344417E1,-3.180021681E0,1.024867800E-1,3.220856296E0,4.527356482E0
1.248341017E1,-3.116287615E0,-2.777558997E-1,3.160894269E0,4.447431778E0
1.249337517E1,-2.648719693E0,-5.621434191E-1,3.134233305E0,4.141876344E0
1.250334117E1,-1.976679172E0,-8.705533469E-1,3.070287570E0,3.753903227E0
1.251330617E1,-1.255898015E0,-1.239217955E0,2.866443692E0,3.365923410E0
1.252327217E1,-6.587719468E-1,-1.581863915E0,2.467339649E0,3.004003806E0
1.253323717E1,-2.007102089E-1,-1.740281944E0,1.865841252E0,2.559341597E0
1.254320317E1,6.286122277E-2,-1.746765044E0,1.124963946E0,2.078625395E0
1.255316917E1,-7.106245436E-2,-1.638102728E0,1.690172768E-1,1.648331659E0
1.256313417E1,-4.307349949E-1,-1.484980522E0,-8.634635979E-1,1.770951487E0
1.257310017E1,-8.821819239E-1,-1.275284458E0,-1.778550509E0,2.359626519E0
1.258306517E1,-1.383255342E0,-1.035445705E0,-2.508525681E0,3.046021051E0
1.259303117E1,-1.857978501E0,-8.644131857E-1,-3.048328351E0,3.673091342E0
1.260299717E1,-2.143355077E0,-7.508459321E-1,-3.418775775E0,4.104359683E0
1.261296217E1,-2.135422452E0,-6.968623906E-1,-3.654680521E0,4.289794395E0
1.262292817E1,-1.903963344E0,-7.297471315E-1,-3.713804643E0,4.236738393E0
1.263289317E1,-1.598110550E0,-8.467279896E-1,-3.563482668E0,3.996162452E0
1.264285917E1,-1.295792690E0,-9.874991217E-1,-3.267290790E0,3.650948140E0
1.265282517E1,-1.101580784E0,-1.079617327E0,-2.923151743E0,3.305127821E0
1.266279017E1,-1.244747521E0,-1.109350418E0,-2.712190050E0,3.183713179E0
1.267275617E1,-1.365959716E0,-1.146137006E0,-2.479727560E0,3.054263373E0
1.268272117E1,-1.183293138E0,-1.096627754E0,-2.162580430E0,2.698060266E0
1.269268717E1,-7.524730660E-1,-1.047830985E0,-1.967278165E0,2.352519684E0
1.270265217E1,-1.385818615E-1,-9.997431913E-1,-2.074157665E0,2.306690573E0
1.271261817E1,3.761203196E-1,-8.889785081E-1,-2.515557543E0,2.694397713E0
1.272258417E1,7.828165338E-1,-7.336720750E-1,-2.968715002E0,3.156635108E0
1.273254917E1,1.039548112E0,-5.538304326E-1,-3.147136356E0,3.360335648E0
1.274251517E1,1.126728124E0,-3.772427657E-1,-2.985637429E0,3.213387500E0
1.275248017E1,9.919634709E-1,-6.980376810E-2,-2.557035937E0,2.743591966E0
1.276244617E1,8.146775003E-1,1.856996754E-1,-2.079744680E0,2.241321426E0
1.277241217E1,6.388018050E-1,3.723039150E-1,-1.475660645E0,1.650530911E0
1.278237717E1,4.234679291E-1,6.061352384E-1,-8.144604224E-1,1.100032179E0
1.279234317E1,8.122140683E-2,8.761853850E-1,-1.904555082E-1,9.003171921E-1
1.280230817E1,-3.022207231E-1,1.038426324E0,2.914854544E-1,1.120102837E0
1.281227417E1,-4.542259645E-1,1.126748516E0,6.925278497E-1,1.398384163E0
1.282224017E1,-3.744444345E-1,1.269162716E0,9.788391030E-1,1.645937005E0
1.283220517E1,-1.186323311E-1,1.370632665E0,1.147403805E0,1.791436023E0
1.284217117E1,1.301300767E-1,1.445682262E0,1.166775631E0,1.862336278E0
1.285213617E1,1.987221555E-1,1.499506467E0,1.133666357E0,1.890293509E0
1.286210217E1,1.993859607E-1,1.481154689E0,1.087157604E0,1.848103251E0
1.287206817E1,1.516468070E-1,1.482966448E0,1.119973347E0,1.864544593E0
1.288203317E1,1.117141248E-1,1.450916690E0,1.333918875E0,1.974076709E0
1.289199917E1,3.084711774E-1,1.370318377E0,1.779618795E0,2.267150188E0
1.290196417E1,5.790364636E-1,1.205640319E0,2.398493362E0,2.746201415E0
1.291193017E1,8.920662034E-1,1.043839676E0,2.969296215E0,3.271406944E0
1.292189517E1,1.317409554E0,9.376782131E-1,3.244306555E0,3.624959777E0
1.293186117E1,1.707126769E0,7.684413734E-1,3.116761240E0,3.635792153E0
1.294182717E1,1.904229977E0,5.457042646E-1,2.630651797E0,3.293055394E0
1.295179217E1,1.830573040E0,3.735096109E-1,1.931269841E0,2.687063506E0
1.296175817E1,1.545418074E0,2.861235577E-1,1.145054394E0,1.944565061E0
1.297172317E1,9.746236990E-1,2.197611684E-1,5.650860304E-1,1.147827752E0
1.298168917E1,1.796533620E-1,1.357770252E-1,5.018004459E-1,5.500131077E-1
1.299165517E1,-4.571452600E-1,-2.151132166E-2,1.006038596E0,1.105241233E0
1.300162017E1,-5.734544192E-1,-2.493653288E-1,1.747712293E0,1.856214238E0
1.301158617E1,-3.976833160E-1,-5.260891950E-1,2.379288767E0,2.468995119E0
1.302155117E1,1.785812750E-2,-8.478199571E-1,2.708204003E0,2.837866543E0
1.303151717E1,6.013595250E-1,-1.042783376E0,2.711989490E0,2.967139606E0
1.304148217E1,1.127728071E0,-1.070221436E0,2.482943528E0,2.929531206E0
1.305144817E1,1.450333869E0,-1.020920637E0,1.994698682E0,2.669189036E0
1.306141417E1,1.524991264E0,-9.501947629E-1,1.281845911E0,2.207169541E0
1.307137917E1,1.475831676E0,-8.828313303E-1,4.757809210E-1,1.784331185E0
1.308134517E1,1.321236410E0,-7.634127679E-1,-4.371787727E-1,1.587321639E0
1.309131017E1,1.078872099E0,-6.351532155E-1,-1.298175430E0,1.803508819E0
1.310127617E1,8.374581063E-1,-5.085952029E-1,-2.007247392E0,2.233617526E0
1.311124217E1,5.174997814E-1,-4.079959041E-1,-2.455330637E0,2.542226430E0
1.312120717E1,2.920020559E-1,-3.352851927E-1,-2.607789769E0,2.645420352E0
1.313117317E1,1.688857144E-1,-3.114516494E-1,-2.491567587E0,2.516631390E0
1.314113817E1,2.693014106E-1,-3.759835678E-1,-2.238176742E0,2.285458821E0
1.315110417E1,4.800881262E-1,-4.753353631E-1,-1.920106337E0,2.035494206E0
1.316107017E1,6.922382663E-1,-5.860570693E-1,-1.629231332E0,1.864685346E0
1.317103517E1,8.982301189E-1,-6.629286593E-1,-1.417317127E0,1.804183913E0
1.318100117E1,9.984404317E-1,-7.446011057E-1,-1.251841509E0,1.765905225E0
1.319096617E1,9.518350531E-1,-8.398311988E-1,-1.200287778E0,1.746996611E0
1.320093217E1,8.490733078E-1,-8.569062379E-1,-1.300804338E0,1.774064742E0
1.321089717E1,7.668551700E-1,-8.486257035E-1,-1.520327525E0,1.902532055E0
1.322086317E1,6.850746962E-1,-8.592094561E-1,-1.804313341E0,2.112608544E0
1.323082917E1,5.885588005E-1,-8.529184368E-1,-1.989131548E0,2.242881102E0
1.324079417E1,5.239774731E-1,-8.689313293E-1,-1.992799507E0,2.236256676E0
1.325076017E1,5.228483757E-1,-8.393686840E-1,-1.873763060E0,2.118702012E0
1.326072517E1,4.947985514E-1,-7.910291675E-1,-1.776596369E0,2.006700628E0
1.327069117E1,4.537740478E-1,-8.059582785E-1,-1.775081356E0,2.001597725E0
1.328065717E1,4.493582305E-1,-7.983285391E-1,-1.820301967E0,2.037829857E0
1.329062217E1,3.771584196E-1,-7.642117900E-1,-1.886155649E0,2.069746667E0
1.330058817E1,2.276744977E-1,-7.722680837E-1,-2.008001683E0,2.163401125E0
1.331055317E1,1.048141180E-1,-7.528833944E-1,-2.188408166E0,2.316667802E0
1.332051917E1,7.619521335E-2,-5.858638188E-1,-2.318553153E0,2.392640978E0
1.333048517E1,1.536575183E-2,-3.157876521E-1,-2.323010486E0,2.344426511E0
1.334045017E1,-9.464054748E-2,-7.972678542E-2,-2.141959639E0,2.145531237E0
1.335041617E1,-2.536082147E-1,7.885145724E-2,-1.789307631E0,1.808910301E0
1.336038117E1,-4.892108059E-1,2.498836845E-1,-1.284912776E0,1.397415439E0
1.337034829E1,-6.638721076E-1,3.453672543E-1,-7.338103616E-1,1.048085093E0
1.338031329E1,-6.511473969E-1,3.449637964E-1,-1.400279510E-1,7.500671839E-1
1.339027929E1,-5.265356299E-1,4.265526277E-1,4.276407945E-1,8.012886889E-1
1.340024529E1,-4.943940702E-1,5.457291153E-1,9.740011168E-1,1.221033963E0
1.341021029E1,-6.170309401E-1,5.684192356E-1,1.447461278E0,1.673012779E0
1.342017629E1,-6.922521535E-1,4.995688561E-1,1.781352494E0,1.975347766E0
1.343014129E1,-6.810599980E-1,4.606176290E-1,1.975533848E0,2.139800296E0
1.344010729E1,-6.334857358E-1,4.220730758E-1,2.039911693E0,2.177312466E0
1.345007329E1,-5.453643952E-1,4.277957457E-1,1.911340776E0,2.033139220E0
1.346003829E1,-3.008749133E-1,5.819610947E-1,1.585489481E0,1.715511971E0
1.347000429E1,-6.560254365E-2,7.932136872E-1,1.189660463E0,1.431357281E0
1.347996929E1,1.183512993E-1,9.735517582E-1,7.221241164E-1,1.217897079E0
1.348993529E1,1.828795633E-1,1.040371692E0,2.115715581E-1,1.077302519E0
1.349990029E1,1.588245566E-1,1.070780430E0,-1.522614956E-3,1.082496322E0
1.350986629E1,-2.809816624E-1,1.016922311E0,3.527555037E-1,1.112437920E0
1.351983229E1,-1.298599353E0,8.378241420E-1,1.493358997E0,2.149053435E0
1.352979729E1,-2.252223508E0,5.430531371E-1,2.989456830E0,3.782098568E0
1.353976329E1,-2.706394290E0,1.534478956E-1,4.325592384E0,5.104788515E0
1.354972829E1,-2.646450389E0,-1.895795953E-1,5.155787664E0,5.798429660E0
1.355969429E1,-2.062157425E0,-4.591450077E-1,5.303124050E0,5.708452686E0
1.356966029E1,-1.124981926E0,-6.238169262E-1,4.868643767E0,5.035714847E0
1.357962529E1,-3.252842613E-1,-6.801978260E-1,3.936353763E0,4.007912160E0
1.358959129E1,8.917559355E-2,-6.412527385E-1,2.813277299E0,2.886812519E0
1.359955629E1,1.360905822E-1,-5.379412088E-1,1.573471114E0,1.668446205E0
1.360952229E1,-6.028318539E-2,-4.337315467E-1,3.237100446E-1,5.445597396E-1
1.361948729E1,-2.873443101E-1,-2.260080412E-1,-8.148516011E-1,8.931010688E-1
1.362945329E1,-5.536472686E-1,5.185223132E-2,-1.699207885E0,1.787881816E0
1.363941929E1,-8.410563366E-1,1.906025657E-1,-2.161028579E0,2.326746574E0
1.364938429E1,-1.065454347E0,1.442212817E-1,-2.186250544E0,2.436325960E0
1.365935029E1,-9.946941206E-1,3.720290959E-2,-1.773671007E0,2.033890187E0
1.366931529E1,-6.506951147E-1,-9.522687703E-2,-1.070149807E0,1.256062459E0
1.367928129E1,-1.847325459E-1,-2.540673673E-1,-3.861343342E-1,4.977710967E-1
1.368924729E1,8.327136755E-2,-4.316531539E-1,8.053896368E-2,4.469285072E-1
1.369921229E1,1.929484686E-1,-5.920908111E-1,3.042423248E-1,6.930829910E-1
1.370917829E1,2.705098839E-1,-6.573574322E-1,2.812838173E-1,7.644703898E-1
1.371914329E1,3.151921132E-1,-6.692097384E-1,-2.972315133E-2,7.403183153E-1
1.372910929E1,2.673621815E-1,-6.124762514E-1,-6.887628275E-1,9.596894952E-1
1.373907429E1,2.165894924E-1,-5.382093036E-1,-1.457154207E0,1.568400028E0
1.374904029E1,3.005710774E-1,-3.779406309E-1,-2.134925439E0,2.188855574E0
1.375900629E1,3.530333195E-1,-2.014889118E-1,-2.628836237E0,2.660077116E0
1.376897129E1,3.006630249E-1,1.609153748E-3,-2.863143523E0,2.878887229E0
1.377893729E1,2.056494981E-1,1.265276071E-1,-2.851825653E0,2.862029089E0
1.378890229E1,2.070832354E-1,2.471448487E-1,-2.766541089E0,2.785267247E0
1.379886829E1,1.366465793E-1,4.435873210E-1,-2.649893230E0,2.690237188E0
1.380883429E1,-2.619099453E-2,5.969977945E-1,-2.489094799E0,2.559821332E0
1.381879929E1,-1.973935951E-1,6.927664161E-1,-2.245048975E0,2.357781677E0
1.382876529E1,-3.316408425E-1,7.895460212E-1,-1.885541691E0,2.070902228E0
1.383873029E1,-3.548016637E-1,9.992219120E-1,-1.403543426E0,1.759051676E0
1.384869629E1,-3.388503863E-1,1.202246595E0,-9.746542507E-1,1.584350772E0
1.385866129E1,-3.157681371E-1,1.226574813E0,-5.473964489E-1,1.379796420E0
1.386862729E1,-2.117219777E-1,1.230402108E0,-1.161093307E-1,1.253872768E0
1.387859329E1,-7.485598169E-2,1.213503655E0,2.791489989E-1,1.247444869E0
1.388855829E1,-3.778163776E-2,1.106997499E0,7.331572276E-1,1.328303593E0
1.389852429E1,-1.574802087E-1,1.005504745E0,1.098515235E0,1.497523132E0
1.390848929E1,-2.503624253E-1,8.753246748E-1,1.315590193E0,1.599891304E0
1.391845529E1,-3.381039161E-1,7.418084756E-1,1.402868657E0,1.622539535E0
1.392842129E1,-3.919280478E-1,6.049649182E-1,1.488830329E0,1.654148087E0
1.393838629E1,-2.293997917E-1,5.240154800E-1,1.690047053E0,1.784229673E0
1.394835229E1,2.968339026E-2,4.855571732E-1,1.944461160E0,2.004389202E0
1.395831729E1,3.201162728E-1,4.103491160E-1,2.088844117E0,2.152703084E0
1.396828329E1,8.164364889E-1,3.720021987E-1,2.066515355E0,2.252873695E0
1.397824929E1,1.415478031E0,3.742984003E-1,1.916215015E0,2.411546668E0
1.398821429E1,2.000977715E0,3.247037789E-1,1.717157083E0,2.656684552E0
1.399818029E1,2.270846159E0,2.944049692E-1,1.498377662E0,2.736521914E0
1.400814529E1,2.157576237E0,2.610740858E-1,1.240815999E0,2.502582514E0
1.401811129E1,1.669058764E0,1.467510796E-1,7.964153302E-1,1.855147007E0
1.402807629E1,9.166066021E-1,2.883115858E-2,3.079751873E-1,9.673921721E-1
1.403804229E1,-3.995417073E-2,-3.665151715E-2,2.051051223E-1,2.121503728E-1
1.404800829E1,-9.466697690E-1,-2.322718710E-2,6.389901584E-1,1.142379786E0
1.405797329E1,-1.539232304E0,-7.522618353E-2,1.356790259E0,2.053235221E0
1.406793929E1,-1.718054923E0,-3.092294151E-1,2.126374471E0,2.751145932E0
1.407790429E1,-1.366169778E0,-5.924127004E-1,2.586080226E0,2.984155426E0
1.408787029E1,-5.860645245E-1,-8.224597058E-1,2.665328709E0,2.850243625E0
1.409783529E1,1.771283881E-1,-9.143393442E-1,2.316838165E0,2.497024226E0
1.410780129E1,6.663956197E-1,-9.427033103E-1,1.637170097E0,2.003271968E0
1.411776729E1,8.773488347E-1,-9.651706517E-1,7.533798230E-1,1.506279032E0
1.412773229E1,8.783902238E-1,-9.514299873E-1,-7.571910381E-2,1.297120576E0
1.413769829E1,6.976117113E-1,-9.220833966E-1,-7.806711173E-1,1.395115509E0
1.414766329E1,4.022972077E-1,-9.136417714E-1,-1.333503723E0,1.665778049E0
1.415762929E1,1.467352921E-1,-9.506879756E-1,-1.769834649E0,2.014361824E0
1.416759529E1,5.034803510E-2,-9.975326514E-1,-2.061207837E0,2.290454990E0
1.417756029E1,1.042067385E-1,-1.048197313E0,-2.144153515E0,2.388926735E0
1.418752629E1,2.541359259E-1,-1.099056687E0,-2.116225458E0,2.398107767E0
1.419749129E1,4.773180078E-1,-1.122526534E0,-1.986080471E0,2.330753942E0
1.420745729E1,6.928009146E-1,-1.160611788E0,-1.909040481E0,2.339108461E0
1.421742229E1,9.450853197E-1,-1.184369903E0,-1.869112185E0,2.406137711E0
1.422738829E1,1.227658740E0,-1.190420017E0,-1.916654726E0,2.568620473E0
1.423735429E1,1.443831326E0,-1.159170742E0,-2.097718436E0,2.797990055E0
1.424731929E1,1.502382566E0,-1.087988200E0,-2.398084642E0,3.031778628E0
1.425728529E1,1.422540152E0,-9.658372343E-1,-2.662080581E0,3.169090574E0
1.426725029E1,1.216109905E0,-8.154231665E-1,-2.736572939E0,3.103654248E0
1.427721629E1,9.643340613E-1,-6.969498065E-1,-2.621009738E0,2.878432084E0
1.428718229E1,8.061955293E-1,-5.757919899E-1,-2.347616739E0,2.548095759E0
1.429714729E1,8.023131242E-1,-4.189085627E-1,-2.039665525E0,2.231462791E0
1.430711329E1,8.598513342E-1,-2.654866871E-1,-1.776203436E0,1.991162009E0
1.431707829E1,8.843008818E-1,-1.199866194E-1,-1.422114183E0,1.678926320E0
1.432704429E1,8.228688647E-1,7.207570374E-3,-8.981896269E-1,1.218158333E0
1.433700929E1,7.177881137E-1,1.002332631E-1,-3.905273473E-1,8.232727933E-1
1.434697529E1,5.655304188E-1,1.516285345E-1,-1.171852183E-1,5.971166070E-1
1.435694129E1,4.234774308E-1,1.884893820E-1,-1.690628850E-1,4.934000817E-1
1.436690542E1,3.555918418E-1,1.934156612E-1,-4.189085627E-1,5.825285914E-1
1.437687142E1,2.154829068E-1,1.984191236E-1,-7.011074692E-1,7.598386112E-1
1.438683642E1,-3.804110795E-2,2.227157664E-1,-8.768829578E-1,9.055236939E-1
1.439680242E1,-2.813573460E-1,2.509230271E-1,-9.458906275E-1,1.018250166E0
1.440676742E1,-6.029464594E-1,2.477892119E-1,-9.209773958E-1,1.128336514E0
1.441673342E1,-9.098318718E-1,2.196962643E-1,-7.528927499E-1,1.201211046E0
1.442669942E1,-1.044184223E0,2.133558360E-1,-3.355132341E-1,1.117322932E0
1.443666442E1,-9.641514820E-1,1.982793751E-1,2.463899732E-1,1.014697398E0
1.444663042E1,-7.654044758E-1,6.088910311E-2,9.431389278E-1,1.216167148E0
1.445659542E1,-5.679413719E-1,-1.751039359E-1,1.598826395E0,1.705715285E0
1.446656142E1,-4.728153594E-1,-4.121968362E-1,2.099190180E0,2.190903925E0
1.447652742E1,-5.308694400E-1,-6.067448106E-1,2.423477930E0,2.554056950E0
1.448649242E1,-6.177345063E-1,-7.004350394E-1,2.458603324E0,2.630006743E0
1.449645842E1,-5.796166536E-1,-6.847343883E-1,2.246431841E0,2.418940401E0
1.450642342E1,-4.559544745E-1,-5.447190088E-1,1.863900561E0,1.994677564E0
1.451638942E1,-4.236486080E-1,-4.023357993E-1,1.443289289E0,1.557060118E0
1.452635442E1,-9.038785292E-1,-2.600929230E-1,1.132498083E0,1.472140154E0
1.453632042E1,-1.951174494E0,-1.272868681E-1,9.834560645E-1,2.188714162E0
1.454628642E1,-3.143728598E0,6.716842800E-2,8.950637054E-1,3.269354697E0
1.455625142E1,-3.880730370E0,1.713389137E-1,8.127951354E-1,3.968634672E0
1.456621742E1,-3.819435178E0,1.241694251E-1,8.379621363E-1,3.912247905E0
1.457618242E1,-3.165232903E0,-6.593729675E-2,9.206300712E-1,3.297060325E0
1.458614842E1,-2.359339090E0,-5.368568426E-1,1.155787543E0,2.681518424E0
1.459611342E1,-1.529528119E0,-9.144004476E-1,1.561717626E0,2.369503405E0
1.460607942E1,-9.468045473E-1,-9.963626236E-1,2.084323050E0,2.496713821E0
1.461604542E1,-6.525884432E-1,-8.901128680E-1,2.533595034E0,2.763562264E0
1.462601042E1,-6.056835410E-1,-7.299129000E-1,2.698371325E0,2.860215587E0
1.463597642E1,-6.967496856E-1,-6.032502222E-1,2.476879381E0,2.642783083E0
1.464594142E1,-8.037784365E-1,-5.016700530E-1,1.905147990E0,2.127750333E0
1.465590742E1,-9.265607558E-1,-3.714636701E-1,1.113167773E0,1.495206535E0
1.466587342E1,-1.026945023E0,-2.305603909E-1,1.376843870E-1,1.061475937E0
1.467583842E1,-1.086631062E0,-1.178632030E-1,-7.412205380E-1,1.320631169E0
1.468580442E1,-1.167664846E0,-6.468628496E-2,-1.337872762E0,1.776943735E0
1.469576942E1,-1.281960078E0,-1.096993205E-1,-1.599599397E0,2.052845297E0
1.470573542E1,-1.370177751E0,-2.218614882E-1,-1.490941758E0,2.037036307E0
1.471570042E1,-1.395112910E0,-3.556004664E-1,-1.126907560E0,1.828308610E0
1.472566642E1,-1.227965573E0,-4.944028410E-1,-5.892186588E-1,1.448969374E0
1.473563242E1,-9.301992588E-1,-6.309142765E-1,-1.113023347E-1,1.129474079E0
1.474559742E1,-5.705695492E-1,-7.875135291E-1,2.060634810E-1,9.940771233E-1
1.475556342E1,-1.359895715E-1,-8.949257112E-1,3.413768220E-1,9.674313033E-1
1.476552842E1,3.095887996E-1,-8.882446826E-1,2.715376782E-1,9.790590133E-1
1.477549442E1,6.180696979E-1,-7.980133742E-1,-1.121437490E-1,1.015584422E0
1.478545942E1,7.351627495E-1,-6.963343871E-1,-8.195644569E-1,1.302701710E0
1.479542542E1,7.357031053E-1,-5.985022831E-1,-1.631955550E0,1.887522969E0
1.480539142E1,7.023678365E-1,-4.221543521E-1,-2.264400920E0,2.408120927E0
1.481535642E1,6.105843848E-1,-2.263737845E-1,-2.606951278E0,2.687052911E0
1.482532242E1,4.790715878E-1,-9.863375723E-2,-2.694675300E0,2.738706479E0
1.483528742E1,4.586656091E-1,7.476366878E-2,-2.625930755E0,2.666735097E0
1.484525342E1,5.380094750E-1,2.705708411E-1,-2.461720474E0,2.534310650E0
1.485521942E1,5.448260128E-1,4.594598803E-1,-2.293993678E0,2.402154400E0
1.486518442E1,5.811491358E-1,6.465973860E-1,-2.088419609E0,2.262149191E0
1.487515042E1,6.328690007E-1,8.753530338E-1,-1.860693364E0,2.151498524E0
1.488511542E1,6.098575759E-1,1.042024408E0,-1.606416081E0,2.009555611E0
1.489508142E1,4.970144268E-1,1.123213582E0,-1.257569441E0,1.757871722E0
1.490504642E1,2.522901061E-1,1.165274943E0,-8.914331692E-1,1.488680317E0
1.491501242E1,9.709374681E-3,1.182462541E0,-5.364007598E-1,1.298475147E0
1.492497842E1,-5.774885595E-2,1.229993387E0,-2.969315511E-1,1.266643995E0
1.493494342E1,-3.004145913E-2,1.218627277E0,-2.420566016E-1,1.242797783E0
1.494490942E1,4.274095371E-3,1.145481825E0,-2.753050393E-1,1.178108546E0
1.495487442E1,3.052750893E-2,1.037709747E0,-2.108657992E-1,1.059357274E0
1.496484042E1,1.468813263E-1,8.951604769E-1,8.855432689E-2,9.114429616E-1
1.497480542E1,2.472448361E-1,7.690047526E-1,5.841578937E-1,9.968644658E-1
1.498477142E1,3.483670952E-1,6.535815927E-1,1.167599503E0,1.382684755E0
1.499473742E1,5.041364086E-1,5.494675326E-1,1.641350856E0,1.802803572E0
1.500470242E1,6.225841869E-1,3.343265417E-1,1.989757200E0,2.111520548E0
1.501466842E1,8.310350861E-1,3.079231471E-1,2.274321306E0,2.440896020E0
1.502463342E1,1.031576822E0,2.815329087E-1,2.450956335E0,2.674060298E0
1.503459942E1,9.334524304E-1,2.950388074E-2,2.318759560E0,2.499769953E0
1.504456442E1,5.245244070E-1,-3.073393026E-1,1.911292829E0,2.005647920E0
1.505453042E1,2.484357677E-2,-5.054643112E-1,1.438693963E0,1.525107108E0
1.506449642E1,-4.024013612E-1,-5.521908733E-1,1.134997768E0,1.324787360E0
1.507446142E1,-7.235115876E-1,-6.249623957E-1,1.073620130E0,1.437604673E0
1.508442742E1,-8.745130813E-1,-7.961127368E-1,1.350540755E0,1.795140370E0
1.509439242E1,-7.664234262E-1,-1.023485518E0,1.986517258E0,2.362451754E0
1.510435842E1,-3.344620509E-1,-1.254970354E0,2.670397661E0,2.969484655E0
1.511432442E1,2.749634157E-1,-1.498403390E0,3.176427398E0,3.522855179E0
1.512428942E1,8.578995337E-1,-1.752659622E0,3.302246030E0,3.835705438E0
1.513425542E1,1.193916798E0,-1.905783582E0,2.946714853E0,3.706828403E0
1.514422042E1,1.372231001E0,-1.920956230E0,2.184984621E0,3.216713937E0
1.515418642E1,1.396887394E0,-1.763286937E0,1.194559261E0,2.547046729E0
1.516415142E1,1.193962772E0,-1.584597488E0,1.379972130E-1,1.988853823E0
1.517411742E1,9.797537537E-1,-1.415141086E0,-8.104948407E-1,1.902483534E0
1.518408342E1,8.027671605E-1,-1.213939857E0,-1.652677497E0,2.202141685E0
1.519404842E1,6.835222605E-1,-1.058111267E0,-2.254891593E0,2.582893383E0
1.520401442E1,5.701409483E-1,-8.994847852E-1,-2.549568458E0,2.763047756E0
1.521397942E1,3.187428349E-1,-8.797761601E-1,-2.574862928E0,2.739620810E0
1.522394542E1,1.725794005E-1,-8.210426331E-1,-2.395224769E0,2.537911808E0
1.523391142E1,1.728955887E-1,-7.249129459E-1,-2.091312811E0,2.220130838E0
1.524387642E1,1.485001279E-1,-7.411322451E-1,-1.884400315E0,2.030343281E0
1.525384242E1,8.757601462E-2,-7.943059471E-1,-1.707306279E0,1.885069289E0
1.526380742E1,5.059990391E-2,-8.137651885E-1,-1.501692449E0,1.708758129E0
1.527377342E1,8.287784994E-2,-7.630598885E-1,-1.271167141E0,1.484922568E0
1.528373842E1,1.068469025E-1,-6.672634926E-1,-1.099043823E0,1.290176017E0
1.529370442E1,8.320478238E-2,-6.132282034E-1,-1.064010231E0,1.230889774E0
1.530366942E1,4.692434415E-2,-6.070953512E-1,-1.159975319E0,1.310079921E0
1.531363542E1,1.367070249E-1,-5.695147115E-1,-1.315574990E0,1.440060197E0
1.532360142E1,4.096101011E-1,-4.672062716E-1,-1.387137308E0,1.519938172E0
1.533356642E1,6.029243861E-1,-3.835235524E-1,-1.438252498E0,1.605982060E0
1.534353242E1,7.367629132E-1,-2.995408711E-1,-1.617851481E0,1.802772237E0
1.535349742E1,7.686865179E-1,-2.462458393E-1,-1.757708108E0,1.934180387E0
1.536346342E1,7.197442266E-1,-1.136149085E-1,-1.761980084E0,1.906702367E0
1.537342883E1,6.006309620E-1,5.299857795E-2,-1.590316942E0,1.700786400E0
1.538339383E1,4.577066658E-1,1.782564622E-1,-1.371343979E0,1.456658871E0
1.539335983E1,2.846551757E-1,2.938556233E-1,-1.248551280E0,1.313872139E0
1.540332483E1,9.485075489E-2,4.087218359E-1,-1.221691511E0,1.291735403E0
1.541329083E1,-1.046759044E-1,5.709776849E-1,-1.246066799E0,1.374647238E0
1.542325583E1,-1.628787236E-1,7.419903240E-1,-1.198411406E0,1.418897113E0
1.543322183E1,-2.109795275E-1,8.807143459E-1,-1.121646236E0,1.441617286E0
1.544318783E1,-3.104606925E-1,9.346209964E-1,-1.057877671E0,1.445339896E0
1.545315283E1,-4.196296705E-1,9.883694798E-1,-9.363713604E-1,1.424694569E0
1.546311883E1,-5.158827339E-1,1.016031195E0,-6.625532681E-1,1.318116542E0
1.547308383E1,-5.175275557E-1,9.872465220E-1,-2.878759682E-1,1.151244127E0
1.548304983E1,-4.453591005E-1,9.148752415E-1,1.526585215E-1,1.028905273E0
1.549301483E1,-4.509290850E-1,8.078600854E-1,5.941449380E-1,1.099537705E0
1.550298083E1,-7.744566965E-1,6.658493435E-1,1.042822260E0,1.459663245E0
1.551294683E1,-1.267733364E0,5.420614493E-1,1.543461449E0,2.069601832E0
1.552291183E1,-1.561602728E0,4.378973955E-1,1.969959698E0,2.551685408E0
1.553287783E1,-1.519054732E0,3.405131882E-1,2.176443009E0,2.675888765E0
1.554284283E1,-1.164386312E0,1.693488139E-1,2.128119280E0,2.431741387E0
1.555280883E1,-6.591060421E-1,4.074310631E-2,2.033663358E0,2.138192561E0
1.556277383E1,-1.235094937E-1,2.910539299E-2,2.050896272E0,2.054818055E0
1.557273983E1,2.439644019E-1,4.436487168E-2,2.118249764E0,2.132713984E0
1.558270583E1,4.238346226E-1,4.228209347E-2,2.213451206E0,2.254060737E0
1.559267083E1,3.966893625E-1,4.002009809E-2,2.192421110E0,2.228379318E0
1.560263683E1,2.480521173E-1,-2.004425526E-2,1.942853760E0,1.958727229E0
1.561260183E1,-1.779457558E-1,-7.258850455E-2,1.492317608E0,1.504641361E0
1.562256783E1,-9.931068208E-1,-2.943108290E-2,1.289735559E0,1.628049495E0
1.563253283E1,-1.912988668E0,-2.305352479E-2,1.461702172E0,2.407619228E0
1.564249883E1,-2.459414040E0,-2.033167514E-1,1.865516147E0,3.093574893E0
1.565246483E1,-2.453158104E0,-3.613737148E-1,2.286518598E0,3.372942772E0
1.566242983E1,-1.926561225E0,-5.446926963E-1,2.675947838E0,3.342009144E0
1.567239583E1,-1.053867870E0,-7.933057809E-1,2.944120443E0,3.226114805E0
1.568236083E1,-1.019090751E-1,-9.761341810E-1,3.032094727E0,3.186976911E0
1.569232683E1,5.573899982E-1,-1.098743277E0,2.856180074E0,3.110576315E0
1.570229183E1,7.642959168E-1,-1.172167641E0,2.352775152E0,2.737457971E0
1.571225783E1,6.012481356E-1,-1.141634942E0,1.439317276E0,1.932993503E0
1.572222383E1,6.864806592E-2,-1.029276600E0,2.839022005E-1,1.069917444E0
1.573218883E1,-5.435164193E-1,-8.118473017E-1,-7.652204347E-1,1.240994945E0
1.574215483E1,-1.043408224E0,-5.256731656E-1,-1.478169100E0,1.884148850E0
1.575211983E1,-1.421822991E0,-3.738469952E-1,-1.870158252E0,2.378830402E0
1.576208583E1,-1.524453613E0,-3.294996652E-1,-1.962456551E0,2.506743816E0
1.577205083E1,-1.283098092E0,-3.555560276E-1,-1.812653809E0,2.249105297E0
1.578201683E1,-7.851053533E-1,-5.051710734E-1,-1.415897423E0,1.695981645E0
1.579198283E1,-2.414109229E-1,-6.609423602E-1,-9.666657847E-1,1.195644921E0
1.580194783E1,1.559984511E-1,-7.906850588E-1,-6.522978365E-1,1.036827298E0
1.581191383E1,3.683238981E-1,-8.837791640E-1,-5.728259897E-1,1.115731921E0
1.582187883E1,5.343524071E-1,-8.790171915E-1,-7.282607692E-1,1.260383857E0
1.583184483E1,6.596902520E-1,-7.809535378E-1,-1.060453370E0,1.472970131E0
1.584181083E1,5.205718354E-1,-6.831383908E-1,-1.478907604E0,1.710216594E0
1.585177583E1,2.270977612E-1,-5.469573230E-1,-1.858921657E0,1.950980634E0
1.586174183E1,4.272947855E-2,-3.992741972E-1,-2.211202952E0,2.247368280E0
1.587170683E1,-1.014188043E-1,-2.281197631E-1,-2.479584303E0,2.492120125E0
1.588167283E1,-1.707685361E-1,-8.326230437E-2,-2.784952217E0,2.791424968E0
1.589163783E1,6.338993898E-2,5.849437594E-2,-3.063283190E0,3.064497313E0
1.590160383E1,4.517559179E-1,2.019675064E-1,-3.309843902E0,3.346631282E0
1.591156983E1,6.881009227E-1,2.786581251E-1,-3.289089210E0,3.371830521E0
1.592153483E1,7.501078673E-1,3.756461835E-1,-2.917957662E0,3.036156910E0
1.593150083E1,6.795660344E-1,4.753423798E-1,-2.258105223E0,2.405576764E0
1.594146583E1,6.237057560E-1,5.999599940E-1,-1.494623750E0,1.727096123E0
1.595143183E1,5.978781659E-1,7.052797499E-1,-9.523079467E-1,1.327316184E0
1.596139683E1,5.495003501E-1,7.725089890E-1,-7.486277908E-1,1.207958750E0
1.597136283E1,4.188898516E-1,8.564016232E-1,-5.527080595E-1,1.101988497E0
1.598132883E1,2.960738377E-1,1.057998124E0,-2.231209785E-1,1.121072129E0
1.599129383E1,1.352608805E-1,1.256353220E0,1.052797025E-1,1.267991615E0
1.600125983E1,-4.442517109E-2,1.432269919E0,4.229063040E-1,1.494061732E0
1.601122483E1,-2.375694666E-1,1.556667386E0,6.928810215E-1,1.720388535E0
1.602119083E1,-3.548385377E-1,1.573526370E0,9.695589870E-1,1.882004319E0
1.603115583E1,-2.008248143E-1,1.638220257E0,1.285974630E0,2.092325731E0
1.604112183E1,1.075201729E-1,1.690389407E0,1.463006685E0,2.238161186E0
1.605108783E1,4.218193797E-1,1.672283796E0,1.559990358E0,2.325518136E0
1.606105283E1,6.862327373E-1,1.643281314E0,1.597190929E0,2.392134551E0
1.607101883E1,8.572964665E-1,1.542669151E0,1.694275174E0,2.446498254E0
1.608098383E1,9.070633614E-1,1.449417756E0,1.820332958E0,2.497436255E0
1.609094983E1,8.514398222E-1,1.343146658E0,1.860857670E0,2.447812081E0
1.610091483E1,6.888617186E-1,1.298507552E0,1.839435226E0,2.354607033E0
1.611088083E1,5.187026633E-1,1.349781201E0,1.725044977E0,2.250942451E0
1.612084683E1,5.516339260E-1,1.270336252E0,1.437723910E0,1.996272582E0
1.613081183E1,7.402398138E-1,1.070246286E0,1.000773178E0,1.641623906E0
1.614077783E1,9.654558496E-1,9.078451341E-1,6.419698995E-1,1.472553271E0
1.615074283E1,9.302107340E-1,7.274947840E-1,4.904357976E-1,1.278697752E0
1.616070883E1,6.928761245E-1,4.521944225E-1,7.441956013E-1,1.112827126E0
1.617067383E1,3.309773662E-1,9.175275385E-2,1.439354113E0,1.479765133E0
1.618063983E1,1.993819407E-1,-3.112013885E-1,2.246736481E0,2.276933086E0
1.619060583E1,3.083910340E-1,-6.696158275E-1,2.988010814E0,3.077612550E0
