"Time (s)","Linear Acceleration x (m/s^2)","Linear Acceleration y (m/s^2)","Linear Acceleration z (m/s^2)","Absolute acceleration (m/s^2)"
1.777750003E-3,-5.522665948E-1,-1.194934067E-1,-1.216903811E0,1.341689960E0
1.174275001E-2,-7.915261808E-1,6.187611312E-2,-1.850627382E0,2.013743791E0
2.170875002E-2,-8.554868263E-1,3.893210667E-1,-1.681035324E0,1.925956480E0
3.167475000E-2,-8.252480967E-1,6.375420955E-1,-1.100637190E0,1.516211254E0
4.163975001E-2,-8.263634531E-1,6.774727312E-1,-4.748389345E-1,1.169323681E0
5.160575002E-2,-8.318705070E-1,5.142602777E-1,8.872857392E-2,9.820106586E-1
6.157075000E-2,-7.715729959E-1,1.842361173E-1,4.302451444E-1,9.024293431E-1
7.153675001E-2,-7.991339931E-1,-2.399042416E-1,5.310599130E-1,9.890368119E-1
8.150175001E-2,-7.728339480E-1,-6.817999631E-1,3.280510175E-1,1.081545640E0
9.146775000E-2,-7.095767225E-1,-1.043583568E0,-1.002136749E-1,1.265941771E0
1.014327500E-1,-7.226487578E-1,-1.076630861E0,-5.244671774E-1,1.398721223E0
1.113987500E-1,-8.151154567E-1,-8.388389263E-1,-8.722437769E-1,1.459065851E0
1.213647500E-1,-8.852675727E-1,-3.981503624E-1,-1.032414216E0,1.417074981E0
1.313297500E-1,-8.622229649E-1,4.180817664E-2,-1.028970206E0,1.343114310E0
1.412957500E-1,-6.801308754E-1,3.372951731E-1,-9.868772703E-1,1.245099509E0
1.512607500E-1,-3.836505832E-1,4.639964426E-1,-9.356217474E-1,1.112595399E0
1.612267500E-1,-1.059864847E-1,4.639192593E-1,-7.999733609E-1,9.308123292E-1
1.711917500E-1,7.816601738E-2,3.050957260E-1,-4.982880235E-1,5.894779747E-1
1.811577500E-1,1.874256273E-1,1.347783208E-4,-4.438036680E-3,1.874782123E-1
1.911227500E-1,1.734776790E-1,-1.965632173E-1,5.532027340E-1,6.121804215E-1
2.010887500E-1,6.682592735E-2,-3.367095745E-1,8.988497776E-1,9.621694054E-1
2.110537500E-1,2.939497635E-2,-4.325390071E-1,1.051679623E0,1.137534213E0
2.210197500E-1,7.567071810E-2,-4.840564853E-1,1.000173254E0,1.113724956E0
2.309857500E-1,1.830513252E-1,-3.595441210E-1,7.863054943E-1,8.837737793E-1
2.409507500E-1,2.761572710E-1,-1.341763499E-1,4.363870597E-1,5.335726727E-1
2.509167500E-1,3.805647151E-1,8.809590518E-2,2.760634232E-1,4.783318979E-1
2.608817500E-1,4.546473294E-1,3.418068847E-1,4.310894823E-1,7.137046184E-1
2.708477500E-1,4.289761524E-1,5.701959121E-1,5.455025357E-1,8.981742225E-1
2.808127500E-1,2.335550424E-1,6.001982680E-1,5.768482894E-1,8.646038791E-1
2.907787500E-1,-1.561947714E-1,3.040493667E-1,3.937965256E-1,5.214580784E-1
3.007437500E-1,-6.653258716E-1,-1.813584101E-1,-2.940506279E-2,6.902275321E-1
3.107097500E-1,-1.044544704E0,-6.177124330E-1,-2.880449528E-1,1.247241830E0
3.206757500E-1,-1.133167735E0,-8.779769719E-1,-6.550583071E-1,1.576075527E0
3.306407500E-1,-7.625197519E-1,-1.288682768E0,-9.641351098E-1,1.780925647E0
3.406067500E-1,1.909991531E-1,-1.082856684E0,-1.101237699E0,1.556208130E0
3.505717500E-1,9.796648760E-1,-5.302024189E-1,-8.926417887E-1,1.427468822E0
3.605377500E-1,1.926160837E0,-2.327232760E-1,-6.996023959E-1,2.062449806E0
3.705027500E-1,2.646372621E0,-8.785499990E-2,-1.087652863E0,2.862515555E0
3.804687500E-1,3.313232071E0,-1.856078741E-1,-1.928204731E0,3.837959161E0
3.904337500E-1,3.337480182E0,-5.309941319E-1,-2.533539485E0,4.223689271E0
4.003997500E-1,2.934392138E0,-9.890249527E-1,-2.356610341E0,3.891328806E0
4.103657500E-1,1.825062770E0,-1.035647288E0,-1.765590155E0,2.742394577E0
4.203307500E-1,9.488817707E-1,-7.621081080E-1,-9.063184261E-1,1.517431538E0
4.302967500E-1,7.065360242E-1,-2.612465787E-1,2.491790950E-1,7.934312508E-1
4.402617500E-1,7.907626806E-1,4.563497463E-1,1.576867177E0,1.822106144E0
4.502277500E-1,1.578165259E0,8.128717339E-1,2.488744551E0,3.056994517E0
4.601927500E-1,2.679468154E0,8.140479013E-2,2.245233747E0,3.496748619E0
4.701587500E-1,3.342720457E0,-9.856285974E-1,4.719714600E-1,3.516816862E0
4.801237500E-1,2.913011794E0,-1.839432303E0,-1.145216947E0,3.630519352E0
4.900897500E-1,2.552145033E0,-1.595929246E0,-1.640802972E0,3.428216566E0
5.000557500E-1,1.830612216E0,-6.595163704E-1,-1.377158450E0,2.383834794E0
5.100207500E-1,4.019149825E-1,-5.078958759E-1,7.523062742E-1,9.927026766E-1
5.199867500E-1,-5.210891678E-1,-1.653727072E0,3.609931195E0,4.004740989E0
5.299517500E-1,8.994991109E-3,-2.612021983E0,1.192410994E0,2.871338317E0
5.399177500E-1,-3.861479290E-2,-3.281736629E0,2.944125706E-1,3.295142662E0
5.498827500E-1,-5.641068410E-1,-2.783665537E0,-1.261589402E0,3.107831747E0
5.598487500E-1,-7.582471915E-1,-1.726236347E0,-3.675525261E0,4.130897804E0
5.698137500E-1,-7.092795378E-1,-1.177153269E0,-5.472116184E0,5.642058384E0
5.797797500E-1,-3.249506776E-1,-6.050675368E-1,-5.303807589E0,5.348090745E0
5.897457500E-1,-1.019494940E-1,4.162480795E-1,-3.451106200E0,3.477612711E0
5.997107500E-1,3.352647275E-4,1.428887305E0,-1.835748557E0,2.326304324E0
6.096767500E-1,1.045179931E-1,1.705688939E0,-3.786393732E-1,1.750333266E0
6.196417500E-1,2.598777455E-1,1.120104032E0,6.634344435E-1,1.327522033E0
6.296077500E-1,1.972270956E-1,3.256359713E-1,1.149538624E0,1.210940279E0
6.395727500E-1,1.669661466E-1,-2.741839819E-1,1.345789892E0,1.383547969E0
6.495387500E-1,1.541635035E-1,-6.475778179E-1,9.382670277E-1,1.150420980E0
6.595037500E-1,1.254091627E-1,-8.297869979E-1,2.862896186E-1,8.866993096E-1
6.694697500E-1,1.653499397E-1,-8.519431213E-1,-1.663626409E-1,8.836425820E-1
6.794357500E-1,2.369822417E-1,-8.210356164E-1,-4.791769838E-1,9.797298853E-1
6.894007500E-1,5.678583415E-1,-7.171115908E-1,-9.616991597E-1,1.327244289E0
6.993667500E-1,1.192044519E0,-4.989113367E-1,-1.532275726E0,2.004432976E0
7.093317500E-1,1.723446933E0,-1.970242703E-1,-2.279285592E0,2.864302830E0
7.192977500E-1,2.166696870E0,2.669517070E-2,-2.569844847E0,3.361456603E0
7.292627500E-1,2.245314438E0,2.244345555E-1,-1.942811660E0,2.977637477E0
7.392287500E-1,2.062555912E0,1.985650116E-1,-5.143310291E-1,2.134971045E0
7.491937500E-1,1.919875811E0,-3.690674812E-1,6.435322756E-1,2.058219552E0
7.591597500E-1,2.080164510E0,-1.308862094E0,-8.872857392E-2,2.459283865E0
7.691247500E-1,2.511211600E0,-2.116226920E0,-2.088570467E0,3.891879581E0
7.790907500E-1,2.978836825E0,-2.643182088E0,-3.281931049E0,5.160518558E0
7.890567500E-1,3.489102577E0,-2.824608326E0,-3.628227718E0,5.772026105E0
7.990217500E-1,2.777749032E0,-2.789215714E0,-3.464914400E0,5.244163020E0
8.089877500E-1,2.324639520E-1,-2.890525450E0,-3.512953954E0,4.555219243E0
8.189527500E-1,-3.818705446E0,-3.059963433E0,-4.218141026E0,6.460541866E0
8.289187500E-1,-3.687231971E0,-3.747854733E0,-4.436308828E0,6.879166427E0
8.388837500E-1,-7.446353120E-1,-4.985893890E0,-4.388220157E0,6.683569089E0
8.488497500E-1,-1.757363123E-1,-5.679224562E0,-3.942308568E0,6.915654107E0
8.588147500E-1,-1.158386046E-1,-5.652119794E0,-3.726337565E0,6.770928178E0
8.687807500E-1,-1.820939898E-1,-5.523527243E0,-3.755404658E0,6.681734473E0
8.787467500E-1,1.665678781E-1,-5.802773305E0,-3.711438274E0,6.890188456E0
8.887117500E-1,-1.963892627E-1,-5.846326876E0,-3.232941906E0,6.683563425E0
8.986777500E-1,-1.053134410E0,-5.633475947E0,-2.417122591E0,6.219937697E0
9.086427500E-1,-1.869719710E0,-6.095950359E0,-1.143373904E0,6.477944617E0
9.186086250E-1,-2.437500722E0,-7.024623860E0,1.189586788E-1,7.436457578E0
9.285736250E-1,-1.539930900E0,-7.033386497E0,6.770613796E-1,7.231758079E0
9.385396250E-1,-5.995044959E-1,-6.374218767E0,6.081735778E-1,6.431169850E0
9.485046250E-1,-1.047745616E0,-5.836765509E0,2.847728509E-1,5.936892963E0
9.584706250E-1,-1.782083396E0,-5.732954627E0,5.280608761E-1,6.026726995E0
9.684356250E-1,-2.727529051E0,-6.379750233E0,1.378004981E0,7.073862134E0
9.784016250E-1,-2.795430427E0,-7.046674880E0,2.679330452E0,8.040452090E0
9.883676250E-1,-9.107196254E-1,-6.101462529E0,4.418987036E0,7.588458451E0
9.983326250E-1,8.618982983E-1,-4.625770894E0,5.812949215E0,7.478703338E0
1.008298625E0,1.876069787E0,-4.289458930E0,6.642380263E0,8.126519016E0
1.018263625E0,3.172134372E0,-4.409748143E0,7.721237744E0,9.440647619E0
1.028229625E0,3.852179586E0,-4.290484824E0,8.727738270E0,1.046044755E1
1.038194625E0,5.181825315E0,-4.335964468E0,8.263429002E0,1.067408827E1
1.048160625E0,6.968437965E0,-3.066271117E0,6.636427798E0,1.009966931E1
1.058125625E0,7.140518598E0,-1.422139326E0,5.840007790E0,9.333551151E0
1.068091625E0,7.404014601E0,-6.466219443E-1,6.085065767E0,9.605497256E0
1.078057625E0,7.608506935E0,-7.088152689E-1,7.323691399E0,1.058433997E1
1.088022625E0,8.363786518E0,-1.026068818E0,8.902911496E0,1.225836756E1
1.097988625E0,1.089622088E1,-7.601438820E-1,8.231335389E0,1.367700005E1
1.107953625E0,1.294024843E1,5.151964170E-1,7.057225011E0,1.474855524E1
1.117919625E0,1.363896497E1,1.853486670E0,5.603658655E0,1.486128422E1
1.127884625E0,1.414604253E1,3.158319740E0,3.367357115E0,1.488034263E1
1.137850625E0,1.433950000E1,4.090290486E0,1.587682041E0,1.499574842E1
1.147815625E0,1.502968428E1,4.321969450E0,7.531824794E-1,1.565688709E1
1.157781625E0,1.605392935E1,4.978810573E0,2.473495013E-1,1.681006794E1
1.167747625E0,1.606325566E1,5.648747120E0,-1.322581708E-2,1.702752775E1
1.177712625E0,1.504569513E1,5.130431213E0,2.279148182E-1,1.589799395E1
1.187678625E0,1.322810101E1,4.185469708E0,2.422837660E-1,1.387658151E1
1.197643625E0,1.162329174E1,3.337716410E0,3.845947623E-1,1.209913943E1
1.207609625E0,1.058165471E1,2.854814749E0,7.784509295E-1,1.098760072E1
1.217574625E0,9.842229853E0,2.779418997E0,6.701382762E-1,1.024908502E1
1.227540625E0,9.146658527E0,2.620330877E0,3.820833832E-2,9.514670567E0
1.237505625E0,8.242964332E0,2.144707831E0,-1.572138241E0,8.661284622E0
1.247471625E0,7.559704903E0,1.689125531E0,-3.714843693E0,8.590829235E0
1.257436625E0,7.181024015E0,1.306011284E0,-5.613178507E0,9.207635111E0
1.267402625E0,6.633829880E0,1.160421169E0,-6.975156416E0,9.695724995E0
1.277368625E0,6.183973759E0,1.096041278E0,-7.763755188E0,9.985926725E0
1.287333625E0,6.002601900E0,3.675223544E-1,-8.268265818E0,1.022401692E1
1.297299625E0,5.081615149E0,-8.874737272E-1,-8.236485032E0,9.718544532E0
1.307264625E0,3.790036547E0,-2.069564677E0,-7.654827408E0,8.788848481E0
1.317230625E0,1.970971266E0,-3.896102116E0,-6.754818127E0,8.043127959E0
1.327195625E0,6.891428965E-1,-4.872992342E0,-6.495440903E0,8.149338919E0
1.337161625E0,2.870470085E0,-2.972875881E0,-5.990272461E0,7.277427682E0
1.347126625E0,4.051204188E0,-2.423573970E0,-5.294029291E0,7.093145445E0
1.357092625E0,3.899494670E0,-2.914093529E0,-5.843385141E0,7.605468407E0
1.367057625E0,3.642611284E0,-3.288006890E0,-7.213380167E0,8.724245510E0
1.377023625E0,2.179779430E0,-4.123222297E0,-8.509483345E0,9.703798600E0
1.386989625E0,2.938600087E-1,-5.540561936E0,-8.896818697E0,1.048511150E1
1.396954625E0,-1.100380497E0,-6.673510255E0,-8.344299502E0,1.074122482E1
1.406920625E0,-2.209756351E0,-7.193753988E0,-6.778787034E0,1.012842896E1
1.416885625E0,-3.400100353E0,-7.601713055E0,-4.812207611E0,9.617903403E0
1.426851625E0,-4.406920137E0,-8.258712637E0,-3.466000813E0,9.982005868E0
1.436816625E0,-4.301385496E0,-8.068762329E0,-2.926233226E0,9.600504341E0
1.446782625E0,-3.935617014E0,-6.635080014E0,-2.321813853E0,8.056313527E0
1.456747625E0,-2.164555619E0,-5.948274250E0,-2.951557809E0,6.984193660E0
1.466713625E0,-2.656881237E-1,-5.898205127E0,-3.845150063E0,7.045891917E0
1.476679625E0,-4.652822453E-1,-5.357820075E0,-3.720780078E0,6.539642797E0
1.486644625E0,-1.388115547E0,-5.392774145E0,-3.191686876E0,6.418390988E0
1.496610625E0,-1.030807986E0,-6.937617291E0,-2.272566849E0,7.372764669E0
1.506575625E0,-1.525063185E0,-6.794848166E0,-2.075092343E0,7.266483850E0
1.516541625E0,-3.283184692E0,-4.766122196E0,-3.091661774E0,6.561523835E0
1.526506625E0,-3.516390948E0,-3.930012750E0,-4.105674511E0,6.683305223E0
1.536472625E0,-3.095086781E0,-3.628957450E0,-4.493174170E0,6.552671858E0
1.546437625E0,-2.511551616E0,-4.061012893E0,-1.368757170E0,4.967213849E0
1.556403625E0,-6.809404224E-1,-5.870036166E0,6.854047131E0,9.049804778E0
1.566368625E0,4.147055840E-1,-6.085624176E0,1.459574019E1,1.581905288E1
1.576334625E0,4.778397256E-1,-4.875012262E0,1.906420461E1,1.968344413E1
1.586300625E0,-1.136454894E0,-3.935969601E0,1.932201537E1,1.975154840E1
1.596265625E0,-1.844928685E0,-5.258406299E0,1.477467201E1,1.579067863E1
1.606231625E0,-2.764775814E0,-4.926577980E0,9.462367242E0,1.102050587E1
1.616196625E0,-2.938501269E0,-3.129697620E0,5.964991440E0,7.349212187E0
1.626162625E0,-2.580137701E0,-1.407962898E0,3.710837765E0,4.733897654E0
1.636127625E0,-2.133901591E0,-1.150270695E0,9.693473178E-1,2.610803113E0
1.646093625E0,-2.009155923E0,-1.249609188E0,-1.224932622E0,2.664336798E0
1.656058625E0,-2.102164659E0,-1.401585339E0,-3.044007844E0,3.955947607E0
1.666024625E0,-1.728689547E0,-2.528951760E0,-5.091810354E0,5.942263646E0
1.675989625E0,-6.598840141E-1,-3.507084812E0,-6.389848959E0,7.318829176E0
1.685955625E0,1.645535123E0,-3.117165867E0,-5.645196691E0,6.655280201E0
1.695921625E0,5.652877008E0,-1.490738275E0,-3.326063493E0,6.726069985E0
1.705886625E0,1.033303929E1,1.386282738E-1,-1.539029260E0,1.044794381E1
1.715852625E0,1.221534805E1,3.274905619E-1,-4.522564030E-1,1.222810345E1
1.725817625E0,1.204760547E1,-1.674798099E0,4.444163831E-1,1.217157558E1
1.735783625E0,1.061437807E1,-3.650831299E0,2.150136970E0,1.142876546E1
1.745748625E0,7.433255941E0,-4.201867055E0,3.333429816E0,9.166282506E0
1.755714625E0,2.800421026E0,-4.726506433E0,3.571896812E0,6.552912926E0
1.765679625E0,-1.817156750E0,-5.045068297E0,3.830347252E0,6.589865920E0
1.775645625E0,-5.956443980E0,-4.909709347E0,3.586567476E0,8.511635390E0
1.785610625E0,-9.752896092E0,-4.088639525E0,2.674371428E0,1.090817207E1
1.795576625E0,-1.125950488E1,-3.095444046E0,2.723492718E0,1.199064788E1
1.805542625E0,-1.013551917E1,-2.725835112E0,2.193112690E0,1.072234439E1
1.815507625E0,-7.776482238E0,-2.239491489E0,5.847836919E-1,8.113628663E0
1.825473625E0,-4.151043642E0,-1.787563407E0,-1.084728378E0,4.647922321E0
1.835438625E0,-9.386125982E-2,-1.299276607E0,-9.601008233E-1,1.618246962E0
1.845404625E0,3.088475919E0,-9.189269234E-1,5.679518969E-1,3.271953476E0
1.855369625E0,3.921134630E0,-1.120894430E0,2.203620282E0,4.635476616E0
1.865335625E0,1.816232890E0,-1.597445283E0,3.018190048E0,3.867816504E0
1.875300625E0,-1.096264642E0,-2.218882100E0,3.024328455E0,3.907914603E0
1.885266625E0,-2.851120479E0,-2.880269726E0,2.745217463E0,4.895003636E0
1.895231625E0,-2.841288385E0,-2.882806832E0,2.286222728E0,4.648688986E0
1.905197625E0,-1.101858673E0,-2.321164227E0,1.732309119E0,3.098837006E0
1.915162625E0,1.669008186E0,-1.436009798E0,1.176546036E0,2.496392004E0
1.925128333E0,4.290948216E0,-3.384357456E-1,-1.228744130E-1,4.306027574E0
1.935094333E0,5.501089722E0,4.402732654E-1,-1.950329425E0,5.853171238E0
1.945059333E0,5.749636733E0,1.112744142E0,-3.760723578E0,6.959853728E0
1.955025333E0,5.662026731E0,1.469374303E0,-5.174328600E0,7.809691672E0
1.964990333E0,5.634345428E0,1.763437503E0,-6.166677110E0,8.537181432E0
1.974956333E0,5.652310413E0,1.800857929E0,-6.142842690E0,8.539684924E0
1.984921333E0,4.778779664E0,1.455941641E0,-5.184537839E0,7.199717615E0
1.994887333E0,3.109653364E0,8.019814409E-1,-4.727468008E0,5.715074107E0
2.004852333E0,1.055978495E0,-4.077075267E-1,-4.272121936E0,4.419540909E0
2.014818333E0,-8.036278707E-1,-1.481712221E0,-3.205470518E0,3.621647429E0
2.024783333E0,-1.878197004E0,-1.613028113E0,-1.704272743E0,3.005666192E0
2.034749333E0,-2.501468677E0,-9.978068127E-1,-5.206009984E-2,2.693635876E0
2.044715333E0,-1.505847480E0,3.891029656E-3,6.559184325E-1,1.642504418E0
2.054680333E0,-9.407994568E-2,3.387770768E-1,7.349622631E-1,8.147333749E-1
2.064646333E0,1.472767442E-1,1.501059195E-1,4.461238432E-1,4.932025040E-1
2.074611333E0,-7.969719851E-1,2.967937030E-1,-8.910803994E-2,8.550971231E-1
2.084577333E0,-4.176779577E0,1.042771974E-1,-4.314590263E-1,4.200299782E0
2.094542333E0,-6.752250030E0,-6.462693572E-1,-7.890723968E-1,6.828849083E0
2.104508333E0,-6.981286052E0,-1.122855294E0,-9.474570966E-1,7.134201700E0
2.114473333E0,-5.992957503E0,-7.464103805E-1,-1.009913546E0,6.123119585E0
2.124439333E0,-3.815177820E0,5.010479093E-2,-1.451689399E0,4.082339330E0
2.134404333E0,-7.831380576E-1,4.524141316E-1,-1.672149310E0,1.901069983E0
2.144370333E0,1.569202062E0,7.009205045E-1,-1.685654039E0,2.407304344E0
2.154335333E0,2.787335542E0,1.085549546E0,-1.619046652E0,3.401318759E0
2.164301333E0,2.870699295E0,7.538839991E-1,-1.150244383E0,3.183130168E0
2.174267333E0,1.977387416E0,-6.731519312E-1,-4.286862767E-1,2.132361704E0
2.184232333E0,-2.694683486E-1,-1.706751963E0,-1.271383488E-1,1.732564462E0
2.194198333E0,-2.148634821E0,-1.783880246E0,-4.405912077E-1,2.827186045E0
2.204163333E0,-2.105399339E0,-1.710843844E0,-5.896308510E-1,2.776212812E0
2.214129333E0,-8.712333781E-1,-1.472418364E0,-7.033206403E-1,1.849790085E0
2.224094333E0,-2.918631846E-1,-7.193505628E-1,-1.462216727E0,1.655514152E0
2.234060333E0,-5.755168784E-1,4.978677548E-2,-2.671465362E0,2.733207929E0
2.244025333E0,2.043794829E-1,5.866042956E-1,-3.539236604E0,3.593337072E0
2.253991333E0,1.523982620E0,1.179075687E0,-3.500676556E0,3.995932788E0
2.263956333E0,1.350163609E0,1.558126558E0,-2.837577742E0,3.507498765E0
2.273922333E0,8.231844682E-1,1.451752257E0,-1.600909173E0,2.312601882E0
2.283888333E0,9.109090751E-1,1.355489253E0,4.245546341E-2,1.633679566E0
2.293853333E0,8.252233922E-1,1.244588330E0,1.332629564E0,2.001473286E0
2.303819333E0,4.492784160E-1,1.010228784E0,1.933439158E0,2.227240505E0
2.313784333E0,-3.889363199E-1,5.386031136E-1,1.772288725E0,1.892715536E0
2.323750333E0,-5.152051878E-1,4.161309890E-1,1.541465210E0,1.677711649E0
2.333715333E0,-4.208200175E-1,9.296333215E-1,2.156716257E0,2.385944805E0
2.343681333E0,-7.805986118E-1,-1.727090260E-2,2.819813901E0,2.925915739E0
2.353646333E0,-3.953355128E-1,-1.402882106E0,2.104639785E0,2.560054100E0
2.363612333E0,2.661727994E0,-1.519671175E0,2.162234859E0,3.750927350E0
2.373577333E0,4.129061619E0,-6.074231973E-1,2.157093987E0,4.697996090E0
2.383543333E0,2.921394070E0,1.783945296E-2,1.583297360E0,3.322904165E0
2.393508333E0,1.137670530E0,-2.256715888E-1,1.920936642E0,2.243929474E0
2.403474333E0,-4.628088731E-1,-7.956587736E-1,2.400528778E0,2.570953782E0
2.413440333E0,-1.490108530E0,-7.696621989E-1,2.474532309E0,2.989333283E0
2.423405333E0,-1.765039932E0,1.358620657E-1,2.355879439E0,2.946861448E0
2.433371333E0,-1.000014210E0,1.271429827E0,1.934164213E0,2.521418932E0
2.443336333E0,6.042805016E-1,1.803858866E0,1.432599410E0,2.381470722E0
2.453302333E0,2.012767748E0,2.272101410E0,9.620424644E-1,3.184211760E0
2.463267333E0,2.407875804E0,2.813708823E0,3.022250354E-1,3.715664571E0
2.473233333E0,2.326078520E0,2.845375004E0,-3.068419969E-1,3.687946882E0
2.483198333E0,2.448525063E0,2.725281381E0,-7.870527685E-1,3.747250412E0
2.493164333E0,2.588248374E0,2.622600181E0,-1.122609418E0,3.851923320E0
2.503129333E0,2.535227576E0,2.366807885E0,-1.461214660E0,3.763549749E0
2.513095333E0,2.022956522E0,1.922068078E0,-1.711879971E0,3.273718348E0
2.523060333E0,4.831086516E-1,1.123913055E0,-1.995910956E0,2.340990190E0
2.533026333E0,-1.276865253E0,8.083222347E-1,-2.282885138E0,2.737760812E0
2.542992333E0,-2.120723137E0,8.289646601E-1,-2.480749068E0,3.367308268E0
2.552957333E0,-1.812001260E0,9.658917595E-1,-2.423799527E0,3.176649115E0
2.562923333E0,-6.736740875E-1,9.893325893E-1,-2.231164176E0,2.531937861E0
2.572888333E0,2.511805969E-1,9.151526919E-1,-1.826702768E0,2.058504104E0
2.582854333E0,6.350719392E-1,1.071402866E0,-1.013384380E0,1.605667578E0
2.592819333E0,7.177837282E-1,9.659816605E-1,-1.791154182E-1,1.216723626E0
2.602785333E0,5.118021083E-1,5.208561563E-1,3.634792972E-1,8.156897284E-1
2.612750333E0,-6.692547619E-2,1.281695053E-1,6.219472790E-1,6.385333658E-1
2.622716333E0,-7.131129724E-1,-8.711499821E-2,9.232811987E-1,1.169857815E0
2.632681333E0,-1.227066271E0,-1.060908941E-1,1.101070542E0,1.652060304E0
2.642647333E0,-1.509517778E0,3.481461436E-2,1.212939325E0,1.936769936E0
2.652612333E0,-1.487562652E0,2.037994025E-1,9.872579241E-1,1.796957164E0
2.662578333E0,-8.321985358E-1,7.758815168E-1,4.498613103E-1,1.223487527E0
2.672544333E0,-8.503839612E-2,1.048435733E0,-1.024456302E-1,1.056855772E0
2.682509333E0,6.262771422E-1,1.301170374E0,-3.903614326E-1,1.495877485E0
2.692475333E0,1.094533281E0,1.413328595E0,-7.109677020E-1,1.923792061E0
2.702440333E0,9.660787243E-1,1.392508999E0,-9.688216531E-1,1.952179502E0
2.712406333E0,3.322645211E-1,1.715225602E0,-1.296243364E0,2.175464418E0
2.722371333E0,-2.071650964E-1,2.084196604E0,-1.613491212E0,2.643888566E0
2.732337333E0,-4.704079145E-1,2.207523884E0,-1.836574184E0,2.909888320E0
2.742302333E0,-6.072701830E-1,2.143634136E0,-1.991765134E0,2.988490042E0
2.752268333E0,-6.960016805E-1,2.178831012E0,-2.163998380E0,3.148747672E0
2.762233333E0,-4.682882988E-1,2.003242342E0,-1.939909687E0,2.827635656E0
2.772199333E0,-6.936493456E-2,1.817455543E0,-1.331950117E0,2.254339650E0
2.782165333E0,7.332466900E-2,1.739154893E0,-7.616477859E-1,1.900037789E0
2.792130333E0,1.442619199E-1,1.564562589E0,-2.483019396E-1,1.590698415E0
2.802096333E0,-1.182084811E-1,1.207337839E0,9.244225021E-2,1.216627910E0
2.812061333E0,-5.737299693E-1,1.111072716E0,1.705446060E-1,1.262035705E0
2.822027333E0,-7.051209980E-1,1.267802799E0,1.622345066E-1,1.459739564E0
2.831992333E0,-4.782806057E-1,1.469165558E0,1.609153748E-3,1.545057398E0
2.841958333E0,-2.891611862E-1,1.568054838E0,-5.384677140E-1,1.682960976E0
2.851923333E0,-1.640857351E-1,1.624313970E0,-9.719428968E-1,1.899998157E0
2.861889333E0,-9.157733738E-2,1.800083904E0,-8.242376248E-1,1.981932423E0
2.871854333E0,2.597917914E-3,2.063314589E0,-3.757292870E-1,2.097247324E0
2.881820333E0,3.079629081E-1,2.180805616E0,2.000098586E-2,2.202533616E0
2.891785333E0,5.721056128E-1,2.120745795E0,3.014987382E-1,2.217153366E0
2.901751333E0,4.972331858E-1,2.165102919E0,5.987946439E-1,2.300753467E0
2.911716333E0,2.966368514E-1,2.305814263E0,7.536125422E-1,2.443911762E0
2.921682083E0,3.113461071E-1,2.349443994E0,5.903746899E-1,2.442409825E0
2.931648083E0,4.803452575E-1,2.101932963E0,2.597555752E-1,2.171710548E0
2.941613083E0,8.865144914E-1,1.685469267E0,-1.810215740E-1,1.912977628E0
2.951579083E0,8.883411616E-1,1.183831593E0,-6.384481215E-1,1.611900513E0
2.961544083E0,1.595026875E-1,4.754846133E-1,-7.534382951E-1,9.050944643E-1
2.971510083E0,-2.821579760E-1,-1.313612080E-1,-3.052971625E-1,4.359762010E-1
2.981475083E0,1.240311384E-2,-3.961611396E-1,2.451808421E-1,4.660591498E-1
2.991441083E0,8.669134551E-1,-5.363180948E-1,7.011723733E-1,1.237262597E0
3.001406083E0,1.788565035E0,-7.420982051E-1,9.197705305E-1,2.143747294E0
3.011372083E0,2.124295201E0,-1.141107816E0,1.014832224E0,2.616226594E0
3.021337083E0,1.873814515E0,-1.409660344E0,1.397678668E0,2.729803800E0
3.031303083E0,1.398103176E0,-1.128444866E0,1.677850345E0,2.458304719E0
3.041268083E0,1.044206296E0,-6.816033505E-1,1.605572913E0,2.032932437E0
3.051234083E0,1.045782121E0,-3.189173378E-1,1.231415430E0,1.646739954E0
3.061200083E0,1.163588313E0,-1.788791176E-2,3.807928296E-1,1.224443106E0
3.071165083E0,1.610476388E0,3.126988605E-2,-5.758736316E-1,1.710626330E0
3.081131083E0,2.113391898E0,-2.311912690E-1,-8.302765560E-1,2.282374613E0
3.091096083E0,2.019877378E0,-7.056912477E-1,-7.329648542E-1,2.261668021E0
3.101062083E0,1.256333340E0,-1.298880458E0,-6.042242587E-1,1.905400446E0
3.111027083E0,3.538477635E-1,-1.841605420E0,-5.036884022E-1,1.941757135E0
3.120993083E0,-2.555911517E-1,-2.410798681E0,2.086524088E-2,2.424399405E0
3.130958083E0,-5.098193175E-1,-2.669710028E0,6.456717718E-1,2.793592563E0
3.140924083E0,-4.983236915E-1,-2.336087199E0,9.164516509E-1,2.558420124E0
3.150889083E0,-4.301252764E-1,-2.164565706E0,5.538470972E-1,2.275323945E0
3.160855083E0,-8.628630888E-1,-2.276121663E0,-2.877800739E-1,2.451138492E0
3.170820083E0,-1.498525012E0,-2.249579982E0,-1.166847551E0,2.944099271E0
3.180786083E0,-1.780901089E0,-2.078840262E0,-1.439769850E0,3.092914927E0
3.190751083E0,-1.762087088E0,-1.868599091E0,-1.222763305E0,2.844602533E0
3.200717083E0,-1.624540696E0,-1.565270686E0,-1.228701738E0,2.568834902E0
3.210683083E0,-1.349515153E0,-1.452258772E0,-1.174800349E0,2.304431069E0
3.220648083E0,-1.111486698E0,-1.178089554E0,-6.751440775E-1,1.754741350E0
3.230614083E0,-8.997204280E-1,-3.129842046E-1,-2.071089631E-1,9.748590070E-1
3.240579083E0,-5.071564955E-1,2.642566157E-1,3.935526967E-2,5.732260523E-1
3.250545083E0,-3.722752637E-1,1.613176632E-1,-2.503660798E-1,4.767551094E-1
3.260510083E0,-7.369596720E-1,9.070566371E-2,-2.021300590E-1,7.695411856E-1
3.270476083E0,-1.023925229E0,1.317053531E-1,3.840392403E-1,1.101478693E0
3.280441083E0,-8.230920821E-1,1.491521656E-1,7.503584936E-1,1.123728087E0
3.290407083E0,-2.030393010E-1,1.482249799E-1,6.527486569E-1,6.994829601E-1
3.300372083E0,6.244878942E-1,1.500765373E-1,4.253907128E-1,7.703670265E-1
3.310338083E0,8.152626604E-1,2.139119427E-1,-8.766555011E-2,8.474059082E-1
3.320303083E0,-1.445572042E-1,-3.223092710E-1,-1.680103862E-1,3.911617841E-1
3.330269083E0,2.001753348E-1,-2.269647334E0,2.579956437E0,3.442026206E0
3.340235083E0,5.490447789E0,-3.374080828E0,8.615231994E0,1.075879457E1
3.350200083E0,1.518418994E0,-1.215419056E0,3.662929189E0,4.147275005E0
3.360166083E0,-2.898612149E0,8.483059338E-1,-5.704438341E-1,3.073594234E0
3.370131083E0,9.480207682E-2,1.382271840E0,-3.050507024E-2,1.385854766E0
3.380097083E0,-3.233352381E-1,1.325633809E0,1.034195571E-1,1.368410127E0
3.390062083E0,-2.101251909E0,1.032472542E0,-8.490111811E-1,2.490397382E0
3.400028083E0,-1.489660633E0,2.970464489E-1,-1.759202949E0,2.324246203E0
3.409993083E0,-5.226089323E-1,-8.307187517E-1,-3.294831761E0,3.437896169E0
3.419959083E0,4.336230808E-1,-1.809250437E0,-3.739924740E0,4.177134566E0
3.429924083E0,1.475738997E0,-2.908028505E0,-2.071582698E0,3.863403972E0
3.439890083E0,8.377136296E-1,-3.300056248E0,-2.151998139E0,4.027807264E0
3.449855083E0,3.589915591E-1,-2.868341990E0,-2.861420057E0,4.067429834E0
3.459821083E0,1.569855196E0,-1.860287274E0,-2.713857676E0,3.645564094E0
3.469786083E0,2.484428136E0,-1.054233540E0,-2.341380683E0,3.572933672E0
3.479752083E0,2.852932531E0,-1.543505596E-1,-1.952978214E0,3.460805112E0
3.489718083E0,2.640154692E0,3.822203542E-1,-2.894610314E0,3.936404205E0
3.499683083E0,4.685032425E0,5.993311259E-1,-4.765724586E0,6.709758375E0
3.509649083E0,8.052156821E0,3.606284872E-2,-4.456022131E0,9.202970348E0
3.519614083E0,6.198561392E0,-1.218421894E0,-3.770867620E0,7.357048175E0
3.529580083E0,-2.232379813E0,-2.619979751E0,-4.457706714E0,5.631959044E0
3.539545083E0,-1.006338441E1,-3.148078050E0,-6.319198807E0,1.229285869E1
3.549511083E0,-1.113636603E1,-3.962631150E0,-3.767202001E0,1.240616398E1
3.559476083E0,-5.718286301E0,-5.106931838E0,4.501210583E0,8.890469489E0
3.569442083E0,2.083544201E-1,-2.897292432E0,8.406236134E0,8.893959801E0
3.579407083E0,5.289046293E0,6.525872737E-2,6.525231298E0,8.399816241E0
3.589373083E0,9.666872440E0,1.116318545E0,4.866180920E0,1.087999571E1
3.599338083E0,1.020749606E1,1.008947293E-1,4.855878711E0,1.130410163E1
3.609304083E0,4.191892290E0,-1.803780075E0,3.877055395E0,5.988083338E0
3.619270083E0,-4.721797963E0,-3.553135143E0,1.633630192E0,6.130978140E0
3.629235083E0,-1.096414915E1,-3.882100373E0,-1.603803545E-1,1.163223933E1
3.639201083E0,-1.230505837E1,-3.077252773E0,-2.182434066E0,1.287039101E1
3.649166083E0,-8.792595586E0,-1.610423763E0,-4.612108290E0,1.005856574E1
3.659132083E0,-3.876789932E0,3.957687914E-3,-4.961605141E0,6.296589665E0
3.669097083E0,2.497217166E-1,9.574324465E-1,-3.846165140E0,3.971400774E0
3.679063083E0,2.619421635E0,6.430846712E-1,-1.906360118E0,3.302898196E0
3.689028083E0,2.425432654E0,3.226088677E-1,2.369193842E-1,2.458237343E0
3.698994083E0,-4.091863972E-1,-9.937432171E-1,1.275579596E0,1.667951557E0
3.708959083E0,-4.402213129E0,-2.998696308E0,1.141537879E0,5.447455250E0
3.718925083E0,-7.764565612E0,-4.109157112E0,9.979988207E-1,8.841360357E0
3.728890083E0,-8.161436604E0,-3.772125356E0,4.506634752E-1,9.002281639E0
3.738856083E0,-4.687330965E0,-2.735165807E0,1.435432971E-2,5.427007427E0
3.748821083E0,1.314831809E0,-1.463653387E0,-1.333157129E0,2.376630357E0
3.758787083E0,1.037568537E1,6.125197401E-1,-7.421973154E0,1.277167619E1
3.768752083E0,7.741691304E0,4.756658185E0,-4.126839092E0,9.979498096E0
3.778718083E0,1.126139821E0,1.746208389E0,-1.132130439E0,2.366253149E0
3.788684083E0,5.484068477E-1,-1.151295712E0,1.389192604E0,1.885759258E0
3.798649083E0,-3.161881864E-1,-2.490167179E0,6.425823954E0,6.898704301E0
3.808615083E0,4.838887287E0,-2.312822736E0,7.847993685E0,9.505523871E0
3.818580083E0,5.242859722E0,-2.137398519E-1,5.815756463E0,7.833025343E0
3.828546083E0,4.179503794E0,2.129387395E0,3.215537669E0,5.687022520E0
3.838511083E0,3.675313007E0,1.810361701E0,3.703736322E0,5.522951921E0
3.848477083E0,3.480835783E0,8.455502142E-1,4.903703672E0,6.072683313E0
3.858442083E0,2.125234848E0,9.605469659E-1,4.232357069E0,4.832403128E0
3.868408083E0,4.351163428E0,1.226077215E0,4.151357637E0,6.137561303E0
3.878373083E0,7.341922433E0,2.045599864E0,3.420103970E0,8.353766515E0
3.888339083E0,8.633469459E0,1.929808622E0,5.983342341E0,1.067995046E1
3.898304083E0,5.626700193E0,2.412931015E-1,6.484813589E0,8.588992066E0
3.908270083E0,4.121227520E0,-1.677281996E0,7.520288823E0,8.737993771E0
3.918236083E0,2.884515681E0,-1.614195655E0,6.904473519E0,7.654920829E0
3.928201125E0,6.174905312E-1,-1.651591669E0,-6.598214489E-1,1.882661399E0
3.938167125E0,-1.747763749E0,-8.309067397E-1,-1.309379163E1,1.323602899E1
3.948132125E0,1.489047845E0,1.051309786E0,3.082068832E0,3.580735125E0
3.958098125E0,-8.408442289E-1,2.786327482E0,1.595633231E0,3.319139235E0
3.968063125E0,-5.191982514E-1,2.102876265E0,-1.390027879E0,2.573680811E0
3.978029125E0,-8.109474152E-1,1.954866865E0,-1.598560639E0,2.652270025E0
3.987994125E0,-2.249909765E0,2.609793609E0,-1.946542184E0,3.957542559E0
3.997960125E0,-3.515407446E0,1.790484237E0,-1.251812565E0,4.138956150E0
4.007925125E0,-1.773676270E0,1.771285197E0,5.036218536E-1,2.556758442E0
4.017891125E0,4.038819201E0,3.914531955E0,2.821624492E0,6.292629477E0
4.027856125E0,5.164146844E0,1.052523814E0,2.174285094E0,5.701204668E0
4.037822125E0,5.078671076E0,-1.818053713E0,2.910896856E0,6.129562766E0
4.047787125E0,1.068954636E0,-4.154268381E0,4.200030152E0,6.003404291E0
4.057753125E0,-5.328008046E0,-6.486774745E0,3.157197660E0,8.968490028E0
4.067718125E0,-7.325975906E0,-6.240827991E0,1.766155581E0,9.784536909E0
4.077684125E0,-5.454778605E0,-4.526752975E0,1.501837167E0,7.245799956E0
4.087650125E0,-4.945969101E0,-3.027119331E0,-1.213772627E0,5.924466709E0
4.097615125E0,-6.614249893E0,-2.541335870E0,-3.177532814E0,7.765526669E0
4.107581125E0,-6.179463217E0,-2.359942815E0,-2.701437897E0,7.145128582E0
4.117546125E0,-3.325125600E0,-6.920347832E-1,-2.676013327E-1,3.406902240E0
4.127512125E0,-2.307249901E0,7.698933832E-1,3.801172569E-1,2.461834084E0
4.137477125E0,-2.395986076E0,1.393120472E0,-2.753927475E-1,2.785206472E0
4.147443125E0,-1.746658040E0,1.185273005E0,-1.272371668E-1,2.114680993E0
4.157408125E0,-2.563267314E-1,5.846075445E-1,1.168855485E0,1.331800481E0
4.167374125E0,6.731320506E-1,7.383998412E-1,1.495504341E0,1.798575635E0
4.177339125E0,3.223512686E0,9.043935958E-1,1.696581608E0,3.753312000E0
4.187305125E0,6.027134478E0,6.965555580E-1,3.121445152E0,6.823119484E0
4.197270125E0,5.095223958E0,3.099213599E-1,2.473198559E0,5.672219103E0
4.207236125E0,1.883428507E0,-1.371756207E0,6.742558855E-1,2.425621371E0
4.217202125E0,8.964489108E-1,-3.001496832E0,6.000465328E-1,3.189460726E0
4.227167125E0,3.346525240E-1,-2.337372271E0,-1.622713441E-1,2.366777014E0
4.237133125E0,-1.543572546E0,-1.550185747E0,-1.446604076E0,2.622661894E0
4.247098125E0,-1.606308492E0,-2.103505718E0,1.863876003E-1,2.653243980E0
4.257064125E0,-1.726803235E0,-7.732224955E-1,-2.462964177E-1,1.907979131E0
4.267029125E0,-7.400820851E-1,4.092328826E-1,2.802418435E-1,8.909144379E-1
4.276995125E0,6.361946046E-2,7.192710406E-1,-2.645058167E-1,7.690003854E-1
4.286960125E0,-5.102923572E-1,8.549694208E-1,6.220618844E-2,9.976174669E-1
4.296926125E0,-9.081702393E-1,2.989796115E-1,2.630440128E-1,9.916421453E-1
4.306891125E0,-1.116737498E0,-6.350929161E-1,6.185880536E-1,1.425867046E0
4.316857125E0,-1.397529564E0,-7.262746894E-1,7.092526406E-1,1.727310950E0
4.326822125E0,-1.997431086E0,-7.683462831E-1,4.063978601E-1,2.178358597E0
4.336788125E0,-1.811504247E0,-1.003259999E0,4.441194177E-2,2.071243752E0
4.346753125E0,-1.558934936E0,-8.836932099E-1,-1.701288325E-1,1.800037678E0
4.356719125E0,-1.287946311E0,-4.565501231E-1,-6.345468593E-1,1.506616551E0
4.366684125E0,-1.312257864E0,-6.448833478E-1,-9.989394915E-1,1.770812057E0
4.376650125E0,-1.915381787E0,-1.239955435E0,-1.990983362E0,3.028232424E0
4.386616125E0,-1.643071107E0,-1.837045615E0,-8.811122489E-1,2.617399100E0
4.396581125E0,-7.385705799E-1,-2.139659052E0,-7.492388248E-1,2.384320905E0
4.406547125E0,-1.524153943E0,-2.126569914E0,3.262781417E-1,2.636627062E0
4.416512125E0,-2.413902529E0,-3.231238028E0,2.635666954E0,4.818149531E0
4.426478125E0,8.397338426E-1,-1.710071720E0,2.043335238E0,2.793692378E0
4.436443125E0,2.429354966E0,6.999337868E-1,1.630183259E0,3.008183890E0
4.446409125E0,1.176340506E0,6.243805247E-1,1.014967879E0,1.674451499E0
4.456374125E0,-5.498493558E-1,1.244946764E-1,3.080798525E-1,6.424534489E-1
4.466340125E0,-5.123809826E-1,-3.331625073E-1,6.134138525E-1,8.659145928E-1
4.476305125E0,1.190447499E0,-1.993173290E-1,1.285716768E0,1.763507939E0
4.486271125E0,2.340274975E0,7.417187208E-1,4.048962951E-1,2.488166921E0
4.496236125E0,1.602490261E0,1.376944003E0,-1.402638277E0,2.536009456E0
4.506202125E0,7.501240933E-1,1.139517373E0,-1.833463465E0,2.285338985E0
4.516168125E0,9.951803166E-1,6.197023867E-1,-1.093158016E0,1.602937728E0
4.526133125E0,4.322162408E-1,8.234587026E-1,-1.047375487E0,1.400675025E0
4.536099125E0,-1.641066096E0,4.492057644E-1,-1.667369796E0,2.382227065E0
4.546064125E0,-3.439598295E0,-2.763189465E-2,-2.297334777E0,4.136344646E0
4.556030125E0,-6.769030954E0,-2.893067819E-1,-3.149241938E0,7.471358863E0
4.565995125E0,-4.887467124E0,-6.826462014E-1,-2.689016365E0,5.619977734E0
4.575961125E0,2.698671872E0,1.248044327E-1,-3.166454971E0,4.162312231E0
4.585926125E0,5.392377119E0,2.526480142E0,1.244357657E-1,5.956199893E0
4.595892125E0,5.475016987E0,2.718702094E0,3.969872927E0,7.288830026E0
4.605857125E0,3.781579719E0,4.305370666E-1,3.446267629E0,5.134439396E0
4.615823125E0,1.168555523E0,-9.655774717E-1,1.764939945E0,2.326558590E0
4.625788125E0,-3.071396202E-1,-1.077002452E0,7.311656660E-1,1.337487293E0
4.635754125E0,6.576948166E-3,-8.611923932E-1,3.225312459E-1,9.196314473E-1
4.645719125E0,1.146025032E-1,-5.548484328E-1,-5.519233632E-1,7.909550657E-1
4.655685125E0,-1.208069252E0,-3.567275172E-1,-1.360563175E0,1.854135376E0
4.665651125E0,-2.018331959E0,-1.157984196E0,-1.100820792E0,2.574179036E0
4.675616125E0,-8.022660542E-1,-8.048258190E-1,-1.820690222E0,2.146226527E0
4.685582125E0,8.959115517E-1,1.570872027E-1,-2.056674783E0,2.248831932E0
4.695547125E0,2.203559471E0,3.253364477E-1,-8.542992568E-1,2.385654076E0
4.705513125E0,1.744740738E0,5.447565772E-1,2.523368838E-1,1.845143321E0
4.715478125E0,-1.476948202E-2,-1.475157492E-2,5.843996760E-1,5.847723727E-1
4.725444125E0,-1.255181438E0,-7.045781571E-1,4.667270923E-1,1.513190339E0
4.735409125E0,3.422059572E-1,-1.386165501E0,2.562379707E0,2.933317146E0
4.745375125E0,1.319421873E0,-1.501560156E0,3.184882472E0,3.760190599E0
4.755340125E0,7.454457361E-1,-8.618272546E-1,2.985867517E0,3.195909947E0
4.765306125E0,1.077971628E0,-7.594258440E-1,2.429821866E0,2.764558689E0
4.775271125E0,2.136422911E0,-9.754195051E-1,1.174608853E0,2.625919272E0
4.785237125E0,2.253079541E0,-4.226590399E-1,8.462640131E-1,2.443597934E0
4.795202125E0,2.972222162E0,-3.516839283E-1,1.247868033E0,3.242678028E0
4.805168125E0,4.340442558E0,-6.320891283E-2,1.373681988E0,4.553069203E0
4.815133125E0,5.462812679E0,3.830174759E-2,1.607973487E0,5.694678931E0
4.825099125E0,6.383486019E0,3.123044658E-1,2.026666287E0,6.704759808E0
4.835065125E0,5.371254637E0,5.178712989E-1,6.250898650E-1,5.432246717E0
4.845030125E0,2.497759203E0,-5.656137416E-1,2.769495687E-1,2.575931095E0
4.854996125E0,8.088073343E-1,-1.758984409E0,2.367061070E-1,1.950442318E0
4.864961125E0,-1.263741762E0,-2.234890315E0,2.576030324E0,3.636991915E0
4.874927125E0,-9.401559123E0,-3.831709653E0,-4.780510732E0,1.122161288E1
4.884892125E0,-1.233883891E1,-2.232545874E0,-3.570835250E0,1.303771725E1
4.894858125E0,-1.149723513E1,-8.657644042E-1,-2.650619454E0,1.183054297E1
4.904823125E0,-8.110966946E0,1.040811257E0,-3.881047289E0,9.051718121E0
4.914789125E0,-2.961618821E0,3.853788739E0,-5.487834084E0,7.330702328E0
4.924754375E0,-1.012004510E0,3.751720912E0,-4.078965891E0,5.633606809E0
4.934720375E0,-3.352651953E0,8.085159968E-1,-1.096480989E0,3.618873276E0
4.944685375E0,-5.294932685E0,-1.085955562E0,6.912429240E-1,5.449167680E0
4.954651375E0,-3.274097534E0,-1.762312206E0,3.144285838E0,4.869496114E0
4.964617375E0,3.439249216E0,-1.815697723E0,2.680932589E0,4.723620745E0
4.974582375E0,4.402339429E0,6.470689639E-2,1.205740306E0,4.564930351E0
4.984548375E0,1.775812258E0,1.323080622E0,3.718399385E0,4.327880023E0
4.994513375E0,5.794580187E0,-6.077148637E-1,3.278867108E0,6.685614886E0
5.004479375E0,6.193291297E0,3.330106258E-1,-9.829339081E-1,6.279642684E0
5.014444375E0,2.325705467E0,1.292407444E0,-1.461836658E0,3.035817738E0
5.024410375E0,-2.898616827E-1,-3.542083175E-1,-2.185609689E0,2.233018817E0
5.034375375E0,-1.908784958E0,-8.931724966E-1,-2.204856384E0,3.050017836E0
5.044341375E0,-2.444832546E0,-1.049791337E0,-5.656514561E-1,2.720152496E0
5.054306375E0,-4.251487697E0,-1.856315553E0,-1.999035562E0,5.051455062E0
5.064272375E0,2.052080333E-1,-8.631918485E-1,1.444717764E0,1.695411432E0
5.074237375E0,9.612128468E0,2.275681222E0,1.282622421E0,9.960765984E0
5.084203375E0,7.321615638E0,2.854163954E0,-4.443129605E-1,7.870814534E0
5.094169375E0,-1.540031472E0,8.047968753E-1,3.930375570E-1,1.781536828E0
5.104134375E0,1.344391823E-2,-1.423506112E-1,1.183154851E-1,1.855882256E-1
5.114100375E0,2.092069441E-1,5.275881287E-1,-3.516269910E-1,6.676513460E-1
5.124065375E0,-2.365502787E-1,7.061461611E-1,-7.694117188E-2,7.486777539E-1
5.134031375E0,-2.660003650E-1,1.523626524E-1,-1.387426161E0,1.420887724E0
5.143996375E0,-1.021622010E0,-5.000841419E-1,-2.262685931E0,2.532497444E0
5.153962375E0,-8.219869584E-1,-4.979974169E-1,-3.222494394E0,3.362756920E0
5.163927375E0,-1.099710406E0,-8.562165588E-2,-2.398608552E0,2.640078982E0
5.173893375E0,1.412125969E-1,2.322829807E-1,-6.786366194E-1,7.310567980E-1
5.183858375E0,1.136537924E0,1.194181530E0,3.581854035E0,3.943027556E0
5.193824375E0,1.693757111E0,5.293563268E-1,6.615218192E0,6.849097970E0
5.203789375E0,4.873315108E-1,-1.988594189E0,3.240927449E0,3.833485305E0
5.213755375E0,-5.707356101E-1,-2.058032799E0,9.768282455E-1,2.348495595E0
5.223720375E0,-5.273586255E-1,-8.688781196E-1,-1.869623816E-1,1.033446292E0
5.233686375E0,-8.048189485E-1,1.006826216E-1,-4.154157284E-1,9.112852229E-1
5.243652375E0,-4.147675645E-1,6.201223630E-1,-1.526438743E0,1.698999445E0
5.253617375E0,2.272695780E-1,3.787975404E-1,-1.393904876E0,1.462227698E0
5.263583375E0,2.010810685E-1,3.302001616E-1,-7.187771702E-1,8.161533944E-1
5.273548375E0,2.030018789E-1,7.778831649E-1,6.470867980E-1,1.032004508E0
5.283514375E0,-6.220648080E-1,8.161640087E-1,6.902181995E-1,1.236725304E0
5.293479375E0,-1.172281954E0,-1.780389458E-2,8.694698578E-1,1.459636870E0
5.303445375E0,-2.627142298E-1,9.015967995E-2,3.094092169E-1,4.157903293E-1
5.313410375E0,1.184088067E0,3.366540259E-1,-2.697680184E-1,1.260228260E0
5.323376375E0,1.233671286E0,-5.673442250E-1,-3.265973997E-1,1.396599504E0
5.333341375E0,7.061027455E-1,-1.018922936E0,3.954407626E-1,1.301214215E0
5.343307375E0,4.268058121E-2,-7.942618006E-1,1.391102890E0,1.602448342E0
5.353272375E0,-1.118126212E0,-4.258813673E-1,-1.020169562E-1,1.200828307E0
5.363238375E0,-9.213679898E-1,7.046011806E-1,8.234022769E-1,1.422453200E0
5.373203375E0,1.265497096E0,1.615314374E0,1.931126877E0,2.817796026E0
5.383169375E0,1.131443245E0,1.236082678E0,-6.790684363E-1,1.808092405E0
5.393135375E0,5.677897829E-1,6.151270866E-2,-1.955189046E-1,6.036527917E-1
5.403100375E0,8.563364267E-1,-9.163200885E-1,3.149158323E-1,1.293107328E0
5.413066375E0,6.492040747E-1,-7.887928998E-1,7.325577419E-1,1.257100240E0
5.423031375E0,-7.258265734E-2,-7.834415281E-1,8.868515834E-2,7.917789637E-1
5.432997375E0,4.832109779E-1,-7.094608015E-1,-9.580319323E-1,1.286333029E0
5.442962375E0,2.216582975E0,-2.023575157E-1,-7.562484670E-1,2.350765916E0
5.452928375E0,1.542544021E0,-7.640743804E-1,-7.621187791E-1,1.882571844E0
5.462893375E0,1.357891290E0,-6.500063127E-1,-8.007602499E-1,1.705166836E0
5.472859375E0,2.349947439E0,1.008171076E-1,-9.603233099E-2,2.354068662E0
5.482824375E0,3.314522259E0,3.673729581E-1,1.748429747E0,3.765372130E0
5.492790375E0,2.054232109E0,-1.563890451E-1,3.075634848E0,3.701872068E0
5.502756375E0,-1.994253125E0,-1.073093296E0,1.722566781E0,2.845313877E0
5.512721375E0,-6.978467109E0,-7.973543930E-1,2.242325342E-1,7.027450281E0
5.522687375E0,-4.622051480E0,-4.620040038E-1,7.097543317E-1,4.698995510E0
5.532652375E0,-7.285519606E-1,1.841020406E0,-2.890635377E-1,2.000925242E0
5.542618375E0,1.107357395E0,3.671559094E0,-6.218969929E-1,3.885015116E0
5.552583375E0,7.599865919E-1,3.416605581E0,-7.282123835E-1,3.575061761E0
5.562549375E0,-3.809273887E-1,1.577834599E0,-2.154408069E-1,1.637401123E0
5.572514375E0,-1.501508262E0,1.053293454E0,-5.961945333E-1,1.928575143E0
5.582480375E0,-2.901449803E0,5.260611284E-1,-1.982429762E-1,2.955410554E0
5.592445375E0,-3.195663568E0,-3.041768360E-1,3.198372875E-1,3.226001407E0
5.602411375E0,-2.685246080E0,-8.460160911E-1,3.528632386E-1,2.837393558E0
5.612376375E0,-2.939707550E0,-1.959089724E0,-5.070525612E-1,3.568895533E0
5.622342375E0,-1.156237779E0,-2.536330946E0,-3.878487378E-2,2.787716760E0
5.632307375E0,1.873551391E0,-1.918261541E0,1.724679526E0,3.188172144E0
5.642273375E0,6.794727713E0,-1.476772785E-1,3.316891551E0,7.562532832E0
5.652239375E0,3.517210727E0,-7.121399957E-1,1.027862744E0,3.732883134E0
5.662204375E0,7.941489494E-1,-1.230113840E-1,-1.046207798E0,1.319225194E0
5.672170375E0,7.997938514E-2,1.712876921E0,-1.059264046E-1,1.718011773E0
5.682135375E0,-2.757967901E-1,2.163635268E0,4.440379952E-1,2.225882113E0
5.692101375E0,4.102967834E-1,2.045025668E0,-1.216622706E0,2.414672698E0
5.702066375E0,2.304887041E0,2.483235304E0,-6.109758559E-1,3.442710174E0
5.712032375E0,2.745080053E0,1.527627774E0,-8.443891034E-1,3.253014613E0
5.721997375E0,2.803280899E0,5.746930057E-1,-1.188562941E0,3.098602542E0
5.731963375E0,2.330368037E0,4.736098498E-1,-8.894541791E-1,2.538907288E0
5.741928375E0,1.533839271E0,4.588754511E-1,-4.867000115E-1,1.673351873E0
5.751894375E0,4.983733928E-1,7.345962274E-1,-5.617556025E-1,1.050512738E0
5.761859375E0,9.562244117E-2,7.679838288E-1,-6.762119253E-1,1.027718532E0
5.771825375E0,3.212208849E-1,7.139426923E-1,-8.897228587E-1,1.185117627E0
5.781791375E0,3.312014973E-1,2.245582241E-1,-5.648674907E-1,6.922399222E-1
5.791756375E0,-4.618604547E-1,-1.720016956E-2,-5.620146342E-1,7.276478368E-1
5.801722375E0,-1.059365203E0,-1.665992777E0,7.688069706E-1,2.118690804E0
5.811687375E0,-2.152158353E0,-4.649280210E0,2.971806425E0,5.922771772E0
5.821653375E0,-1.144673740E0,-4.874358251E0,1.501514109E0,5.227254628E0
5.831618375E0,-5.252238071E-1,-1.902403307E0,1.099025112E-1,1.976632731E0
5.841584375E0,1.389136471E0,-7.698204392E-1,1.563015123E0,2.228304270E0
5.851549375E0,1.035019151E0,9.714382821E-1,-1.221039546E0,1.872403416E0
5.861515375E0,3.184317631E-1,2.915918738E-1,-1.525454949E0,1.585382417E0
5.871480375E0,1.480538392E-1,-9.223269331E-1,2.748618203E-1,9.737329876E-1
5.881446375E0,-8.065684354E-1,-1.398512481E0,7.653030266E-1,1.786638890E0
5.891412375E0,-7.219907999E-2,-2.066970268E0,1.204775370E0,2.393546007E0
5.901377375E0,1.043442650E0,-2.206003608E0,8.583939157E-1,2.586902510E0
5.911343375E0,1.042479029E0,-1.562090678E0,4.068478033E-2,1.878442191E0
5.921308750E0,1.183130293E0,-6.359256327E-1,7.648596615E-3,1.343226415E0
5.931274750E0,9.949037433E-1,5.234152633E-1,-3.036016162E-1,1.164461651E0
5.941239750E0,3.998144799E-1,1.316438624E0,-5.412293905E-1,1.478442262E0
5.951205750E0,7.775870034E-1,2.110378827E0,-8.536303353E-1,2.405623639E0
5.961170750E0,8.309989795E-1,3.142929284E0,-3.067507803E0,4.469694387E0
5.971136750E0,1.952905416E0,4.665800933E0,-3.600038291E0,6.208366420E0
5.981101750E0,8.544486532E-1,4.059957470E0,-1.868865140E0,4.550383948E0
5.991067750E0,-2.308459105E0,2.339792579E-1,-7.941814014E-1,2.452438344E0
6.001032750E0,-1.166503150E0,-3.817389822E-1,-1.178505145E0,1.701566522E0
6.010998750E0,1.673187776E0,2.548397845E-1,-1.670672303E0,2.378160338E0
6.020964750E0,2.087415642E0,4.767234921E-3,-1.032323000E0,2.328737333E0
6.030929750E0,1.528159286E0,-1.222660979E0,1.211493967E0,2.301714210E0
6.040895750E0,-4.314531791E-1,-3.160403688E0,2.847380015E0,4.275731080E0
6.050860750E0,-2.545536218E0,-2.573774761E0,9.192472047E-1,3.734847598E0
6.060826750E0,-3.138852021E0,-6.663106889E-1,-7.973646256E-1,3.306380542E0
6.070791750E0,-2.705342960E0,-2.288740540E-1,1.240939521E0,2.985162435E0
6.080757750E0,-6.190371197E-1,5.009602010E-1,-8.237674356E-2,8.005960320E-1
6.090722750E0,2.452341540E0,1.089428077E0,-4.283880687E-1,2.717415850E0
6.100688750E0,3.016915355E0,5.587710375E-1,-8.492289899E-1,3.183581820E0
6.110653750E0,2.099455644E0,-8.259981483E-1,-1.178036930E0,2.545143994E0
6.120619750E0,5.170149010E-1,-1.471895623E0,9.491726696E-1,1.826118805E0
6.130584750E0,-2.417007986E0,-1.337690914E0,4.140856622E0,4.977754328E0
6.140550750E0,-2.395460996E0,-7.044012058E-1,3.614159902E0,4.392785704E0
6.150515750E0,-2.753148626E0,-7.262762243E-1,1.334255674E0,3.144446329E0
6.160481750E0,2.400860900E-1,-7.018564975E-1,-3.753549922E-1,8.313454419E-1
6.170447750E0,1.702064250E0,-1.121573730E0,-1.176970836E0,2.353765216E0
6.180412750E0,2.597576437E0,5.852940077E-1,-1.178810443E0,2.911969519E0
6.190378750E0,2.683268552E0,3.052531330E0,-8.758359408E-1,4.157519241E0
6.200343750E0,1.706295295E0,3.934627665E0,-9.681931505E-1,4.396605108E0
6.210309750E0,8.138663453E-1,2.842163714E0,-1.028514197E0,3.130193996E0
6.220274750E0,-1.351375737E0,1.186463206E0,-7.968193728E-1,1.966934781E0
6.230240750E0,-1.566121749E0,1.503453630E0,1.851162987E0,2.853053549E0
6.240205750E0,-1.147106182E0,1.260788333E0,2.472923740E0,3.003463274E0
6.250171750E0,-7.677832693E-1,4.133110231E-1,2.321342275E0,2.479707061E0
6.260136750E0,6.395415509E-1,-2.062464988E-1,2.242452811E0,2.340971085E0
6.270102750E0,1.209183147E0,-1.887547286E0,7.044415516E-1,2.349722652E0
6.280067750E0,1.229760084E0,-3.632324862E0,1.474210243E-1,3.837685074E0
6.290033750E0,7.964287788E-1,-3.822616648E0,9.583456354E-1,4.020587419E0
6.299999750E0,7.163119841E-1,-1.301816491E0,1.056967552E-1,1.489631109E0
6.309964750E0,-1.235709625E-1,1.570266840E0,-2.491562909E0,2.947692905E0
6.319930750E0,-2.442498338E0,3.566960592E0,-3.248470357E0,5.407547102E0
6.329895750E0,-2.831806540E0,3.995110095E0,-9.708256401E-1,4.992247527E0
6.339861750E0,-4.916561115E-1,2.993439953E0,5.003012198E-1,3.074525947E0
6.349826750E0,6.368418914E-1,1.007731365E0,-2.577528673E-1,1.219642013E0
6.359792750E0,1.794832665E0,-1.129773865E0,-4.617968662E-1,2.170499857E0
6.369757750E0,3.294817727E0,-3.313677337E0,1.963748785E0,5.068785914E0
6.379723750E0,8.394116610E-1,-4.919644936E0,4.802919309E0,6.926438632E0
6.389688750E0,-2.023620765E0,-1.790587587E0,2.259623160E0,3.522377284E0
6.399654750E0,-6.930926907E-1,2.170507500E0,-7.048480792E-1,2.385013858E0
6.409619750E0,-1.100727237E0,2.144062883E0,-2.392277333E0,3.395820510E0
6.419585750E0,-8.843106759E-1,4.908901262E-1,-2.091598740E0,2.323308799E0
6.429551750E0,-1.870611995E-1,-1.216314411E-1,-4.984735264E-1,5.461336433E-1
6.439516750E0,-4.048530257E-1,2.642117018E-1,-2.601375081E-1,5.489857182E-1
6.449482750E0,-8.099890566E-1,2.728469283E0,-1.886874564E-1,2.852407730E0
6.459447750E0,-5.638586998E-1,3.680550358E0,3.204316570E-1,3.737253539E0
6.469413750E0,-4.544888699E-1,2.564202284E0,9.249045320E-1,2.763537928E0
6.479378750E0,-3.938193297E-1,1.303619188E0,1.216462930E0,1.826006219E0
6.489344750E0,-7.930052340E-2,-6.388059711E-1,1.339277117E0,1.485942407E0
6.499309750E0,1.170036038E0,-3.002164584E0,6.189190060E-1,3.281011621E0
6.509275750E0,1.466492795E0,-3.094765769E0,1.230559398E0,3.639018097E0
6.519240750E0,1.328867465E0,-2.413980297E0,1.753425023E0,3.266142821E0
6.529206750E0,2.118452078E-1,-1.464502403E0,1.058446751E0,1.819328229E0
6.539171750E0,-1.036126614E0,-1.696446830E-1,1.710994703E0,2.007446276E0
6.549137750E0,-1.907384550E0,1.044422643E0,-4.553656599E-1,2.221776848E0
6.559103750E0,-1.987030059E0,1.774268593E0,-4.294831352E0,5.053898875E0
6.569068750E0,-6.015440047E-2,5.151063699E-1,-3.200615575E0,3.242359200E0
6.579034750E0,1.943710962E0,-5.023085690E-1,-1.346735972E0,2.417441619E0
6.588999750E0,1.723265669E0,-1.319677396E0,-6.119289520E-1,2.255138586E0
6.598965750E0,6.555576593E-1,-1.056128769E0,-4.515643850E-2,1.243866120E0
6.608930750E0,-1.041005530E0,-3.524941331E-1,8.276695749E-1,1.375856662E0
6.618896750E0,-2.202960132E0,4.993101168E-1,-1.605955321E-1,2.264538553E0
6.628861750E0,-1.756511183E0,5.230650151E-1,-5.380920669E-1,1.910097280E0
6.638827750E0,-1.033476655E0,8.825009626E-1,-7.625003099E-2,1.361137764E0
6.648792750E0,-3.994227165E-1,-3.683085126E-1,-3.213848993E-1,6.312510756E-1
6.658758750E0,7.590732569E-1,-1.379800222E0,-1.232867879E-1,1.579633025E0
6.668724750E0,-7.773417127E-1,5.700567484E-2,-7.797022337E-1,1.102472384E0
6.678689750E0,-1.626640431E0,3.451728344E-2,-6.930833352E-1,1.768478172E0
6.688655750E0,-3.257979099E0,-1.859706938E-1,1.741896068E0,3.699082970E0
6.698620750E0,-8.468879110E-1,-6.165579003E-1,2.636578827E0,2.837060220E0
6.708586750E0,1.527075797E0,-4.635959083E-1,-1.005736587E0,1.886368930E0
6.718551750E0,1.140597062E0,7.498007423E-1,-2.793753446E0,3.109376324E0
6.728517750E0,4.170362842E-1,8.018690282E-1,-4.323828864E0,4.417285280E0
6.738482750E0,3.648077846E-2,7.871843308E-1,-3.521241213E0,3.608341683E0
6.748448750E0,3.207227021E-1,1.389589630E0,-1.526536683E0,2.089051612E0
6.758413750E0,8.735506296E-1,1.474305845E0,7.574063618E-1,1.873588222E0
6.768379750E0,1.080009382E0,1.641435056E0,2.965091482E0,3.557034834E0
6.778344750E0,1.309990314E0,1.894824146E0,7.338881296E-1,2.417648642E0
6.788310750E0,1.911983385E0,1.472405500E0,-1.416941151E-2,2.413267327E0
6.798275750E0,2.193047932E0,1.885212493E-1,1.654723292E0,2.753744481E0
6.808241750E0,1.296508389E0,-5.212915546E-1,7.832478391E-1,1.601922615E0
6.818207750E0,2.613921744E0,-4.727736980E-1,-5.709462561E-1,2.716998616E0
6.828172750E0,2.945684866E0,-4.395644367E-1,-8.702352583E-1,3.102835095E0
6.838138750E0,2.110895429E0,-2.737947035E-1,-2.189049752E0,3.053323086E0
6.848103750E0,1.441326964E-1,3.709988165E-1,-2.657879941E0,2.687515607E0
6.858069750E0,-4.313465551E0,-2.493539268E0,1.799692871E0,5.297416122E0
6.868034750E0,-6.570893959E0,-6.075642394E0,6.298524806E0,1.094355941E1
6.878000750E0,-2.908814955E0,-4.758656471E0,4.314557519E0,7.051341889E0
6.887965750E0,2.432497260E0,-3.278306360E0,-1.704551071E-1,4.085754575E0
6.897931750E0,7.856046470E0,4.271098673E-1,-3.481756135E0,8.603633812E0
6.907896750E0,6.745069649E0,4.836787552E-1,-3.550523484E0,7.637809026E0
6.917862750E0,5.148052382E-1,8.022935361E-1,-2.292983864E0,2.483238682E0
6.927827083E0,-1.404302394E0,6.218221486E-2,-1.883763553E0,2.350424848E0
6.937793083E0,1.575386662E0,5.896209472E-1,-1.717259994E0,2.403846477E0
6.947759083E0,3.397010392E0,6.567054677E-1,-1.979271389E0,3.986032728E0
6.957724083E0,2.523146937E0,-4.552928621E-1,-1.780083064E0,3.121259004E0
6.967690083E0,-1.668326985E0,-2.743200758E0,8.935235488E-1,3.332694055E0
6.977655083E0,-3.410884958E0,-5.318240272E0,3.246270050E0,7.103244683E0
6.987621083E0,-2.169118202E-1,-3.063769094E0,2.360683950E0,3.873830212E0
6.997586083E0,2.404794029E0,-1.545631351E0,-1.058215933E-1,2.860630841E0
7.007552083E0,2.448901623E0,2.451310676E-1,-1.119581657E0,2.703825343E0
7.017517083E0,2.270026818E0,1.807590705E0,-1.376166177E0,3.211578936E0
7.027483083E0,4.249341184E-1,1.037864991E0,-1.338717100E0,1.746395207E0
7.037448083E0,-1.484624134E0,7.856734103E-1,6.499226245E-1,1.801052732E0
7.047414083E0,-1.754219952E0,1.304576377E0,2.575829473E0,3.378476674E0
7.057380083E0,-2.374015456E0,3.808548832E-1,1.204432869E0,2.689174290E0
7.067345083E0,-4.573897028E0,-3.749930495E-1,4.382833117E-1,4.610124301E0
7.077311083E0,-5.859015334E0,-2.482125503E-1,3.091172216E-1,5.872412077E0
7.087276083E0,-4.428775860E0,6.774934888E-1,1.350584024E0,4.679436959E0
7.097242083E0,-1.673581293E0,1.897582278E0,9.500474862E-1,2.702643719E0
7.107207083E0,-7.205376206E-1,3.067915354E0,-9.455532432E-3,3.151407383E0
7.117173083E0,3.351779694E-1,2.889120364E0,8.645869942E-1,3.034282686E0
7.127138083E0,1.628871143E0,1.670400408E0,7.743486692E-1,2.458266582E0
7.137104083E0,2.376273943E0,7.848723418E-1,-5.288052267E-1,2.557799330E0
7.147069083E0,3.578652977E0,4.369209105E-1,-7.454344802E-1,3.681484697E0
7.157035083E0,4.657009059E0,-4.247861838E-1,-1.353774265E0,4.868355106E0
7.167000083E0,4.691818411E0,-6.109773177E-1,-1.383278146E0,4.929494063E0
7.176966083E0,2.392067564E0,-3.032190621E-2,6.325054501E-1,2.474463537E0
7.186932083E0,5.561329930E-1,-5.601509804E-1,1.514998958E0,1.708295896E0
7.196897083E0,-7.949136190E-1,-3.146591395E-1,2.005818917E0,2.180414540E0
7.206863083E0,-1.466985569E0,5.916160172E-1,5.723313153E-1,1.682147231E0
7.216828083E0,-7.048976344E-1,3.528496438E-1,-9.005302674E-1,1.196803371E0
7.226794083E0,-1.179106385E-1,9.152968258E-1,-8.007557184E-1,1.221835062E0
7.236759083E0,1.583715728E0,1.119672216E0,-4.449700414E-1,1.989929576E0
7.246725083E0,2.434279637E0,6.865122342E-1,5.692919326E-1,2.592510310E0
7.256690083E0,2.284185266E0,7.483015162E-1,8.768431967E-1,2.558576065E0
7.266656083E0,2.275215199E0,2.214499612E0,-5.813909181E-1,3.227789976E0
7.276621083E0,2.363257456E0,3.888430569E0,-8.785138194E-1,4.634292246E0
7.286587083E0,2.134130217E0,4.017088024E0,-7.447960373E-1,4.609363201E0
7.296552083E0,6.637918253E0,1.009411270E1,2.704973855E-1,1.208413169E1
7.306518083E0,5.322413430E0,8.620973960E0,-3.520313260E0,1.072575788E1
7.316484083E0,-1.082970632E0,-2.121936434E0,-2.811249484E0,3.684910214E0
7.326449083E0,-3.816443450E0,-8.109980521E0,-1.442425656E0,9.078414864E0
7.336415083E0,-5.750407981E0,-1.178522921E1,7.789795178E-1,1.313642373E1
7.346380083E0,-4.649524038E0,-1.072731587E1,3.152787105E0,1.210922979E1
7.356346083E0,-2.954384280E-1,-3.419721270E0,4.833420725E0,5.928215021E0
7.366311083E0,1.672535080E0,1.991256427E0,2.104568449E0,3.345397451E0
7.376277083E0,1.196583274E0,3.044198463E0,-1.341587498E0,3.535366011E0
7.386242083E0,1.739157963E0,3.064146239E0,-3.489373888E0,4.958769275E0
7.396208083E0,3.321238079E0,3.907256849E0,-4.077725405E0,6.551726714E0
7.406173083E0,2.802679513E0,4.308600960E0,-2.657201664E0,5.786171046E0
7.416139083E0,2.300988702E0,7.267749918E-1,-1.714391204E-1,2.419120143E0
7.426105083E0,1.721085535E-1,-2.700524270E0,8.945187449E-1,2.850020434E0
7.436070083E0,-2.292822188E0,-5.278354660E0,4.453099839E-1,5.772032786E0
7.446036083E0,-2.623302432E0,-5.305254191E0,1.333270419E0,6.066716384E0
7.456001083E0,-1.801166369E0,-3.528678287E0,1.731700863E0,4.323720460E0
7.465967083E0,-9.808673559E-1,-1.334491902E0,9.844816661E-1,1.926700173E0
7.475932083E0,1.821904689E-2,4.332102674E-1,8.103153312E-1,9.190288382E-1
7.485898083E0,7.557337658E-1,1.630388496E0,-1.094949603E-1,1.800358108E0
7.495863083E0,1.126376779E0,1.449671525E0,-8.450686960E-1,2.020993142E0
7.505829083E0,8.716362512E-1,6.760685223E-1,-1.122888842E0,1.574070441E0
7.515794083E0,-2.341960435E-1,-4.722971499E-1,-1.039215040E0,1.165281204E0
7.525760083E0,-1.667002006E0,-1.617393644E0,-6.870232809E-1,2.422159961E0
7.535725083E0,-3.128175005E0,-2.200910683E0,-3.287151881E-1,3.838950425E0
7.545691083E0,-4.131758355E0,-4.143165688E0,-2.922356522E-1,5.858553635E0
7.555657083E0,-4.204308268E0,-7.695008889E0,5.541428201E-1,8.786150697E0
7.565622083E0,-5.939578271E-1,-3.077270315E0,-2.800406992E-1,3.146553874E0
7.575588083E0,1.208268935E0,-2.417928922E-1,-6.557779531E-1,1.395858999E0
7.585553083E0,1.410107218E0,-4.864094049E-1,-7.764776404E-1,1.681640271E0
7.595519083E0,1.358262734E0,5.298127019E-1,-7.031778952E-1,1.618653238E0
7.605484083E0,1.318636153E0,1.490754647E0,-7.224071217E-1,2.117314991E0
7.615450083E0,2.222482815E0,2.234362603E0,-1.112616380E0,3.342113301E0
7.625415083E0,2.950197747E0,1.970017585E0,-6.215366583E-1,3.601519658E0
7.635381083E0,2.963480282E0,1.344609339E0,5.934491193E-1,3.307925561E0
7.645346083E0,3.195333785E0,1.015650834E0,1.729960731E0,3.772859492E0
7.655312083E0,5.754488168E0,2.342781676E0,3.392366241E0,7.078905902E0
7.665278083E0,7.475261169E0,3.882091017E0,4.012666944E0,9.330147706E0
7.675243083E0,6.677355968E0,4.703383911E0,3.690545003E0,8.962646114E0
7.685209083E0,5.615984586E0,6.067028276E0,3.265814953E0,8.888962947E0
7.695174083E0,4.037473172E0,5.123418063E0,3.591469781E0,7.446425817E0
7.705140083E0,2.330704837E0,3.139144966E0,3.040410637E0,4.952828787E0
7.715105083E0,1.498362021E0,3.028676444E0,-3.277282512E-1,3.394904352E0
7.725071083E0,1.099034980E0,3.156966110E0,-4.338089054E0,5.476616615E0
7.735036083E0,6.369545234E-1,2.011656193E0,-6.099829402E0,6.454486071E0
7.745002083E0,1.495436367E-1,1.818993360E0,-6.893090744E0,7.130624107E0
7.754967083E0,-5.583598320E-1,1.694659336E0,-5.921530255E0,6.184509401E0
7.764933083E0,-1.390561145E0,1.082211444E0,-2.215375817E0,2.830676936E0
7.774898083E0,-5.397508636E0,-2.913141895E0,2.157041070E0,6.501716800E0
7.784864083E0,-7.614438935E0,-1.227055980E1,3.572297054E0,1.487641168E1
7.794830083E0,-3.665773859E0,-1.363146182E1,1.035044879E0,1.415365562E1
7.804795083E0,-2.454033725E0,-8.987792017E0,-2.316738031E0,9.600518838E0
7.814761083E0,-7.034014781E-1,-2.943652666E0,-2.022842062E0,3.640295959E0
7.824726083E0,-3.849119738E-2,1.148977876E0,8.677197862E-1,1.440336543E0
7.834692083E0,3.146013983E-2,2.984690180E0,7.194414139E-2,2.985722889E0
7.844657083E0,7.926405139E-1,1.430279819E0,-1.596120304E0,2.285077541E0
7.854623083E0,1.771302154E0,9.346715748E-1,4.897535737E-1,2.061790687E0
7.864588083E0,2.238831630E0,3.024425519E-1,1.485538931E0,2.703824048E0
7.874554083E0,2.134041340E0,-8.486093313E-1,8.856964660E-1,2.461448449E0
7.884519083E0,2.015764592E0,-8.665480042E-1,8.190522408E-1,2.342020262E0
7.894485083E0,1.164137294E0,-5.885257638E-1,6.724799399E-1,1.467585597E0
7.904451083E0,4.041595459E-3,-8.666772276E-1,-1.457617307E-1,8.788584832E-1
7.914416083E0,-7.122072387E-1,-9.419805944E-1,-8.669337742E-1,1.464971249E0
7.924382583E0,-1.022098632E0,-1.020366613E0,-1.843581341E0,2.341927795E0
7.934347583E0,-7.505982294E-1,-4.048816770E-1,-2.497693130E0,2.639279797E0
7.944313583E0,-1.337286725E-1,6.484860367E-1,-2.401339202E0,2.490953123E0
7.954278583E0,4.363372122E-1,1.459095483E0,-1.866966695E0,2.409339003E0
7.964244583E0,9.739670567E-1,1.983236386E0,-8.361269876E-1,2.362402745E0
7.974209583E0,1.475177372E0,2.218968054E0,9.398346663E-2,2.666233373E0
7.984175583E0,1.789202966E0,2.232851683E0,9.239501202E-1,3.006752021E0
7.994140583E0,1.779574941E0,2.404602533E0,1.343451737E0,3.279308293E0
8.004106583E0,1.684763947E0,3.501887514E0,7.069014752E-1,3.949855113E0
8.014072583E0,1.270750381E0,3.655598534E0,4.232450040E-1,3.893243315E0
8.024037583E0,1.096790599E0,4.919904553E0,3.114063334E-1,5.050285569E0
8.034003583E0,1.147639302E0,4.828381010E0,5.165325058E-1,4.989703896E0
8.043968583E0,1.228550002E0,4.038266639E0,6.230214125E-1,4.266742110E0
8.053934583E0,1.581416164E0,3.463780040E0,4.711113346E-1,3.836742778E0
8.063899583E0,1.712860549E0,2.302852795E0,-2.732900888E-2,2.870151412E0
8.073865583E0,1.604489424E0,7.683878714E-1,-6.448411748E-1,1.892254310E0
8.083830583E0,1.271820275E0,-1.197759442E0,-1.179825739E0,2.108113675E0
8.093796583E0,1.400956179E0,-3.017608835E0,-1.733747388E0,3.751602498E0
8.103761583E0,1.861388159E0,-4.340584645E0,-2.318906033E0,5.261441450E0
8.113727583E0,2.792362101E0,-4.577835420E0,-2.453999226E0,5.897115858E0
8.123692583E0,3.635556910E0,-3.884453877E0,-2.027788953E0,5.693696867E0
8.133658583E0,3.845839742E0,-2.819571242E0,-1.598005739E0,5.029322782E0
8.143624583E0,3.595320758E0,-1.976464140E0,-1.379153228E0,4.328372151E0
8.153589583E0,3.296680650E0,-1.533555096E0,-1.321653171E0,3.868676989E0
8.163555583E0,2.994694181E0,-1.484475907E0,-9.681653032E-1,3.479828446E0
8.173520583E0,2.982773170E0,-1.858280802E0,-3.598262492E-1,3.532650316E0
8.183486583E0,2.573399954E0,-6.599167585E-1,7.787473834E-1,2.768451723E0
8.193451583E0,1.946318528E0,-1.581595820E-1,1.852956035E0,2.691953999E0
8.203417583E0,2.649312601E0,-3.510411000E-1,1.822189156E0,3.234572682E0
8.213382583E0,3.183924990E0,-8.842405093E-1,1.274508533E0,3.541698974E0
8.223348583E0,3.386866643E0,-1.195338110E0,1.174164465E0,3.778671862E0
8.233313583E0,3.547326519E0,-1.478331068E0,1.011039427E0,3.973812892E0
8.243279583E0,2.999735943E0,-9.555484736E-1,7.286101404E-1,3.231464273E0
8.253245583E0,2.276729043E0,-1.164260743E0,7.915905002E-1,2.676866402E0
8.263210583E0,1.528937989E0,-3.135441924E0,-2.563594759E-1,3.497766089E0
8.273176583E0,-7.453238216E-1,-5.097162895E0,-1.389334692E0,5.335431385E0
8.283141583E0,-3.923542514E0,-5.042082708E0,-1.195602112E0,6.499711402E0
8.293107583E0,-5.368586553E0,-1.715674814E0,-1.057851943E-1,5.637060595E0
8.303072583E0,-5.833646019E0,4.865854061E-1,-9.683512446E-1,5.933455601E0
8.313038583E0,-5.349676073E0,1.437670115E0,-1.815052922E0,5.829266382E0
8.323003583E0,-3.545081773E0,3.128719380E0,-1.066349410E0,4.847018754E0
8.332969583E0,-1.423827709E0,4.422192480E0,-1.398356946E0,4.851646506E0
8.342934583E0,-3.355328223E-1,4.582702058E0,-4.454385495E-1,4.616509063E0
8.352900583E0,-7.281553001E-1,3.611001821E0,4.479879355E-1,3.710827061E0
8.362865583E0,-1.168646301E0,2.067311161E0,2.891185015E-1,2.392299964E0
8.372831583E0,-1.810951685E0,2.681492168E-1,-5.051503158E-1,1.899112121E0
8.382797583E0,-2.065072700E0,-8.452343184E-1,-1.453351178E0,2.662926202E0
8.392762583E0,-2.350568852E0,-1.574614829E0,-2.768572412E0,3.958481904E0
8.402728583E0,-2.917584609E0,-1.758535489E0,-3.963329308E0,5.226157884E0
8.412693583E0,-3.043072289E0,-1.243554250E0,-4.309138904E0,5.419907216E0
8.422659583E0,-2.829426431E0,-2.127328151E-1,-4.129825265E0,5.010625301E0
8.432624583E0,-2.204528063E0,6.297761160E-1,-3.779269192E0,4.420343602E0
8.442590583E0,-1.209562631E0,1.262745396E0,-2.815193139E0,3.314042864E0
8.452555583E0,1.893364973E-1,1.799108149E0,-1.348090771E0,2.256099991E0
8.462521583E0,1.242934591E0,1.892329139E0,5.070529997E-1,2.320107479E0
8.472486583E0,1.768169508E0,1.478417607E0,2.271397406E0,3.235952442E0
8.482452583E0,1.881878411E0,5.440489179E-1,3.609728005E0,4.107017390E0
8.492418583E0,1.668683665E0,-3.493138325E-1,3.721324747E0,4.093260705E0
8.502383583E0,1.153352178E0,-4.328541720E-1,2.244748720E0,2.560562594E0
8.512349583E0,7.529243249E-1,4.090945959E-2,-4.050749275E-1,8.559522883E-1
8.522314583E0,3.783864811E-1,6.085594940E-1,-2.346021034E0,2.453025821E0
8.532280583E0,1.058360651E-1,1.043009956E0,-2.866632849E0,3.052319599E0
8.542245583E0,-2.904680389E-1,1.153641030E0,-2.097383683E0,2.411281324E0
8.552211583E0,-4.359657678E-1,1.024690629E0,-9.675729802E-1,1.475213377E0
8.562176583E0,1.046973199E-2,1.192214527E0,-8.694976321E-1,1.475639260E0
8.572142583E0,1.762023354E-1,1.159316922E0,-1.282382101E0,1.737690088E0
8.582107583E0,5.425631404E-1,1.034159026E0,-1.283115926E0,1.735006090E0
8.592073583E0,1.002558041E0,9.679778999E-1,-9.168059921E-1,1.668123817E0
8.602039583E0,1.046018933E0,7.328005475E-1,-5.821666244E-1,1.403591903E0
8.612004583E0,9.517319959E-1,3.769770098E-1,-6.721070337E-1,1.224595167E0
8.621970583E0,9.359258026E-1,-1.752001226E-1,-5.579120815E-1,1.103593259E0
8.631935583E0,6.997561777E-1,-7.439166892E-1,-3.790796685E-1,1.089390721E0
8.641901583E0,5.887701774E-1,-1.365793217E0,-3.361982355E-1,1.524818247E0
8.651866583E0,6.269668213E-1,-1.669799899E0,-5.581790069E-1,1.868925601E0
8.661832583E0,6.351956078E-1,-1.686130003E0,-5.031029132E-1,1.870727235E0
8.671797583E0,6.653833205E-1,-1.228248578E0,-6.811827895E-1,1.554136264E0
8.681763583E0,6.646948108E-1,-4.293978828E-1,-8.016135049E-1,1.126403988E0
8.691728583E0,5.838523766E-1,5.406674731E-1,-1.643245208E0,1.825776472E0
8.701694583E0,3.648019373E-1,1.063805578E0,-2.503701729E0,2.744683061E0
8.711659583E0,1.755380917E-1,1.097339945E0,-2.654910725E0,2.878110411E0
8.721625583E0,4.780531490E-1,1.463603686E0,-3.334736084E0,3.673028085E0
8.731591583E0,8.049727303E-1,1.180561026E0,-3.511863449E0,3.791423257E0
8.741556583E0,1.094601401E0,8.312881243E-1,-3.616074865E0,3.868486733E0
8.751522583E0,1.636849962E0,8.097902513E-1,-3.588422213E0,4.026389453E0
8.761487583E0,2.185819896E0,9.285138720E-1,-3.475367467E0,4.209290399E0
8.771453583E0,2.518602481E0,1.056339853E0,-3.044510704E0,4.090019287E0
8.781418583E0,2.681457377E0,1.357086128E0,-2.640857527E0,4.000753042E0
8.791384583E0,2.854669446E0,1.695888421E0,-2.564520957E0,4.195466949E0
8.801349583E0,2.488080307E0,1.841170095E0,-3.236611619E0,4.478404371E0
8.811315583E0,1.653870329E0,1.751771430E0,-4.226041199E0,4.864505568E0
8.821280583E0,1.346408820E0,1.563858876E0,-4.841487544E0,5.262933871E0
8.831246583E0,1.255644538E0,1.396806849E0,-5.356705595E0,5.676443201E0
8.841211583E0,1.512600137E0,1.393368686E0,-5.723224275E0,6.081507344E0
8.851177583E0,1.885889016E0,1.022337125E0,-5.488607086E0,5.892924429E0
8.861143583E0,2.400558306E0,3.133628118E-1,-5.057528129E0,5.607090797E0
8.871108583E0,3.277710236E0,1.802480239E-1,-4.506569556E0,5.575396211E0
8.881074583E0,3.904580578E0,8.890024817E-1,-3.845274024E0,5.551775142E0
8.891039583E0,3.945958107E0,1.720871819E0,-3.027273113E0,5.262733862E0
8.901005583E0,3.689027943E0,2.023247128E0,-1.958957577E0,4.641117419E0
8.910970583E0,3.251830167E0,1.702071267E0,-7.641647199E-1,3.749052381E0
8.920936583E0,2.777116948E0,8.702948999E-1,2.950455317E-1,2.925208304E0
8.930900958E0,2.242943977E0,-5.185597354E-1,6.428013736E-1,2.390166415E0
8.940866958E0,1.114288099E0,-2.608266901E0,2.007735050E-1,2.843414180E0
8.950831958E0,-1.145040068E0,-5.590875472E0,-5.220195329E-1,5.730751233E0
8.960797958E0,-2.909643798E0,-8.120094450E0,-7.674400377E-1,8.659730084E0
8.970763958E0,-4.475851793E0,-1.024641513E1,-9.597073057E-1,1.122244672E1
8.980728958E0,-4.979478325E0,-1.119120823E1,-1.097551322E0,1.229808786E1
8.990694958E0,-3.806319873E0,-1.005117309E1,-9.068046221E-1,1.078593742E1
9.000659958E0,-2.779431276E0,-8.068195149E0,-3.222245595E-1,8.539604197E0
9.010625958E0,-2.276718810E0,-5.858135912E0,7.369652268E-1,6.328058364E0
9.020590958E0,-1.359707289E0,-3.455547161E0,2.109027828E0,4.270551307E0
9.030556958E0,5.895971198E-1,-1.369956434E0,3.719182912E0,4.007084592E0
9.040521958E0,1.255602292E0,-1.288987700E0,4.197908198E0,4.567325218E0
9.050487958E0,5.207442552E-1,-7.791292065E-1,5.278884417E0,5.361421229E0
9.060452958E0,1.417894832E0,6.032303417E-1,7.001574136E0,7.169124980E0
9.070418958E0,1.448002584E0,1.748721523E0,6.568477305E0,6.949793705E0
9.080383958E0,1.570934884E0,2.641842198E0,5.067250294E0,5.926566641E0
9.090349958E0,1.558165442E0,3.281324692E0,2.897476035E0,4.646540504E0
9.100315958E0,1.024372248E-1,3.267690155E0,8.141388255E-1,3.369141487E0
9.110280958E0,-1.235943953E0,3.310178363E0,-8.970213532E-3,3.533400446E0
9.120246958E0,-2.152496614E0,3.392044060E0,-2.306372818E-1,4.023977899E0
9.130211958E0,-3.090297326E0,3.306256050E0,-2.902622169E-1,4.534922137E0
9.140177958E0,-4.076179985E0,2.857705028E0,-4.147801360E-1,4.995374246E0
9.150142958E0,-5.034024076E0,1.951547400E0,-2.579586893E-1,5.405226946E0
9.160108958E0,-5.353411274E0,1.327831923E0,-2.829526126E-2,5.515700364E0
9.170073958E0,-4.890613511E0,1.248225006E0,6.245586455E-2,5.047778413E0
9.180039958E0,-4.092607738E0,1.077079927E0,1.785458994E-1,4.235731094E0
9.190004958E0,-3.053964775E0,5.376017779E-1,8.442639729E-1,3.213798092E0
9.199970958E0,-2.086020496E0,2.938436365E-1,2.634906231E0,3.373508032E0
9.209936958E0,-2.256900111E0,6.359601313E-1,4.146925155E0,4.763930273E0
9.219901958E0,-2.789910363E0,1.454965010E0,4.574991627E0,5.552573404E0
9.229867958E0,-2.427407843E0,2.306123142E0,3.488014702E0,4.834951846E0
9.239832958E0,-1.687598239E0,2.995968289E0,1.839940133E0,3.899896601E0
9.249798958E0,-7.204966901E-1,3.322071599E0,6.775624859E-1,3.466174565E0
9.259763958E0,5.790937664E-1,3.449078386E0,-2.414172086E-1,3.505677334E0
9.269729958E0,1.883680669E0,3.585556492E0,-7.200764215E-1,4.113754766E0
9.279694958E0,2.794515338E0,2.552146495E0,-6.111626744E-1,3.833573727E0
9.289660958E0,3.753740248E0,1.590009964E-1,4.821204722E-1,3.787913320E0
9.299625958E0,5.276557810E0,-2.179368371E0,2.159719680E0,6.103777348E0
9.309591958E0,6.910541174E0,-4.507364777E0,2.103849826E0,8.514581649E0
9.319556958E0,9.383476024E0,-6.093187550E0,4.692396408E-1,1.119806870E1
9.329522958E0,1.091561142E1,-7.170825886E0,-1.970546466E0,1.320811757E1
9.339488958E0,1.130192409E1,-7.939435367E0,-2.961788098E0,1.412587381E1
9.349453958E0,1.067679710E1,-6.673724263E0,-3.036457627E0,1.295193679E1
9.359419958E0,8.211864746E0,-3.741757842E0,-2.804814624E0,9.449997853E0
9.369384958E0,4.664385614E0,-9.459286344E-1,-1.972711397E0,5.151976746E0
9.379350958E0,1.249551593E0,4.199049282E-1,-8.765686700E-1,1.583057790E0
9.389315958E0,-8.304321650E-1,3.728728491E-1,-2.048510608E-1,9.330678965E-1
9.399281958E0,-1.981440413E0,-1.714113023E0,-1.460766032E-1,2.624048006E0
9.409246958E0,-3.210522805E0,-4.612836269E0,-5.595305908E-1,5.647901345E0
9.419212958E0,-4.879875684E0,-7.028839703E0,-8.539063239E-1,8.599240098E0
9.429177958E0,-5.504446608E0,-7.191464218E0,-7.821817455E-1,9.089988908E0
9.439143958E0,-5.695849950E0,-5.625631322E0,-4.245043480E-1,8.016897054E0
9.449109958E0,-6.433762718E0,-4.834379668E0,6.312303185E-1,8.072359086E0
9.459074958E0,-6.099056400E0,-3.151289633E0,2.138091998E0,7.190309640E0
9.469040958E0,-4.713799556E0,3.793498099E-2,2.966660290E0,5.569777249E0
9.479005958E0,-4.088511763E0,2.631636468E0,3.683320184E0,6.099859549E0
9.488971958E0,-4.450154742E0,4.388586777E0,3.061526979E0,6.959634946E0
9.498936958E0,-4.876699184E0,5.461228083E0,1.705109772E0,7.517619733E0
9.508902958E0,-5.004576328E0,5.944653654E0,-1.005250391E-1,7.771408918E0
9.518867958E0,-5.266580122E0,5.092020269E0,-2.981360483E0,7.909111639E0
9.528833958E0,-5.784016022E0,3.007494906E0,-4.380223797E0,7.854058025E0
9.538798958E0,-6.550471973E0,1.406058898E0,-4.113726419E0,7.861833740E0
9.548764958E0,-7.017341153E0,8.149013025E-1,-3.041369288E0,7.691363217E0
9.558730958E0,-6.501969904E0,1.634419566E0,-1.717079023E0,6.920643057E0
9.568695958E0,-5.234061416E0,2.423828178E0,-1.561456548E0,5.975657997E0
9.578661958E0,-3.992090592E0,2.082726760E0,-4.525554880E-1,4.525410978E0
9.588626958E0,-2.448853384E0,1.838081011E0,4.781180531E-2,3.062304797E0
9.598592958E0,-1.674241736E0,1.067778761E0,2.976130441E-1,2.007936851E0
9.608557958E0,-9.838606918E-1,3.671139264E-1,1.192981097E-1,1.056875837E0
9.618523958E0,-2.732684541E-1,1.052551442E-1,-7.356253374E-1,7.917694932E-1
9.628488958E0,2.131210703E-1,1.024321085E-1,-6.813438803E-1,7.212089924E-1
9.638454958E0,7.552550250E-1,3.277937400E-1,-2.227134275E-1,8.529127503E-1
9.648419958E0,1.274562035E0,8.257923263E-1,4.037347457E-1,1.571446178E0
9.658385958E0,1.607038517E0,1.301037642E0,7.768721813E-1,2.208801061E0
9.668351958E0,2.008345207E0,1.418531594E0,8.059185174E-1,2.587505944E0
9.678316958E0,2.191974091E0,1.701699969E0,5.425363894E-1,2.827521694E0
9.688282958E0,2.669339607E0,1.835081390E0,1.802899776E-1,3.244287614E0
9.698247958E0,2.726398492E0,1.600478818E0,-1.669776218E-1,3.165858921E0
9.708213958E0,2.234300623E0,1.330175487E0,-3.245517513E-1,2.620457964E0
9.718178958E0,2.076648287E0,8.689512098E-1,-4.664041798E-1,2.298929571E0
9.728144958E0,2.135035366E0,1.838440615E-1,-1.521711561E-1,2.148332078E0
9.738109958E0,1.865453874E0,-2.265907162E-1,1.738976553E-1,1.887194188E0
9.748075958E0,1.803279845E0,-5.267294651E-1,9.712356761E-2,1.881141972E0
9.758040958E0,1.743798167E0,-8.442326903E-1,-1.026747680E-1,1.940129633E0
9.768006958E0,1.643075200E0,-1.167580208E0,-3.010732801E-1,2.038034537E0
9.777972958E0,1.068693558E0,-1.294278846E0,-4.302730648E-1,1.732743075E0
9.787937958E0,4.046679613E-1,-1.349154965E0,-8.302531672E-1,1.635021590E0
9.797903958E0,-1.779594237E-1,-1.388477490E0,-1.453105595E0,2.017685597E0
9.807868958E0,-5.380423656E-1,-9.577160364E-1,-2.517432160E0,2.746666029E0
9.817834958E0,-2.969318435E-1,-4.062551880E-1,-3.929649346E0,3.961736460E0
9.827799958E0,6.197738689E-1,1.309723681E-1,-4.978474942E0,5.018613968E0
9.837765958E0,1.840126952E0,7.965504009E-1,-5.641498911E0,5.987242246E0
9.847730958E0,3.327944543E0,1.565631752E0,-5.562251598E0,6.668212691E0
9.857696958E0,4.750423007E0,2.346761291E0,-4.594883562E0,7.013327474E0
9.867661958E0,5.797944674E0,3.019507425E0,-3.121699798E0,7.244211287E0
9.877627958E0,5.949057777E0,3.320099918E0,-2.422373976E0,7.230646415E0
9.887593958E0,4.719311727E0,2.758124022E0,-3.247443001E0,6.358068680E0
9.897558958E0,2.635623685E0,1.706828561E0,-4.757251385E0,5.700106726E0
9.907524958E0,1.123340759E0,1.164067200E0,-6.459173548E0,6.658668773E0
9.917489958E0,4.115884334E-1,9.312568009E-1,-7.637406213E0,7.704973584E0
9.927456500E0,9.648437923E-1,6.639829123E-1,-7.597075628E0,7.686829968E0
9.937421500E0,2.023182809E0,3.140024972E-1,-6.910189172E0,7.207120135E0
9.947387500E0,2.971266727E0,-9.729006708E-2,-6.516452873E0,7.162544894E0
9.957352500E0,4.273830785E0,-4.562395263E-1,-6.021439290E0,7.398075101E0
9.967318500E0,5.797837086E0,-7.385466063E-1,-5.131143404E0,7.777467364E0
9.977283500E0,6.421349080E0,-2.263088804E-1,-3.580267686E0,7.355491582E0
9.987249500E0,5.875067695E0,8.041389173E-1,-1.459866146E0,6.106903387E0
9.997215500E0,4.732085554E0,1.317804533E0,6.190679638E-1,4.951008748E0
1.000718050E1,3.077374980E0,1.740318489E-1,2.149838762E0,3.757968940E0
1.001714650E1,6.279772201E-1,-2.456661463E0,2.492373333E0,3.555483900E0
1.002711150E1,-2.223920353E0,-6.026848549E0,3.229383291E0,7.190107205E0
1.003707750E1,-7.071016839E0,-1.085922321E1,2.057114932E0,1.312073663E1
1.004704250E1,-1.042043060E1,-1.347572591E1,-2.280916965E-1,1.703621403E1
1.005700850E1,-9.837919285E0,-1.270131132E1,-3.542181846E-1,1.606964329E1
1.006697350E1,-8.505701365E0,-1.099621294E1,3.691437873E-1,1.390683005E1
1.007693950E1,-6.631857614E0,-8.082600349E0,1.364332582E0,1.054378334E1
1.008690450E1,-3.555939760E0,-4.779025832E0,2.215988313E0,6.355658871E0
1.009687050E1,-2.119850440E0,-2.428516476E0,3.887492090E0,5.050153751E0
1.010683650E1,-1.503643665E0,-9.454836613E-1,4.764654838E0,5.084960112E0
1.011680150E1,3.218231481E-1,-4.901545465E-2,5.751824761E0,5.761029486E0
1.012676750E1,1.618700058E0,-4.749874538E-1,6.999858563E0,7.200265472E0
1.013673250E1,1.448167183E0,-9.300698161E-2,8.038371425E0,8.168307882E0
1.014669850E1,1.816551856E0,1.046018933E0,6.899084140E0,7.210504714E0
1.015666350E1,1.301271531E0,1.626345146E0,4.366933953E0,4.838224704E0
1.016662950E1,1.022603466E0,2.132517555E0,2.425208121E0,3.387474487E0
1.017659450E1,-4.076196358E-2,2.446273885E0,1.059422505E0,2.666138313E0
1.018656050E1,-1.163552207E0,2.661315765E0,3.421445614E-1,2.924639848E0
1.019652550E1,-1.703249481E0,2.769030249E0,9.394604445E-2,3.252293525E0
1.020649150E1,-2.273245418E0,3.119866696E0,-2.276107630E-1,3.866913445E0
1.021645750E1,-2.791886430E0,3.091987756E0,-4.238462439E-1,4.187441195E0
1.022642250E1,-3.581922740E0,2.497941052E0,-5.437814078E-1,4.400633844E0
1.023638850E1,-4.245363908E0,1.897004573E0,-3.279989773E-1,4.661472341E0
1.024635350E1,-4.303830802E0,1.512220945E0,2.338061804E-1,4.567760621E0
1.025631950E1,-3.945377187E0,1.512144932E0,1.133108532E0,4.374530647E0
1.026628450E1,-3.981810895E0,1.709895426E0,2.004503294E0,4.774577869E0
1.027625050E1,-3.912664939E0,2.291366524E0,2.465967307E0,5.161424438E0
1.028621550E1,-3.495644442E0,3.167425025E0,2.153867494E0,5.185678020E0
1.029618150E1,-2.765722479E0,3.623435340E0,1.216378146E0,4.717846997E0
1.030614650E1,-1.745725409E0,3.783226295E0,6.529544789E-1,4.217429070E0
1.031611250E1,-1.041444364E0,3.777031755E0,6.644354868E-1,3.973921207E0
1.032607850E1,-6.415239032E-1,3.724067675E0,9.905528301E-1,3.906587754E0
1.033604350E1,6.081542820E-3,3.487720880E0,1.331384692E0,3.733204939E0
1.034600950E1,1.563367710E0,3.356738572E0,1.364969929E0,3.946511794E0
1.035597450E1,3.999797223E0,3.951834852E0,2.127673137E-1,5.626779403E0
1.036594050E1,3.820668648E0,1.143143524E0,-8.238902271E-2,3.988868760E0
1.037590550E1,4.012077545E0,-2.721704639E0,9.491460648E-1,4.940174149E0
1.038587150E1,5.869623937E0,-4.696966592E0,1.629386868E0,7.692131167E0
1.039583650E1,7.424358818E0,-6.344585078E0,1.600778781E0,9.896330450E0
1.040580250E1,8.730128612E0,-7.890216429E0,1.207022308E0,1.182909818E1
1.041576750E1,9.537044372E0,-8.710143998E0,2.392212868E-2,1.291597445E1
1.042573350E1,9.316418400E0,-8.323321447E0,-1.248241670E0,1.255513596E1
1.043569950E1,7.558269412E0,-6.716401336E0,-1.543408824E0,1.022837202E1
1.044566450E1,5.589867997E0,-4.102260906E0,-8.883242047E-1,6.990299612E0
1.045563050E1,3.007686402E0,-2.503758447E0,-3.188738126E-1,3.926406036E0
1.046559550E1,1.041287805E0,-3.752885093E0,-2.562627044E-1,3.903088186E0
1.047556150E1,-1.302329731E0,-6.150377997E0,-8.139742264E-1,6.339224422E0
1.048552650E1,-4.357798556E0,-7.646267084E0,-1.448494188E0,8.919301766E0
1.049549250E1,-5.901865484E0,-6.510416207E0,-1.253957616E0,8.876370040E0
1.050545750E1,-5.781073703E0,-3.998935343E0,-4.318317863E-1,7.042639827E0
1.051542350E1,-5.602596801E0,-1.413588942E0,4.529107064E-1,5.795899647E0
1.052538850E1,-5.886742830E0,7.294904387E-1,6.590162873E-1,5.968266073E0
1.053535450E1,-5.957158509E0,1.970240949E0,4.181004775E-1,6.288433423E0
1.054532050E1,-5.768264208E0,2.210117124E0,5.446353936E-1,6.201138394E0
1.055528550E1,-6.872578127E0,2.173563255E0,2.872327745E-1,7.213820763E0
1.056525150E1,-7.469107559E0,3.190156660E0,3.354471606E-1,8.128787858E0
1.057521650E1,-8.047373798E0,4.215718524E0,-2.264889747E-2,9.084768610E0
1.058518250E1,-8.945068166E0,3.837545174E0,-6.180115181E-1,9.753098774E0
1.059514750E1,-8.933751465E0,2.897395343E0,-5.454075184E-1,9.407671570E0
1.060511350E1,-8.503098770E0,3.033196927E0,-9.268164253E-1,9.075349083E0
1.061507850E1,-8.306793122E0,3.057955207E0,-1.011241741E0,8.909349689E0
1.062504450E1,-6.994894862E0,2.841576653E0,-2.825047159E-1,7.555324011E0
1.063500950E1,-5.063855985E0,2.518844263E0,2.065704346E-2,5.655761715E0
1.064497550E1,-3.510813289E0,2.444945397E0,-3.792796433E-1,4.295046099E0
1.065494150E1,-2.216272195E0,2.463191049E0,-9.578560773E-1,3.449153643E0
1.066490650E1,-1.506182233E0,2.413061700E0,-2.153612848E0,3.567842483E0
1.067487250E1,-8.481216735E-1,2.023245374E0,-3.046588512E0,3.754268741E0
1.068483750E1,-2.174325147E-1,1.484511575E0,-2.351936077E0,2.789740996E0
1.069480350E1,-5.455159843E-3,5.033920580E-1,-1.330093626E0,1.422175228E0
1.070476850E1,5.157434240E-1,-5.930608642E-1,5.562988347E-1,9.629023115E-1
1.071473450E1,9.960872197E-1,-1.504717214E0,2.630630455E0,3.190075270E0
1.072469950E1,1.305094733E0,-1.763225541E0,3.001254465E0,3.717494443E0
1.073466550E1,1.720377730E0,-1.459872578E0,1.935878909E0,2.972970674E0
1.074463150E1,2.274656936E0,-4.990680420E-1,4.604603389E-1,2.373848523E0
1.075459650E1,2.563178437E0,4.638262886E-1,-7.133015451E-1,2.700706874E0
1.076456250E1,2.511891631E0,1.150219240E0,-6.257117164E-1,2.832687596E0
1.077452750E1,2.747543485E0,1.584598950E0,1.271092589E-1,3.174288235E0
1.078449350E1,2.774023771E0,1.759159387E0,2.731994569E-1,3.296132214E0
1.079445850E1,2.669175300E0,1.770146890E0,-2.001589626E-2,3.202860820E0
1.080442450E1,2.520703970E0,1.674146719E0,-4.728748548E-1,3.062731847E0
1.081438950E1,2.498639794E0,1.264894248E0,-7.441435611E-1,2.897741865E0
1.082435550E1,2.347649775E0,6.608821338E-1,-8.335871033E-1,2.577419664E0
1.083432050E1,1.799694040E0,-8.942263842E-2,-7.619752300E-1,1.956400087E0
1.084428650E1,1.129296440E0,-6.776133567E-1,-9.263708675E-1,1.610165611E0
1.085425250E1,5.291718471E-1,-1.044000474E0,-1.053261441E0,1.574585500E0
1.086421750E1,1.845047969E-1,-1.200732166E0,-1.234649087E0,1.732096453E0
1.087418350E1,1.200044534E-1,-1.247513984E0,-1.714528614E0,2.123746825E0
1.088414850E1,2.968678164E-1,-9.951791471E-1,-2.342684612E0,2.562554044E0
1.089411450E1,7.973251569E-1,-5.077289379E-1,-3.213789936E0,3.349919676E0
1.090407950E1,1.372215798E0,-2.102600276E-2,-4.167828659E0,4.387962400E0
1.091404550E1,1.980650162E0,6.979224908E-1,-4.915964699E0,5.345725375E0
1.092401050E1,2.716631010E0,1.452296340E0,-5.045213892E0,5.911296975E0
1.093397571E1,3.445358972E0,1.979926277E0,-4.424665267E0,5.947122770E0
1.094394071E1,3.812443078E0,2.203550701E0,-3.624561514E0,5.703315183E0
1.095390671E1,3.362498079E0,1.943123317E0,-3.111575929E0,4.976346684E0
1.096387271E1,2.511921160E0,1.170757000E0,-3.282837367E0,4.296212407E0
1.097383771E1,1.670942445E0,4.602477926E-1,-4.280907962E0,4.618446672E0
1.098380371E1,9.892518246E-1,1.730401611E-1,-5.767759008E0,5.854537219E0
1.099376871E1,1.081878152E0,1.583414304E-1,-6.717650886E0,6.806053612E0
1.100373471E1,1.663532853E0,4.140711612E-1,-6.922458969E0,7.131566074E0
1.101369971E1,2.441862161E0,8.231154710E-1,-6.577421790E0,7.064183413E0
1.102366571E1,3.419785005E0,1.182785892E0,-6.057502577E0,7.056008037E0
1.103363071E1,4.313092207E0,1.472053497E0,-5.621903722E0,7.237092465E0
1.104359671E1,5.103062736E0,1.599813990E0,-5.185010294E0,7.448824460E0
1.105356171E1,6.102093444E0,1.616232972E0,-3.994332415E0,7.470103403E0
1.106352771E1,6.680443883E0,1.913411275E0,-2.686933587E0,7.450441952E0
1.107349371E1,6.538754153E0,2.296663517E0,-1.549967354E0,7.101575035E0
1.108345871E1,5.454020805E0,2.100598190E0,-7.517108814E-1,5.892700989E0
1.109342471E1,3.428885027E0,5.629430258E-1,-2.116855788E-1,3.481230840E0
1.110338971E1,-7.380186027E-1,-3.213522719E0,1.031861801E0,3.454871705E0
1.111335571E1,-7.147566247E0,-9.129160150E0,2.137476871E0,1.178974451E1
1.112332071E1,-1.190895512E1,-1.401443925E1,6.170566678E-1,1.840131730E1
1.113328671E1,-1.260770558E1,-1.512818648E1,4.593911755E-1,1.969840873E1
1.114325171E1,-1.071244757E1,-1.327669488E1,4.536889708E-1,1.706554990E1
1.115321771E1,-8.617502468E0,-9.814188945E0,4.048957103E-1,1.306688922E1
1.116318371E1,-7.298598658E0,-7.034637217E0,1.826138073E0,1.030002152E1
1.117314871E1,-5.737544106E0,-4.556931040E0,3.351249790E0,8.057040898E0
1.118311471E1,-3.368249985E0,-2.117008985E0,4.481450210E0,5.992514580E0
1.119307971E1,6.898802304E-1,-7.665734804E-1,6.116693357E0,6.203024041E0
1.120304571E1,1.898545753E0,-6.440754819E-1,6.420731614E0,6.726448071E0
1.121301071E1,5.895715383E-1,-4.699857455E-1,7.282213005E0,7.321141131E0
1.122297671E1,1.643970116E0,1.769022471E-1,9.038275707E0,9.188272956E0
1.123294171E1,2.241261002E0,8.867086190E-1,9.189480611E0,9.500318782E0
1.124290771E1,1.554049880E0,1.400525093E0,7.614551786E0,7.896704406E0
1.125287271E1,1.758518386E0,2.405862608E0,4.497677695E0,5.395337473E0
1.126283871E1,2.494673628E0,2.947541065E0,1.685850506E0,4.213488669E0
1.127280471E1,1.444956477E0,3.062454640E0,1.598865572E-1,3.389998724E0
1.128276971E1,-2.522458135E-1,2.965438807E0,-1.239046924E0,3.223769928E0
1.129273571E1,-1.032630125E0,2.682726515E0,-1.567354926E0,3.274133167E0
1.130270071E1,-1.970076350E0,1.963635349E0,-1.854062913E0,3.342845180E0
1.131266671E1,-3.248820021E0,1.268891405E0,-2.061632637E0,4.051573281E0
1.132263171E1,-3.807154856E0,1.307081909E0,-1.911501575E0,4.456089034E0
1.133259771E1,-4.032921115E0,1.883409212E0,-1.592682433E0,4.727401010E0
1.134256271E1,-4.139073222E0,2.710695502E0,-7.252275261E-1,5.000575187E0
1.135252871E1,-4.365492615E0,3.561047303E0,9.347651303E-1,5.710724079E0
1.136249371E1,-4.774118848E0,4.081562347E0,2.651005370E0,6.817564921E0
1.137245971E1,-4.982625296E0,4.492478351E0,3.518778366E0,7.575666160E0
1.138242571E1,-4.688607997E0,4.750484403E0,3.252979145E0,7.425093961E0
1.139239071E1,-3.919476945E0,4.825389574E0,2.424268766E0,6.672612915E0
1.140235671E1,-3.158187301E0,4.625454560E0,1.605655358E0,5.826414510E0
1.141232171E1,-2.355287555E0,4.237377781E0,1.093686020E0,4.969798691E0
1.142228771E1,-1.693418849E0,3.616932651E0,8.838089848E-1,4.090352983E0
1.143225271E1,-5.156687258E-1,3.059633943E0,4.975120980E-1,3.142418239E0
1.144221871E1,9.300658692E-1,2.519841798E0,-1.337685066E-1,2.689334345E0
1.145218371E1,2.711204502E0,1.472592026E0,-9.987427327E-1,3.242937584E0
1.146214971E1,3.981699798E0,-1.044049006E0,-4.849186572E-1,4.144769923E0
1.147211471E1,3.918074782E0,-3.740055133E0,1.217788494E0,5.551786308E0
1.148208071E1,5.542255290E0,-6.740736278E0,1.778484435E0,8.906016289E0
1.149204671E1,6.897215370E0,-8.733709447E0,7.172451997E-1,1.115184744E1
1.150201171E1,7.325959534E0,-8.873983566E0,-1.051534027E-2,1.150727500E1
1.151197771E1,8.530062620E0,-8.142746564E0,-7.106027627E-1,1.181402752E1
1.152194271E1,8.518637161E0,-7.627117453E0,-1.726205357E0,1.156373143E1
1.153190871E1,7.181439167E0,-6.761471674E0,-1.851735137E0,1.003591006E1
1.154187371E1,5.465014156E0,-5.048345661E0,-7.612685940E-1,7.478750130E0
1.155183971E1,2.902327177E0,-3.085878586E0,2.887743929E-1,4.246120622E0
1.156180471E1,1.087745833E0,-2.535747979E0,-4.986651689E-2,2.759654957E0
1.157177071E1,-8.172542220E-1,-4.104360641E0,-5.095778275E-1,4.215845146E0
1.158173671E1,-2.404936994E0,-5.069622509E0,-1.786254215E-1,5.613973760E0
1.159170171E1,-3.703553012E0,-5.526713390E0,4.684528980E-1,6.669356335E0
1.160166771E1,-4.940096158E0,-5.178875980E0,5.842169505E-1,7.180989897E0
1.161163271E1,-5.604243962E0,-3.332787207E0,5.236909595E-1,6.541351020E0
1.162159871E1,-5.432852715E0,-5.119547206E-1,1.448741233E-1,5.458843721E0
1.163156371E1,-4.929087020E0,2.085512958E0,-3.084368250E-1,5.361007035E0
1.164152971E1,-4.313358255E0,3.875991202E0,-9.307454619E-1,5.873214993E0
1.165149471E1,-4.003336542E0,4.485460523E0,-9.480087814E-1,6.086442329E0
1.166146071E1,-3.387611285E0,4.527035980E0,2.426325524E-1,5.659402402E0
1.167142571E1,-4.292466154E0,3.690359647E0,1.438955626E0,5.840771635E0
1.168139171E1,-5.083979178E0,2.907094120E0,1.105075811E0,5.959801427E0
1.169135771E1,-4.663929239E0,1.945079210E0,8.838285729E-1,5.129982654E0
1.170132271E1,-4.920926646E0,8.533052301E-1,8.572012299E-1,5.067390139E0
1.171128871E1,-5.686863949E0,5.330994219E-1,5.200607157E-1,5.735423238E0
1.172125371E1,-5.755873958E0,1.222028895E0,5.143883318E-2,5.884393392E0
1.173121971E1,-4.813099896E0,2.178080229E0,-1.153771423E0,5.407508908E0
1.174118471E1,-3.670697799E0,2.968871707E0,-1.919846721E0,5.096472602E0
1.175115071E1,-2.895261109E0,3.227813898E0,-1.924976191E0,4.744138783E0
1.176111571E1,-1.865460014E0,3.357729090E0,-1.535224184E0,4.136568505E0
1.177108171E1,-1.371464724E0,3.062233030E0,-2.265991362E0,4.048815070E0
1.178104771E1,-1.230236047E0,2.612499701E0,-2.265693447E0,3.670422620E0
1.179101271E1,-9.373080844E-1,2.321387299E0,-1.668751201E0,3.008673463E0
1.180097871E1,-1.181937461E0,1.864907452E0,-8.415458947E-1,2.362849013E0
1.181094371E1,-1.156948508E0,7.426308864E-1,9.194451329E-1,1.653907445E0
1.182090971E1,-9.505914965E-1,-7.413216949E-1,3.129171663E0,3.353341221E0
1.183087471E1,-7.416158098E-1,-1.684585753E0,3.331083620E0,3.805777352E0
1.184084071E1,-1.062769452E-1,-1.804619150E0,2.179197340E0,2.831403559E0
1.185080571E1,6.304608250E-1,-1.252951310E0,5.125555220E-1,1.493345573E0
1.186077171E1,1.058189620E0,-4.902714908E-1,-1.429256849E0,1.844696871E0
1.187073671E1,1.429980442E0,-3.233159423E-2,-2.260307576E0,2.674860695E0
1.188070271E1,1.817621604E0,1.850918573E-1,-1.862023459E0,2.608666067E0
1.189066871E1,2.066241120E0,3.251858819E-1,-4.430625334E-1,2.138083869E0
1.190063371E1,2.065872161E0,4.304901427E-1,5.932289717E-1,2.192047025E0
1.191059971E1,1.960921072E0,5.354073179E-1,9.545088387E-1,2.245653484E0
1.192056471E1,1.851210642E0,5.621875656E-1,6.072124417E-1,2.027743240E0
1.193053171E1,1.875419284E0,4.256246746E-1,4.665040210E-2,1.923676198E0
1.194049671E1,1.897593680E0,1.822951341E-1,-1.317129180E-2,1.906375297E0
1.195046271E1,1.664720423E0,-7.869533658E-2,1.428919172E-1,1.672693977E0
1.196042771E1,1.260109472E0,-2.596859568E-1,3.806683570E-3,1.286595184E0
1.197039371E1,6.976488411E-1,-3.524210429E-1,-6.592934453E-1,1.022537209E0
1.198035871E1,3.883018970E-1,-2.639468229E-1,-1.680290827E0,1.744655712E0
1.199032471E1,3.686733788E-1,-9.451205492E-2,-2.754838471E0,2.781004781E0
1.200029071E1,5.979397810E-1,-1.491975546E-2,-3.329114571E0,3.382419017E0
1.201025571E1,1.113032702E0,1.762134451E-1,-3.817636575E0,3.980482633E0
1.202022171E1,1.953995045E0,3.917026377E-1,-4.321107570E0,4.758518490E0
1.203018671E1,2.646379053E0,7.593632787E-1,-4.794826763E0,5.529043169E0
1.204015271E1,3.084265924E0,1.175832383E0,-4.791099747E0,5.818067967E0
1.205011771E1,3.553246533E0,1.422886600E0,-3.943667461E0,5.495696520E0
1.206008371E1,4.014417601E0,1.356465738E0,-2.971602942E0,5.175516594E0
1.207004871E1,4.268862113E0,8.514925933E-1,-2.230875324E0,4.891321712E0
1.208001471E1,3.829709321E0,5.978427172E-2,-2.672526047E0,4.670400744E0
1.208998071E1,2.834765816E0,-4.713750440E-1,-3.616934406E0,4.619556922E0
1.209994571E1,1.984260233E0,-4.454970217E-1,-4.743552529E0,5.161109073E0
1.210991171E1,1.463068081E0,5.206594706E-2,-6.039059290E0,6.213977484E0
1.211987671E1,1.616713613E0,8.179874629E-1,-6.843879408E0,7.079657601E0
1.212984271E1,2.364654356E0,1.455487751E0,-6.789352952E0,7.335212902E0
1.213980771E1,3.273940244E0,1.869201062E0,-6.213402210E0,7.267665675E0
1.214977371E1,4.368067144E0,1.945713049E0,-5.708679911E0,7.446800398E0
1.215973871E1,5.597861726E0,1.768719000E0,-5.432478493E0,7.998515199E0
1.216970471E1,6.488827702E0,1.520594158E0,-4.860323764E0,8.248626470E0
1.217966971E1,7.119082705E0,1.429429634E0,-3.621204042E0,8.114045006E0
1.218963571E1,7.761993422E0,1.704256371E0,-1.153144602E0,8.030116695E0
1.219960171E1,7.617336230E0,1.913333507E0,7.176357937E-1,7.886675947E0
1.220956671E1,6.018659524E0,1.186954957E0,7.217839547E-1,6.176900243E0
1.221953271E1,3.417950441E0,-1.101841716E0,5.086903663E-1,3.627010652E0
1.222949771E1,-1.600170963E0,-6.146615313E0,1.048094402E0,6.437385245E0
1.223946371E1,-9.822911822E0,-1.348756886E1,1.284649359E0,1.673482699E1
1.224942871E1,-1.465128991E1,-1.708145471E1,-1.076349025E0,2.252986725E1
1.225939471E1,-1.385899803E1,-1.642228289E1,-1.373563289E0,2.153253069E1
1.226935971E1,-1.069462058E1,-1.258935935E1,-6.219487408E-1,1.653038713E1
1.227932571E1,-8.198348322E0,-8.064536546E0,1.079239012E0,1.155051608E1
1.228929171E1,-6.108325406E0,-4.746503618E0,2.673265135E0,8.184575881E0
1.229925671E1,-3.810041918E0,-2.330610112E0,3.865283196E0,5.906655323E0
1.230922271E1,-3.505829707E-1,-9.156768948E-1,4.743913009E0,4.844180347E0
1.231918771E1,1.445322074E0,-2.476482940E-1,4.729843732E0,4.951939751E0
1.232915371E1,1.877205608E0,2.003501666E-1,5.451443353E0,5.769079278E0
1.233911871E1,1.843066055E0,4.842383337E-1,7.633862216E0,7.868114868E0
1.234908471E1,2.350824667E0,6.592794120E-1,7.970763579E0,8.336312014E0
1.235904971E1,2.463189587E0,1.131944352E0,7.702774576E0,8.165864138E0
1.236901571E1,1.633112714E0,1.638921922E0,6.741799302E0,7.127761221E0
1.237898171E1,6.644960055E-1,2.018306816E0,4.154379186E0,4.666260147E0
1.238894671E1,-4.104678145E-1,2.372331165E0,1.469561414E0,2.820647042E0
1.239891271E1,-1.918619390E0,2.616935399E0,3.450705081E-2,3.245095065E0
1.240887771E1,-3.000505729E0,2.677371635E0,4.084747910E-2,4.021569596E0
1.241884371E1,-3.696149560E0,2.535936844E0,8.607949287E-2,4.483291974E0
1.242880871E1,-4.307871228E0,2.336460251E0,-3.908895823E-1,4.916258301E0
1.243877471E1,-4.441634472E0,2.262642077E0,-6.523375976E-1,5.027246791E0
1.244873971E1,-4.063616658E0,2.359150372E0,-6.478902054E-1,4.743240721E0
1.245870571E1,-3.371388186E0,2.501687363E0,-3.674518955E-1,4.214228145E0
1.246867071E1,-3.042542239E0,2.470163269E0,4.271931902E-1,3.942240971E0
1.247863671E1,-3.167768256E0,2.698603460E0,1.537347600E0,4.436288314E0
1.248860271E1,-3.547575318E0,3.374533403E0,2.439776751E0,5.470400070E0
1.249856771E1,-3.567802299E0,4.000449187E0,2.453520047E0,5.895130835E0
1.250853371E1,-2.966003648E0,4.337853996E0,2.023570772E0,5.631073929E0
1.251849871E1,-2.231846400E0,4.473152719E0,1.487977805E0,5.215775258E0
1.252846471E1,-1.168352186E0,4.574590216E0,1.156677782E0,4.861051940E0
1.253842971E1,1.748614226E-1,4.266698644E0,9.109581918E-1,4.366364467E0
1.254839571E1,1.809561509E0,3.907567921E0,7.779854912E-1,4.375941194E0
1.255836071E1,4.752244122E0,3.595461676E0,1.727361059E-1,5.961627850E0
1.256832671E1,5.340516409E0,8.410722703E-1,2.742730057E-1,5.413293246E0
1.257829271E1,4.600661781E0,-3.639433907E0,1.717453829E0,6.112382157E0
1.258825771E1,6.283346604E0,-7.733530930E0,1.457574037E0,1.007037573E1
1.259822371E1,8.466803348E0,-9.548927668E0,2.291047266E-1,1.276406156E1
1.260818871E1,1.020825620E1,-1.031620749E1,9.138116330E-2,1.451347588E1
1.261815471E1,1.078065651E1,-1.010587496E1,-6.442973837E-1,1.479075328E1
1.262811971E1,8.945210838E0,-8.839879680E0,-1.690294097E0,1.268926175E1
1.263808571E1,6.690874731E0,-6.450424944E0,-1.262640439E0,9.379234910E0
1.264805071E1,4.709432271E0,-3.124033422E0,-2.534425923E-1,5.657081428E0
1.265801671E1,2.553165080E0,-2.817428237E-1,3.253510657E-1,2.589186023E0
1.266798271E1,4.425811614E-1,1.162092596E0,-1.950935197E-1,1.258729028E0
1.267794771E1,-7.342099457E-1,2.906633359E-1,-7.069883063E-1,1.059897110E0
1.268791371E1,-1.662065933E0,-1.709909459E0,-6.344825399E-1,2.467553772E0
1.269787871E1,-2.780348704E0,-3.653611650E0,-2.581674349E-1,4.598463595E0
1.270784471E1,-4.204039296E0,-5.709790882E0,4.732736349E-2,7.090690953E0
1.271780971E1,-5.165360726E0,-6.216780147E0,7.739666998E-3,8.082658395E0
1.272777571E1,-5.827340382E0,-6.014106297E0,2.042283323E-1,8.376698615E0
1.273774071E1,-6.468517399E0,-5.667464057E0,5.270083773E-1,8.616240712E0
1.274770671E1,-5.575134768E0,-3.009685857E0,6.548907843E-1,6.369397034E0
1.275767171E1,-4.249084491E0,1.011333835E0,6.948527026E-1,4.422706797E0
1.276763771E1,-3.475907750E0,4.240452831E0,-1.047557920E-2,5.483017841E0
1.277760371E1,-3.093087033E0,6.381437155E0,-3.576648259E-1,7.100552914E0
1.278756871E1,-4.487902905E0,6.856718139E0,-9.453474212E-1,8.249214379E0
1.279753471E1,-6.947609598E0,6.068534519E0,-1.578643561E0,9.358873107E0
1.280749971E1,-9.226493486E0,3.987439132E0,-1.991921255E0,1.024673622E1
1.281746571E1,-1.038078648E1,2.703580610E0,-1.493379462E0,1.083052438E1
1.282743071E1,-1.116484314E1,2.445990880E0,-3.917716348E-1,1.143634901E1
1.283739671E1,-9.713970593E0,3.609645851E0,2.707041577E-1,1.036648680E1
1.284736171E1,-7.433690389E0,3.887597925E0,-2.379252514E-1,8.392245162E0
1.285732771E1,-6.031836224E0,3.148115764E0,-1.347962133E0,6.936186489E0
1.286729371E1,-4.946229302E0,2.145886629E0,-2.942424166E0,6.142301988E0
1.287725871E1,-4.043605147E0,1.389400181E0,-4.190685425E0,5.986904023E0
1.288722471E1,-3.035661528E0,8.908718365E-1,-4.382398084E0,5.405026042E0
1.289718971E1,-1.862944542E0,1.803363168E-1,-3.868949693E0,4.297889630E0
1.290715571E1,-3.897517142E-1,-3.216676122E-1,-1.738839436E0,1.810784094E0
1.291712071E1,3.009463663E0,-1.844211232E0,6.684266793E0,7.558929102E0
1.292708908E1,2.768630007E0,-3.636261792E0,8.419323957E0,9.579808340E0
1.293705408E1,1.405440847E0,-2.796536720E0,2.540004752E0,4.030819488E0
1.294702008E1,2.150293676E0,-8.704896122E-1,-1.227831087E0,2.624706505E0
1.295698608E1,3.582665336E0,5.241800791E-1,-1.593072443E0,3.955772425E0
1.296695108E1,4.956213423E0,9.056734782E-1,-1.881271470E-1,5.041794102E0
1.297691708E1,4.711628193E0,9.874953210E-1,2.556836839E-1,4.820784312E0
1.298688208E1,3.966482127E0,1.253940074E0,7.517882109E-2,4.160648751E0
1.299684808E1,3.436580255E0,1.322657138E0,-1.568237856E-1,3.685661331E0
1.300681308E1,2.717785543E0,1.170627192E0,-4.241748574E-1,2.989423120E0
1.301677908E1,2.286582040E0,8.086886358E-1,-5.205203068E-1,2.480599953E0
1.302674408E1,2.094521179E0,3.990549266E-1,-6.518161722E-1,2.229602683E0
1.303671008E1,1.918170324E0,6.661206543E-2,-6.715446778E-1,2.033417521E0
1.304667508E1,1.719127010E0,-2.366648841E-1,-5.135236748E-1,1.809727744E0
1.305664108E1,1.034250242E0,-6.533462423E-1,-4.358258732E-1,1.298645089E0
1.306660708E1,7.606525898E-2,-9.703407598E-1,-1.044439015E0,1.427655410E0
1.307657208E1,-3.033383453E-1,-8.204210740E-1,-2.276241385E0,2.438519988E0
1.308653808E1,3.160718268E-1,-2.565594506E-1,-3.579342656E0,3.602418355E0
1.309650308E1,1.415726100E0,2.939728600E-1,-4.367996392E0,4.601096925E0
1.310646908E1,2.369063156E0,6.492695636E-1,-4.627909806E0,5.239423668E0
1.311643408E1,2.908063003E0,1.180301410E0,-4.726250618E0,5.673392878E0
1.312640008E1,3.292138533E0,1.913935186E0,-4.483777109E0,5.882650864E0
1.313636508E1,3.594927240E0,2.433029357E0,-4.032313589E0,5.924752028E0
1.314633108E1,3.697605516E0,2.461349761E0,-3.356926267E0,5.567717949E0
1.315629708E1,3.274953566E0,1.922280917E0,-2.865686477E0,4.757377825E0
1.316626208E1,2.357241256E0,1.056194258E0,-3.353092833E0,4.232654509E0
1.317622808E1,1.231299071E0,2.598210275E-1,-4.269565533E0,4.451156503E0
1.318619308E1,2.168416536E-1,-3.125091183E-1,-5.206247381E0,5.220123949E0
1.319615908E1,-9.306311488E-2,-4.942920363E-1,-6.313756803E0,6.333759573E0
1.320612408E1,4.746728736E-1,2.938693643E-2,-7.242689921E0,7.258287347E0
1.321609008E1,1.730819687E0,7.083609402E-1,-7.266458852E0,7.503261708E0
1.322605508E1,2.955916032E0,1.385632235E0,-6.658420930E0,7.415658134E0
1.323602108E1,4.329756187E0,1.719635718E0,-6.050190049E0,7.636015667E0
1.324598708E1,5.538667438E0,1.529901171E0,-5.309603934E0,7.823639084E0
1.325595208E1,6.627395604E0,1.288633359E0,-4.113403945E0,7.905886442E0
1.326591808E1,7.463576093E0,1.312093558E0,-2.873674943E0,8.104601488E0
1.327588308E1,7.714435093E0,1.354164274E0,-1.814505622E0,8.039819671E0
1.328584908E1,7.565625794E0,1.186339830E0,-8.920089738E-1,7.709849276E0
1.329581408E1,6.734055834E0,2.848050106E-1,-2.383827960E-1,6.744290046E0
1.330578008E1,3.673349804E0,-2.522827386E0,1.191258946E0,4.612727466E0
1.331574508E1,-3.605519179E0,-8.588401460E0,3.110068517E0,9.820027208E0
1.332571108E1,-1.191053504E1,-1.681128762E1,2.810506888E0,2.079372947E1
1.333567708E1,-1.468417114E1,-1.974005503E1,-6.556139387E-1,2.461147059E1
1.334564208E1,-1.220468975E1,-1.653001316E1,-1.160985718E0,2.058017674E1
1.335560808E1,-8.678064419E0,-1.107394115E1,5.651509345E-1,1.408049609E1
1.336557308E1,-6.088378800E0,-6.868949345E0,2.145059541E0,9.426139291E0
1.337553908E1,-3.297724670E0,-3.539200936E0,3.457799508E0,5.946201199E0
1.338550408E1,-2.426353298E0,-1.967398033E0,5.311293780E0,6.161792512E0
1.339547008E1,-1.482288756E0,-1.174883380E0,6.529527832E0,6.797960328E0
1.340543508E1,8.117195401E-1,-3.312494445E-1,8.249903222E0,8.296355705E0
1.341540108E1,1.914765783E0,-5.424269003E-1,8.873024037E0,9.093465264E0
1.342536708E1,5.876768942E-1,-7.247834301E-1,9.756763440E0,9.801280936E0
1.343533208E1,7.425425935E-1,-3.826587492E-1,1.034848529E1,1.038214549E1
1.344529808E1,1.116448353E0,1.876254559E-1,8.454882045E0,8.530339420E0
1.345526308E1,1.128854683E0,7.932502323E-1,4.942727405E0,5.131677409E0
1.346522908E1,1.091608212E0,1.256121671E0,2.545335366E0,3.041082416E0
1.347519408E1,-2.248011759E-1,1.553453171E0,1.610897972E0,2.249165312E0
1.348516008E1,-1.428830441E0,2.143400978E0,3.963698852E-1,2.606306441E0
1.349512508E1,-1.606793665E0,2.672679829E0,-6.057288569E-1,3.176776794E0
1.350509108E1,-1.546089188E0,2.685730814E0,-7.868165410E-1,3.197283543E0
1.351505708E1,-2.034339881E0,2.240507442E0,-1.144745661E0,3.235560999E0
1.352502208E1,-2.690341929E0,1.807893591E0,-1.891770145E0,3.753027206E0
1.353498808E1,-3.291343312E0,1.557813440E0,-1.882444129E0,4.099185213E0
1.354495308E1,-3.533410438E0,1.651803923E0,-1.632910692E0,4.228456321E0
1.355491908E1,-3.961471648E0,1.802634020E0,-1.086981895E0,4.486008991E0
1.356488408E1,-3.649177999E0,1.809598639E0,8.467218500E-1,4.160298691E0
1.357485008E1,-2.994238683E0,2.052722358E0,3.003681352E0,4.711818760E0
1.358481508E1,-2.955413171E0,3.031426975E0,4.418214619E0,6.119202312E0
1.359478108E1,-2.674218524E0,3.893893037E0,4.629076033E0,6.613788069E0
1.360474608E1,-1.809060695E0,4.536515486E0,3.762839393E0,6.165357545E0
1.361471208E1,-1.056787896E0,4.741438760E0,2.792992723E0,5.603467723E0
1.362467808E1,-5.870750695E-3,4.676731718E0,1.680958140E0,4.969655350E0
1.363464308E1,1.542179301E0,4.372730298E0,8.119320863E-1,4.707262577E0
1.364460908E1,3.121216526E0,3.980836456E0,2.731392306E-1,5.065930964E0
1.365457408E1,4.737055103E0,3.570920911E0,-3.499564415E-1,5.942527805E0
1.366454008E1,4.046229377E0,5.416843039E-1,3.456581533E-1,4.096934661E0
1.367450508E1,3.799454365E0,-2.998541649E0,1.476244782E0,5.060277082E0
1.368447108E1,5.037103220E0,-5.483299568E0,1.458285059E0,7.587198318E0
1.369443708E1,5.826606556E0,-7.409710958E0,3.344309145E-1,9.432126191E0
1.370440208E1,7.945470278E0,-8.834387975E0,-7.841113266E-1,1.190763366E1
1.371436808E1,9.154093262E0,-9.454139040E0,-1.422606518E0,1.323638840E1
1.372433308E1,7.379401916E0,-8.463524230E0,-1.582176156E0,1.133975733E1
1.373429908E1,5.531753690E0,-5.979377344E0,-2.138157487E0,8.421696370E0
1.374426408E1,5.679538558E0,-3.274934270E0,-3.786739010E0,7.571112536E0
1.375423008E1,4.268458071E0,-9.282028002E-1,-5.279052233E0,6.851984181E0
1.376419508E1,3.524213938E0,-3.123086173E0,-4.570557683E0,6.562297514E0
1.377416108E1,5.555059522E-1,-6.183007799E0,-2.354847406E0,6.639539036E0
1.378412708E1,-2.558987153E0,-7.466309082E0,-1.588946355E0,8.051020871E0
1.379409208E1,-5.196143392E0,-7.293064268E0,-1.145595261E0,9.027794918E0
1.380405808E1,-6.974689808E0,-5.137385307E0,-1.506809932E-1,8.663817315E0
1.381402308E1,-8.696545129E0,-2.380826585E0,3.550308892E0,9.690352193E0
1.382398908E1,-1.012705942E1,1.414131564E0,7.932705806E0,1.294159658E1
1.383395408E1,-9.827893649E0,4.852166314E0,9.795770216E0,1.469993625E1
1.384392008E1,-7.242316284E0,6.031865460E0,8.233475470E0,1.251497760E1
1.385388508E1,-4.633489511E0,4.948333130E0,4.940749876E0,8.388458450E0
1.386385108E1,-4.121960176E0,2.897180750E0,9.381103224E-1,5.124867117E0
1.387381608E1,-3.151524691E0,2.124915006E0,-1.749006867E0,4.184064612E0
1.388378208E1,-3.180892624E0,9.952498984E-1,-2.524119036E0,4.180882342E0
1.389374808E1,-3.445965621E0,-9.828584790E-3,-2.105929389E0,4.038528723E0
1.390371308E1,-3.979564687E0,-8.670789313E-1,-1.862220072E0,4.478462299E0
1.391367908E1,-4.609763849E0,-7.746625185E-1,-2.264914305E0,5.194214240E0
1.392364408E1,-4.492373686E0,1.928809333E-1,-2.393361553E0,5.093800537E0
1.393360763E1,-2.759773521E0,1.406419086E0,-2.168111311E0,3.780882330E0
1.394357263E1,-1.429676094E0,1.978150477E0,-2.311784416E0,3.361755529E0
1.395353863E1,-1.465899011E0,2.278581002E0,-1.520209411E0,3.106739118E0
1.396350363E1,-1.425349447E0,2.474910623E0,-2.972638191E0,4.122302931E0
1.397346963E1,-9.137353268E-1,3.020887953E0,-5.361802028E0,6.221703727E0
1.398343563E1,-2.933960322E-1,2.876126096E0,-5.076565493E0,5.842062971E0
1.399340063E1,1.426442876E-1,2.646526403E0,-3.079541373E0,4.063006825E0
1.400336663E1,9.832707077E-2,1.784435731E0,-7.744523111E-1,1.947730852E0
1.401333162E1,-1.613463730E0,-5.633102310E-1,4.426545440E0,4.744985580E0
1.402329763E1,-1.347358408E0,-2.447310596E0,8.045623727E0,8.516851824E0
1.403326263E1,-9.078708619E-2,-2.259921368E0,6.837183176E0,7.201566543E0
1.404322862E1,8.355902132E-1,-1.202487500E0,2.689161668E0,3.061989169E0
1.405319363E1,1.585086316E0,-1.013948125E-1,-2.172782944E0,2.691424392E0
1.406315963E1,1.968218105E0,3.379725730E-1,-4.199809128E0,4.650430590E0
1.407312563E1,2.065570152E0,2.755126154E-1,-3.051729969E0,3.695340723E0
1.408309063E1,1.618855740E0,2.844266957E-1,-5.762001255E-1,1.741723008E0
1.409305663E1,1.058074722E0,6.889850217E-1,1.346653526E0,1.845995178E0
1.410302163E1,1.089876851E0,1.102646293E0,1.470673847E0,2.136946879E0
1.411298763E1,1.468734325E0,1.265227540E0,6.471557951E-1,2.043720105E0
1.412295263E1,1.899897775E0,1.297104805E0,9.017239764E-2,2.302221426E0
1.413291863E1,2.177011358E0,1.070571976E0,-2.113837163E-1,2.435197299E0
1.414288362E1,2.235774121E0,5.684686446E-1,-6.657392697E-1,2.401052123E0
1.415284963E1,1.569778013E0,6.865859091E-2,-1.109810740E0,1.923693554E0
1.416281563E1,9.101191163E-1,-3.492448354E-1,-1.759131028E0,2.011176456E0
1.417278062E1,6.484983158E-1,-6.768105340E-1,-2.553258051E0,2.719880372E0
1.418274663E1,8.739353764E-1,-8.324406105E-1,-3.389757214E0,3.598218223E0
1.419271163E1,1.764001467E0,-7.087117732E-1,-3.891502111E0,4.331023231E0
1.420267762E1,3.104997811E0,-2.151301736E-1,-4.169067099E0,5.202731290E0
1.421264263E1,3.808815465E0,5.138305074E-1,-4.204542156E0,5.696426229E0
1.422260863E1,3.994381531E0,1.201795190E0,-3.730453420E0,5.596041298E0
1.423257363E1,3.766975129E0,1.593720022E0,-3.257769184E0,5.229063509E0
1.424253963E1,3.541143381E0,1.644765630E0,-3.119118837E0,4.997384590E0
1.425250563E1,3.457349272E0,1.357338143E0,-3.345450522E0,4.998766850E0
1.426247063E1,2.747664523E0,9.183543348E-1,-4.036348168E0,4.968414389E0
1.427243663E1,1.546463994E0,4.045934093E-1,-4.958852856E0,5.210131319E0
1.428240163E1,8.259613109E-1,9.704272985E-2,-5.806204451E0,5.865461577E0
1.429236763E1,8.197457206E-1,2.152471179E-1,-6.467717500E0,6.523011883E0
1.430233262E1,1.224220431E0,8.374797410E-1,-7.009424608E0,7.164643837E0
1.431229863E1,2.157430787E0,1.454201363E0,-6.363550522E0,6.874880687E0
1.432226363E1,3.163585158E0,1.792070441E0,-5.514861084E0,6.605564343E0
1.433222962E1,4.042432196E0,1.849591255E0,-5.409588983E0,7.001849672E0
1.434219563E1,4.898552860E0,1.539525104E0,-5.416644233E0,7.463644714E0
1.435216063E1,6.046796910E0,8.448255980E-1,-4.591710863E0,7.639456251E0
1.436212662E1,7.300217752E0,3.476005983E-1,-3.267638115E0,8.005714475E0
1.437209163E1,7.691742049E0,2.927238947E-1,-1.734534423E0,7.890322725E0
1.438205763E1,6.744488436E0,7.621845603E-3,-4.953457046E-1,6.762658480E0
1.439202263E1,5.460191957E0,-1.111908283E0,6.959414542E-1,5.615547234E0
1.440198863E1,3.321945592E0,-4.277532365E0,2.480677732E0,5.957043533E0
1.441195363E1,-2.571613338E0,-1.038701026E1,4.515723664E0,1.161442799E1
1.442191963E1,-1.017340796E1,-1.790078996E1,5.114674137E0,2.121547554E1
1.443188563E1,-1.221371785E1,-2.022334846E1,1.846314476E0,2.369741766E1
1.444185063E1,-1.057285348E1,-1.653309114E1,2.499018109E-1,1.962627790E1
1.445181663E1,-8.282050629E0,-1.122064195E1,1.659682169E0,1.404456169E1
1.446178162E1,-5.443175390E0,-7.160830071E0,2.894274977E0,9.448940325E0
1.447174763E1,-2.869038686E0,-3.861401230E0,3.822060578E0,6.144098754E0
1.448171263E1,-1.969958821E0,-1.792466882E0,4.760961151E0,5.455311757E0
1.449167862E1,-1.409233936E0,-6.250767088E-1,6.234790156E0,6.422559417E0
1.450164363E1,2.128205234E0,4.252779347E-1,8.128855918E0,8.413585287E0
1.451160963E1,3.104119560E0,1.523304927E-1,8.779083256E0,9.312951499E0
1.452157562E1,2.533308813E0,4.812287718E-1,1.038969764E1,1.070490783E1
1.453154063E1,1.250153710E0,1.255332296E0,1.126217004E1,1.140066741E1
1.454150663E1,4.429733634E-1,1.580421115E0,9.227093995E0,9.371937894E0
1.455147163E1,1.033133132E0,1.639307254E0,7.023215851E0,7.285619618E0
1.456143763E1,8.512215748E-1,1.483300617E0,4.024948728E0,4.373210623E0
1.457140263E1,4.564788236E-1,1.955591335E0,1.143818877E0,2.311067288E0
1.458136863E1,-9.475515291E-2,2.715155173E0,-9.978273511E-2,2.718639871E0
1.459133463E1,-6.789234254E-1,2.944238557E0,-2.097016186E-2,3.021575325E0
1.460129963E1,-7.344715355E-1,2.770103213E0,-3.282235104E-1,2.884553851E0
1.461126563E1,-8.530377200E-1,2.070434158E0,-1.206778187E0,2.543754027E0
1.462123063E1,-1.180002763E0,1.096306157E0,-1.990175861E0,2.560291716E0
1.463119663E1,-1.705567171E0,5.730347353E-1,-2.723570486E0,3.264224927E0
1.464116163E1,-2.206073774E0,2.926116282E-1,-2.744110877E0,3.533062067E0
1.465112763E1,-2.752567998E0,6.116240197E-1,-1.317552811E0,3.112339945E0
1.466109262E1,-3.240950838E0,1.485181666E0,1.207091013E0,3.763853827E0
1.467105863E1,-3.181144931E0,2.353119553E0,3.438810090E0,5.242353436E0
1.468102463E1,-2.903566495E0,3.152117014E0,4.521168884E0,6.229567251E0
1.469098962E1,-2.048993296E0,3.681172501E0,4.468401271E0,6.141336535E0
1.470095563E1,-6.366043483E-1,3.886344867E0,3.927446700E0,5.561814371E0
1.471092063E1,4.417480794E-1,3.725751674E0,3.239740464E0,4.957043996E0
1.472088663E1,1.387294891E0,3.628757476E0,2.447373454E0,4.591525319E0
1.473085163E1,3.614391451E0,3.696915545E0,9.685532659E-1,5.260143110E0
1.474081763E1,6.687901422E0,3.281282592E0,-1.617909953E0,7.623153776E0
1.475078263E1,5.337852418E0,6.546069020E-1,-1.058537529E0,5.481029131E0
1.476074863E1,4.778783465E0,-2.098341165E0,1.330043925E0,5.385984022E0
1.477071363E1,5.184451300E0,-5.527965279E0,7.605879781E-1,7.616786034E0
1.478067963E1,5.857691524E0,-8.032157589E0,-2.951499045E-1,9.945613053E0
1.479064563E1,8.238032205E0,-1.058680494E1,-7.782223034E-1,1.343693579E1
1.480061063E1,1.056840258E1,-1.214318055E1,-9.748170957E-1,1.612756136E1
1.481057663E1,1.009782100E1,-1.158955331E1,-5.919729897E-1,1.538291802E1
1.482054162E1,7.057091694E0,-8.529641621E0,2.782236770E-1,1.107405697E1
1.483050763E1,3.773769886E0,-5.493877181E0,1.033098048E0,6.744725140E0
1.484047263E1,1.576667202E0,-4.648092055E0,1.162300172E0,5.043964801E0
1.485043862E1,-2.054813907E-1,-5.304363075E0,6.713594672E-1,5.350627418E0
1.486040463E1,-3.276186744E0,-5.690892681E0,-2.424767241E-1,6.571031430E0
1.487036963E1,-5.219917002E0,-5.339636403E0,-5.576410630E-1,7.488004673E0
1.488033562E1,-6.283421448E0,-4.442668260E0,2.150138140E-1,7.698371081E0
1.489030063E1,-6.307023150E0,-1.955602444E0,7.657311890E-1,6.647500747E0
1.490026663E1,-5.406120999E0,1.459464442E0,7.402934620E-1,5.648381638E0
1.491023163E1,-4.942639697E0,4.683785214E0,-3.997849515E-1,6.821096621E0
1.492019763E1,-3.955635542E0,6.540431135E0,-1.660131235E0,7.821785454E0
1.493016258E1,-6.548130748E0,4.847948132E0,-7.365772641E-1,8.180657886E0
1.494012858E1,-9.622065226E0,3.131126094E0,3.792694107E-1,1.012580541E1
1.495009458E1,-1.011374882E1,2.137483596E0,1.566471412E0,1.045517020E1
1.496005958E1,-9.464436572E0,2.454097459E0,1.434836262E0,9.882151034E0
1.497002558E1,-8.922647018E0,2.518981088E0,5.567154488E-1,9.288101400E0
1.497999058E1,-8.102513627E0,2.073523242E0,7.680519488E-1,8.398817149E0
1.498995658E1,-6.846309510E0,2.107785003E0,1.425764307E0,7.303938348E0
1.499992158E1,-5.353030035E0,2.616158888E0,8.255660391E-1,6.015045900E0
1.500988758E1,-4.032731957E0,2.768161352E0,-8.342690349E-1,4.962020670E0
1.501985258E1,-2.499749888E0,2.911866617E0,-2.137482719E0,4.392783750E0
1.502981858E1,-1.693634027E0,2.825369925E0,-2.733435323E0,4.280511663E0
1.503978458E1,-1.363289439E0,2.347412086E0,-3.587949758E0,4.499142703E0
1.504974958E1,-1.218448353E0,1.737338748E0,-5.014172194E0,5.444711664E0
1.505971558E1,-1.269758839E0,1.079160951E0,-5.757422301E0,5.993729008E0
1.506968058E1,-8.104012853E-1,6.925629330E-1,-4.717685908E0,4.836626302E0
1.507964658E1,-3.240731567E-2,4.960842079E-1,-3.566276468E0,3.600760700E0
1.508961158E1,6.443719357E-1,4.084730369E-1,-2.516378784E0,2.629491890E0
1.509957758E1,1.466660610E0,4.952375311E-1,-1.020513963E0,1.854131146E0
1.510954258E1,1.769977906E0,-1.326300538E-1,1.669855155E0,2.436971226E0
1.511950858E1,3.451763135E0,-2.912913269E0,1.208492240E1,1.290135969E1
1.512947458E1,3.091954427E0,-4.879191560E0,1.112181114E1,1.253241299E1
1.513943958E1,2.101166539E0,-2.076907026E0,2.222235624E0,3.696860126E0
1.514940558E1,2.354902954E0,8.300894451E-1,-2.289774327E0,3.387872914E0
1.515937058E1,2.486294568E0,1.433682899E0,-3.356874812E0,4.416527576E0
1.516933658E1,2.560274125E0,1.472127757E0,-1.808824760E0,3.463237032E0
1.517930158E1,2.408365216E0,1.414965377E0,-7.953207314E-1,2.904287365E0
1.518926758E1,2.056164613E0,1.166480346E0,-3.427203660E-1,2.388712324E0
1.519923258E1,1.701092443E0,6.485503560E-1,2.258618608E-1,1.834488115E0
1.520919858E1,1.753878475E0,1.742031723E-1,4.249551684E-2,1.763020793E0
1.521916458E1,2.131770574E0,-3.032962453E-1,-3.367829570E-1,2.179416700E0
1.522912958E1,1.952534995E0,-6.938089746E-1,-5.753695285E-1,2.150538048E0
1.523909558E1,1.620074008E0,-9.695572329E-1,-7.791825624E-1,2.042500057E0
1.524906058E1,1.199636398E0,-1.015209954E0,-1.125455550E0,1.932984463E0
1.525902658E1,7.109898484E-1,-5.868517059E-1,-1.910008049E0,2.120856487E0
1.526899158E1,9.710038340E-1,-5.031938374E-2,-2.811831282E0,2.975193380E0
1.527895758E1,1.720468361E0,1.814747697E-1,-3.735982547E0,4.117099715E0
1.528892258E1,2.210441059E0,2.756932944E-1,-4.293718042E0,4.837155269E0
1.529888858E1,2.524923028E0,4.155048984E-1,-4.379199657E0,5.072008503E0
1.530885458E1,2.815086427E0,8.081056684E-1,-4.222905922E0,5.139132299E0
1.531881958E1,3.284195675E0,1.245981429E0,-3.802810374E0,5.176850172E0
1.532878558E1,3.775619652E0,1.295521379E0,-3.065458939E0,5.032963134E0
1.533875058E1,3.813317236E0,9.684369063E-1,-2.372603645E0,4.594399465E0
1.534871658E1,3.271425356E0,3.342414647E-1,-2.335231605E0,4.033267641E0
1.535868158E1,2.308403556E0,-2.009448284E-1,-2.988585595E0,3.781633200E0
1.536864758E1,1.223210617E0,-4.638438302E-1,-4.462946988E0,4.650730172E0
1.537861358E1,4.489182276E-1,-4.116194236E-1,-6.042060081E0,6.072680474E0
1.538857858E1,6.173332411E-1,-3.309641004E-2,-6.613504958E0,6.642337204E0
1.539854458E1,1.504544136E0,5.428864914E-1,-6.476172574E0,6.670771320E0
1.540850958E1,2.542848253E0,1.098643874E0,-6.092222174E0,6.692403650E0
1.541847558E1,3.691419162E0,1.492395376E0,-5.653785081E0,6.915135944E0
1.542844058E1,4.794415703E0,1.562043900E0,-5.110832516E0,7.179624788E0
1.543840658E1,5.891001942E0,1.232309470E0,-4.376913396E0,7.441764669E0
1.544837158E1,6.683644649E0,1.044383467E0,-3.392590774E0,7.567794578E0
1.545833758E1,7.152716475E0,1.168213461E0,-2.120206243E0,7.551248252E0
1.546830358E1,7.314220079E0,1.336198120E0,-7.460813284E-1,7.472608522E0
1.547826858E1,6.693631693E0,1.242529818E0,4.975501049E-1,6.826136660E0
1.548823458E1,4.825510904E0,-3.776792604E-1,1.847943364E0,5.181031923E0
1.549819958E1,5.285935575E-1,-4.474001150E0,2.990729769E0,5.407454298E0
1.550816558E1,-6.638325804E0,-1.088492757E1,3.582302224E0,1.324318341E1
1.551813058E1,-1.191939006E1,-1.541944448E1,1.292425278E0,1.953206314E1
1.552809658E1,-1.380487971E1,-1.588205747E1,-1.180238260E0,2.107622869E1
1.553806158E1,-1.307990566E1,-1.370224705E1,-2.066018926E0,1.905528642E1
1.554802758E1,-1.044970878E1,-9.225687740E0,-6.515584561E-1,1.395472165E1
1.555799358E1,-7.654490608E0,-4.994592208E0,1.125329104E0,9.208883938E0
1.556795858E1,-5.028548158E0,-1.819288645E0,2.580173077E0,5.937457441E0
1.557792458E1,-2.996338710E0,-4.014464378E-1,4.656178462E0,5.551504551E0
1.558788958E1,6.739752191E-1,3.251449513E-1,6.326982036E0,6.371080247E0
1.559785558E1,1.356515147E0,3.147158575E-1,7.503743541E0,7.631863897E0
1.560782058E1,2.630783067E0,4.577083468E-1,8.592881012E0,8.998228746E0
1.561778658E1,3.477992575E0,5.761419457E-1,8.222036562E0,8.945963174E0
1.562775158E1,3.306355161E0,1.377309308E0,6.996719778E0,7.860219655E0
1.563771758E1,3.708559105E0,2.065066999E0,6.114423468E0,7.443392149E0
1.564768358E1,2.706101344E0,2.425654263E0,4.373113291E0,5.686026991E0
1.565764858E1,1.825582880E0,2.799153349E0,2.858807228E0,4.397816628E0
1.566761458E1,1.082101516E0,2.939826248E0,1.884286294E0,3.655688293E0
1.567757958E1,-1.491646640E-1,3.050295355E0,7.085556525E-1,3.135060280E0
1.568754558E1,-1.706137274E0,3.084896838E0,-3.617950067E-1,3.543781670E0
1.569751058E1,-2.992723669E0,2.981656060E0,-1.002104005E0,4.341760041E0
1.570747658E1,-4.123537170E0,2.599372117E0,-1.407144141E0,5.073494735E0
1.571744158E1,-4.766977644E0,2.283506697E0,-1.408876086E0,5.470229476E0
1.572740758E1,-4.884435927E0,2.108397791E0,-9.560276529E-1,5.405279312E0
1.573737358E1,-4.699099949E0,1.964791929E0,-3.825037980E-1,5.107666474E0
1.574733858E1,-4.337899019E0,1.774534641E0,1.209476092E-1,4.688386654E0
1.575730458E1,-3.944049284E0,1.787565746E0,9.842162025E-1,4.440675352E0
1.576726958E1,-3.852342723E0,2.218254109E0,2.111849695E0,4.921494172E0
1.577723558E1,-3.473565063E0,2.923270442E0,2.821052341E0,5.345044494E0
1.578720058E1,-2.860821594E0,3.488038384E0,2.600785389E0,5.207187014E0
1.579716658E1,-2.112815362E0,3.841507832E0,2.033849300E0,4.832981911E0
1.580713258E1,-9.515000077E-1,3.840095145E0,1.569500562E0,4.256173751E0
1.581709758E1,2.875286436E-1,3.230672017E0,8.708305049E-1,3.358312102E0
1.582706358E1,1.664996411E0,2.601099384E0,2.340330523E-1,3.097208828E0
1.583702858E1,4.322690411E0,1.970644407E0,-6.332394218E-1,4.792711543E0
1.584699458E1,4.616512413E0,-4.552203566E-1,2.230508119E-2,4.638955696E0
1.585695958E1,5.103008941E0,-3.412113458E0,1.732132680E0,6.378362025E0
1.586692558E1,6.865218236E0,-6.941326180E0,1.706827392E0,9.910927823E0
1.587689058E1,8.105103943E0,-9.783281733E0,-5.646963134E-1,1.271708274E1
1.588685658E1,9.037524340E0,-1.044286637E1,-4.475678131E-1,1.381776469E1
1.589682258E1,9.022655455E0,-9.775951079E0,-3.620686564E-1,1.330821643E1
1.590678758E1,8.052156236E0,-8.240649419E0,-5.763647246E-1,1.153593166E1
1.591675358E1,6.455633644E0,-6.241246651E0,-1.706080118E-1,8.980950540E0
1.592671858E1,4.881033725E0,-3.659255968E0,8.181058690E-1,6.154993231E0
1.593668463E1,2.960664555E0,-1.139601281E0,1.474564877E0,3.498366371E0
1.594664963E1,9.200748780E-1,2.845038790E-1,8.201664278E-1,1.264971623E0
1.595661563E1,2.514862601E-1,-3.401547539E-1,-8.485479355E-2,4.314521198E-1
1.596658063E1,-8.739695826E-1,-2.012606365E0,-7.788842082E-2,2.195557747E0
1.597654662E1,-1.858358570E0,-3.294387372E0,3.940204740E-2,3.782596629E0
1.598651263E1,-2.496190395E0,-4.322126740E0,4.447070628E-2,4.991364912E0
1.599647763E1,-3.305421653E0,-4.489201571E0,3.600291476E-1,5.586444669E0
1.600644362E1,-4.234982761E0,-4.119151758E0,6.929652214E-2,5.908239349E0
1.601640863E1,-4.821539767E0,-3.765896902E0,-4.238956529E-1,6.132610597E0
1.602637463E1,-5.251615927E0,-3.197765057E0,-1.786821395E-2,6.148616957E0
1.603633963E1,-5.436165748E0,-1.212450571E0,1.387079421E-1,5.571460699E0
1.604630563E1,-4.791095362E0,1.945437060E0,-3.247029018E-1,5.181192150E0
1.605627163E1,-4.275522092E0,4.765880122E0,-7.777685595E-1,6.449699716E0
1.606623663E1,-4.961336169E0,5.912529051E0,-1.334174398E0,7.832807778E0
1.607620263E1,-6.562124889E0,5.751409024E0,-1.236634363E0,8.813027481E0
1.608616763E1,-8.379221413E0,4.669253129E0,-4.114776286E-1,9.601176496E0
1.609613363E1,-1.031280675E1,3.485812349E0,4.577966398E-1,1.089561603E1
1.610609863E1,-1.099865708E1,3.650576946E0,5.401432702E-1,1.160124667E1
1.611606463E1,-9.497948719E0,4.390404092E0,1.179175821E-1,1.046425260E1
1.612602963E1,-7.149408120E0,4.693619646E0,-6.913747787E-1,8.580332216E0
1.613599563E1,-5.316297827E0,4.246058557E0,-1.478722832E0,6.962661637E0
1.614596163E1,-3.828303942E0,3.553979774E0,-2.420498481E0,5.757212538E0
1.615592663E1,-2.685377643E0,2.798151721E0,-4.135863685E0,5.669768475E0
1.616589263E1,-1.497102092E0,2.057940997E0,-5.037269865E0,5.643626805E0
1.617585762E1,-9.597119835E-1,1.208337055E0,-4.570486640E0,4.823947932E0
1.618582363E1,-5.408443514E-1,8.172770262E-2,-4.158013230E0,4.193836675E0
1.619578863E1,5.140994793E-1,-8.177991825E-1,-2.746109163E0,2.911049521E0
1.620575462E1,1.410876711E0,-1.574420117E0,-7.842387959E-1,2.254861922E0
1.621571963E1,2.330147890E0,-2.409827020E0,2.798883500E0,4.366990303E0
1.622568563E1,5.032166415E0,-4.154935548E0,1.144183276E1,1.317200536E1
1.623565163E1,4.128863106E0,-4.479676457E0,8.418503008E0,1.039164109E1
1.624561663E1,3.162199953E0,-1.238259012E0,1.265274317E0,3.624046498E0
1.625558263E1,3.067830277E0,9.269930112E-1,-1.189751972E0,3.418538929E0
1.626554763E1,2.825133113E0,1.174226738E0,-3.844477049E-1,3.083502161E0
1.627551363E1,2.807748756E0,1.085461326E0,7.491126712E-1,3.102071754E0
1.628547863E1,2.797683652E0,9.842811066E-1,1.657710488E-1,2.970407910E0
1.629544463E1,2.582959860E0,8.757351494E-1,-7.774327831E-1,2.836017528E0
1.630541063E1,2.373355890E0,6.136997813E-1,-6.270507288E-1,2.530343498E0
1.631537563E1,2.175655681E0,3.351302415E-1,-1.920273860E-1,2.209675189E0
1.632534163E1,1.756778401E0,1.818051374E-1,-2.192657630E-1,1.779719341E0
1.633530662E1,1.455119961E0,1.282282698E-1,-6.717749119E-1,1.607824033E0
1.634527263E1,9.180330303E-1,7.921924710E-2,-8.681535034E-1,1.265997962E0
1.635523763E1,4.147456375E-1,3.842907071E-2,-1.501456221E0,1.558159659E0
1.636520362E1,3.951408005E-1,7.752998650E-2,-2.413228930E0,2.446593759E0
1.637516863E1,6.376774585E-1,2.655618238E-1,-2.980318801E0,3.059322765E0
1.638513463E1,1.164520944E0,5.682049352E-1,-3.322755139E0,3.566464298E0
1.639510062E1,1.655821545E0,6.803030759E-1,-3.575400463E0,3.998505438E0
1.640506563E1,1.620866890E0,4.758639514E-1,-3.602720994E0,3.979102227E0
1.641503163E1,1.350971695E0,1.147282183E-1,-3.517357492E0,3.769627410E0
1.642499663E1,1.158372012E0,-1.435567456E-1,-3.591839325E0,3.776737216E0
1.643496263E1,1.126977727E0,-1.858642745E-1,-3.803911990E0,3.971696206E0
1.644492763E1,1.174940683E0,7.041392505E-2,-4.343643909E0,4.500298449E0
