"Time (s)","Linear Acceleration x (m/s^2)","Linear Acceleration y (m/s^2)","Linear Acceleration z (m/s^2)","Absolute acceleration (m/s^2)"
-1.380416797E-4,6.004114721E-2,9.056704085E-1,-3.871383011E-1,9.867724623E-1
9.865958244E-3,9.749529704E-1,1.304241478E0,-1.941350441E0,2.533854902E0
1.987095829E-2,1.085597566E0,1.253064162E0,-2.265328288E0,2.807205750E0
2.987495833E-2,5.830279923E-1,1.158599908E0,-1.852485042E0,2.261410228E0
3.987995826E-2,-9.337729309E-3,1.050680918E0,-1.029587672E0,1.471077279E0
4.988395830E-2,1.901350077E-2,5.820477797E-1,-1.744598651E-1,6.079287587E-1
5.988895835E-2,3.978229183E-1,1.265976276E-1,3.801906395E-1,5.646547228E-1
6.989295827E-2,5.571695947E-1,1.402194473E-1,7.833789629E-1,9.714844570E-1
7.989795832E-2,7.177150235E-1,4.248290147E-1,9.783900368E-1,1.285628878E0
8.990195824E-2,6.856266003E-1,7.934521075E-1,8.847345990E-1,1.372007796E0
9.990695829E-2,4.344368671E-1,1.153490757E0,6.454185873E-1,1.391345202E0
1.099109583E-1,1.824842367E-1,1.299219304E0,1.716853613E-1,1.323158026E0
1.199159583E-1,-4.683304536E-2,1.207587296E0,-4.590619773E-1,1.292748355E0
1.299199583E-1,-2.307465334E-1,1.101752838E0,-1.052819830E0,1.541276378E0
1.399249583E-1,-2.418909427E-1,9.547813189E-1,-1.469200056E0,1.768803946E0
1.499289583E-1,-1.030737491E-1,6.809610339E-1,-1.773543538E0,1.902574258E0
1.599339583E-1,-7.936683448E-2,5.600160559E-1,-1.966923239E0,2.046632381E0
1.699379582E-1,-2.914457665E-1,7.041294564E-1,-1.940768058E0,2.085022681E0
1.799419583E-1,-5.908192975E-1,9.502342317E-1,-1.605408606E0,1.956872333E0
1.899469583E-1,-8.605240564E-1,1.063863758E0,-9.288097411E-1,1.653782115E0
1.999509583E-1,-8.658549629E-1,1.035319698E0,-1.994257218E-1,1.364317526E0
2.099559583E-1,-5.026568803E-1,8.297697486E-1,3.749322385E-1,1.040074977E0
2.199599583E-1,-1.331908474E-2,6.260425226E-1,6.781436992E-1,9.230306143E-1
2.299649583E-1,2.189731830E-1,5.858366293E-1,6.526515931E-1,9.039402154E-1
2.399689583E-1,1.302814282E-1,6.887360765E-1,4.309859866E-1,8.228484394E-1
2.499739582E-1,-1.265717902E-1,7.853877738E-1,9.905358732E-2,8.016645099E-1
2.599779583E-1,-4.599750931E-1,8.687240455E-1,-1.790206933E-1,9.991531224E-1
2.699829583E-1,-6.535092334E-1,8.406113635E-1,-1.776413351E-1,1.079471272E0
2.799869583E-1,-7.156932756E-1,7.009564649E-1,2.716072601E-1,1.037943801E0
2.899919583E-1,-6.011751550E-1,4.753507121E-1,8.785844976E-1,1.165881892E0
2.999959583E-1,-3.594007546E-1,2.572476679E-1,1.326432685E0,1.398130513E0
3.100009583E-1,-9.017894835E-2,4.740293875E-2,1.479985245E0,1.483487650E0
3.200049583E-1,-4.686684958E-2,-6.508243382E-2,1.490530699E0,1.492686836E0
3.300099582E-1,-1.713700136E-1,-3.805543363E-2,1.491192604E0,1.501489687E0
3.400139583E-1,-3.253716771E-1,-5.826662689E-2,1.462310867E0,1.499204722E0
3.500189583E-1,-4.487749708E-1,-2.613698088E-1,1.089818671E0,1.207235639E0
3.600229583E-1,-5.182932120E-1,-4.352125002E-1,3.183697826E-1,7.479285343E-1
3.700279583E-1,-5.619111384E-1,-4.579783420E-1,-5.324556434E-1,8.994427728E-1
3.800319583E-1,-5.440782636E-1,-4.035378407E-1,-1.381309973E0,1.538467155E0
3.900369583E-1,-5.324189156E-1,-3.247338921E-1,-2.115927250E0,2.205917073E0
4.000409583E-1,-5.431292970E-1,-1.869156039E-1,-2.541681733E0,2.605776834E0
4.100459582E-1,-5.651435889E-1,-2.420951933E-2,-2.492389120E0,2.555773250E0
4.200499583E-1,-5.306569668E-1,7.311694667E-2,-1.917144138E0,1.990573924E0
4.300539583E-1,-3.674615434E-1,4.410554767E-2,-1.075528076E0,1.137424252E0
4.400589583E-1,-1.143199730E-1,-1.557951142E-1,-2.639824909E-1,3.271512331E-1
4.500629583E-1,2.025989692E-1,-5.003166419E-1,2.882811803E-1,6.119388232E-1
4.600679583E-1,4.242610308E-1,-7.702001428E-1,6.712854999E-1,1.106268460E0
4.700719583E-1,4.057785668E-1,-7.552814106E-1,1.078499047E0,1.377775906E0
4.800769583E-1,3.366368497E-1,-5.162552015E-1,1.516302887E0,1.636770676E0
4.900809583E-1,4.002356622E-1,-1.859103213E-1,1.905596471E0,1.956028922E0
5.000859583E-1,5.093267626E-1,1.015475710E-1,2.108615307E0,2.171631685E0
5.100899583E-1,6.880330950E-1,2.882476319E-1,2.058096533E0,2.189117991E0
5.200949583E-1,8.319842353E-1,3.292423146E-1,1.733573726E0,1.950865483E0
5.300989583E-1,8.551687378E-1,2.591828770E-1,1.094785881E0,1.413168588E0
5.401039583E-1,6.696054487E-1,2.714834453E-1,3.504932159E-1,8.030692451E-1
5.501079583E-1,2.750673500E-1,3.007013241E-1,-1.626058048E-1,4.387755475E-1
5.601129583E-1,-6.240433596E-2,3.014638010E-1,-5.049567729E-1,5.914017814E-1
5.701169583E-1,-3.200584584E-1,3.057046404E-1,-6.524410933E-1,7.883984552E-1
5.801219583E-1,-4.253059282E-1,3.844129870E-1,-6.993030185E-1,9.042583639E-1
5.901259583E-1,-3.788687302E-1,4.493050940E-1,-7.234251219E-1,9.320732209E-1
6.001309582E-1,-3.013081920E-1,4.505758401E-1,-6.739120692E-1,8.648483632E-1
6.101349583E-1,-1.464767721E-1,4.033339921E-1,-6.269033790E-1,7.596983615E-1
6.201399583E-1,-6.942742668E-2,2.861668271E-1,-6.797645473E-1,7.408046033E-1
6.301439583E-1,-9.298249640E-2,1.020651957E-1,-8.202795714E-1,8.318182639E-1
6.401489583E-1,-5.877248414E-2,-1.440855532E-1,-9.978215039E-1,1.009882471E0
6.501529583E-1,2.698731221E-2,-3.740631229E-1,-9.866164845E-1,1.055492123E0
6.601579583E-1,1.005100556E-1,-5.331569438E-1,-7.232251471E-1,9.041090706E-1
6.701619583E-1,1.665736523E-1,-6.950429564E-1,-7.916346467E-1,1.066544376E0
6.801659582E-1,3.479120357E-1,-8.315880865E-1,-8.868881285E-1,1.264575851E0
6.901709583E-1,5.263621869E-1,-7.873881794E-1,-7.157793027E-1,1.187171979E0
7.001749583E-1,5.506115404E-1,-6.274429308E-1,-3.514615148E-1,9.057499082E-1
7.101799583E-1,3.974303509E-1,-5.725510244E-1,-7.126235604E-2,7.006025141E-1
7.201839583E-1,1.751091253E-1,-6.902695088E-1,-1.213998914E-2,7.122377271E-1
7.301892500E-1,1.282833798E-1,-8.804810420E-1,-4.428096414E-2,8.908783837E-1
7.401932500E-1,1.873612713E-1,-1.107987286E0,-1.423995817E-1,1.132703718E0
7.501982499E-1,3.662120299E-1,-1.335172810E0,-2.925122255E-1,1.415048086E0
7.602022500E-1,4.014620060E-1,-1.467768950E0,-5.786153179E-1,1.627978231E0
7.702072499E-1,2.645339199E-1,-1.377196311E0,-9.219293225E-1,1.678273383E0
7.802112499E-1,1.970427256E-1,-1.095848466E0,-1.089467838E0,1.557770801E0
7.902162500E-1,2.729758009E-1,-8.270966940E-1,-1.144251571E0,1.438025169E0
8.002202499E-1,3.923096883E-1,-7.289013317E-1,-1.326458997E0,1.563552850E0
8.102252500E-1,5.482678302E-1,-7.205804515E-1,-1.621096101E0,1.856821577E0
8.202292500E-1,3.581931219E-1,-6.459954152E-1,-2.170164269E0,2.292427827E0
8.302342499E-1,-1.746516172E-1,-4.270513952E-1,-3.151826407E0,3.185417678E0
8.402382500E-1,1.801627642E-1,1.107374936E-2,-3.092947869E0,3.098210414E0
8.502432499E-1,9.996331175E-1,2.279566258E-2,-2.201140478E0,2.417603238E0
8.602472499E-1,1.426059299E0,-1.246442190E-1,-7.994740087E-1,1.639615808E0
8.702512500E-1,1.598619842E0,-1.001154417E-1,4.160831881E-1,1.654911998E0
8.802562499E-1,1.417346071E0,-3.861778960E-2,1.178606887E0,1.843766637E0
8.902602500E-1,9.918389983E-1,-4.819640592E-2,1.587992674E0,1.872909027E0
9.002652500E-1,4.539661288E-1,-1.801098834E-1,1.728216507E0,1.795900084E0
9.102692499E-1,8.947489791E-2,-3.365527229E-1,1.838143576E0,1.870840800E0
9.202742500E-1,1.188106712E-1,-4.117561023E-1,2.083996190E0,2.127604095E0
9.302782499E-1,2.130086575E-1,-6.853139935E-1,2.103842810E0,2.222877083E0
9.402832499E-1,6.020724468E-2,-1.089938393E0,1.874353629E0,2.169053282E0
9.502872500E-1,-3.382089467E-1,-1.318804846E0,1.747018229E0,2.214882436E0
9.602922499E-1,-7.239202349E-1,-1.489514745E0,1.813065453E0,2.455589750E0
9.702962500E-1,-7.677458471E-1,-1.775496800E0,2.220557327E0,2.944944383E0
9.803012500E-1,-4.530557173E-1,-2.138835180E0,2.733382698E0,3.500179479E0
9.903052499E-1,-2.093471311E-1,-2.338631322E0,3.073540376E0,3.867773665E0
1.000310250E0,-1.254207292E-1,-2.267210945E0,3.096406497E0,3.839753772E0
1.010314250E0,-5.276892856E-2,-2.111053888E0,2.905329430E0,3.591694889E0
1.020319250E0,4.902656436E-2,-1.759774953E0,2.711124687E0,3.232554494E0
1.030323250E0,1.982210492E-1,-1.219306943E0,2.691273975E0,2.961242410E0
1.040328250E0,4.296091135E-1,-6.547623648E-1,2.737683910E0,2.847488531E0
1.050332250E0,6.105998799E-1,-1.936675300E-1,2.642053868E0,2.718600369E0
1.060337250E0,5.153136536E-1,2.888462406E-1,2.368524628E0,2.441083617E0
1.070341250E0,1.224811877E-1,7.601950452E-1,1.872788329E0,2.024903522E0
1.080345250E0,-4.567365396E-1,1.183222094E0,1.292151044E0,1.810601312E0
1.090350250E0,-1.086535898E0,1.580685409E0,7.473191839E-1,2.058546230E0
1.100354250E0,-1.502528162E0,1.903182156E0,2.462800455E-1,2.437282720E0
1.110359250E0,-1.758286252E0,2.150585306E0,-2.500731343E-1,2.789108150E0
1.120363250E0,-1.887863182E0,2.310810563E0,-8.963816679E-1,3.115665731E0
1.130368250E0,-1.865012117E0,2.387694139E0,-1.609329749E0,3.430640719E0
1.140372250E0,-1.754301374E0,2.497094960E0,-2.180651250E0,3.750772777E0
1.150377250E0,-1.622880525E0,2.566865983E0,-2.430775255E0,3.889885669E0
1.160381250E0,-1.421074255E0,2.610051179E0,-2.273491586E0,3.741735318E0
1.170386250E0,-1.159930003E0,2.552892307E0,-1.940172812E0,3.409833909E0
1.180390250E0,-1.119134126E0,2.358609943E0,-1.599116417E0,3.061482544E0
1.190395250E0,-1.247139178E0,2.172527128E0,-1.159444392E0,2.760351708E0
1.200399250E0,-1.280189833E0,2.033371582E0,-6.055949557E-1,2.477949001E0
1.210404250E0,-1.355068839E0,2.018235187E0,-9.509853065E-2,2.432802614E0
1.220408250E0,-1.444589418E0,2.171734538E0,3.506160074E-1,2.631767671E0
1.230413250E0,-1.600318312E0,2.459081918E0,6.330476332E-1,3.001474952E0
1.240417250E0,-1.893263524E0,2.780144344E0,6.951181662E-1,3.434652618E0
1.250421250E0,-2.151829739E0,3.090617462E0,5.661478847E-1,3.808255631E0
1.260426250E0,-2.250418473E0,3.372918694E0,3.105994177E-1,4.066624622E0
1.270430250E0,-2.206914019E0,3.579061990E0,-4.016803265E-2,4.204969404E0
1.280435250E0,-2.145346054E0,3.671199783E0,-4.284061950E-1,4.273610816E0
1.290439250E0,-2.152216533E0,3.673578430E0,-7.301500046E-1,4.319760817E0
1.300444250E0,-2.237173945E0,3.653681525E0,-8.359600496E-1,4.364993144E0
1.310448250E0,-2.355992875E0,3.561109576E0,-7.128457546E-1,4.329012926E0
1.320453250E0,-2.442295439E0,3.395596536E0,-4.244675106E-1,4.204171204E0
1.330457250E0,-2.454169380E0,3.201173984E0,-2.389020288E-1,4.040734636E0
1.340462250E0,-2.409822635E0,3.063713253E0,-1.357197225E-1,3.900256898E0
1.350466250E0,-2.280798851E0,2.922738638E0,-9.530376792E-2,3.708574841E0
1.360471250E0,-2.135044430E0,2.832845591E0,-1.461499858E-1,3.550322334E0
1.370475250E0,-2.007719555E0,2.802630689E0,-3.448477292E-1,3.464765005E0
1.380480250E0,-1.743334191E0,2.812035350E0,-6.862830234E-1,3.379014841E0
1.390484250E0,-1.465139603E0,2.808420017E0,-1.022138320E0,3.328456668E0
1.400489250E0,-1.189830033E0,2.786189780E0,-1.322496339E0,3.305683827E0
1.410493250E0,-8.960423832E-1,2.750976385E0,-1.403703055E0,3.215765118E0
1.420497250E0,-5.940412961E-1,2.699610642E0,-1.367539195E0,3.083982188E0
1.430502250E0,-2.967804006E-1,2.657595767E0,-1.118083527E0,2.898448661E0
1.440506250E0,-1.523799017E-2,2.680951300E0,-7.414883405E-1,2.781642865E0
1.450511250E0,1.954636484E-1,2.702780710E0,-2.477710855E-1,2.721143164E0
1.460515250E0,3.462650943E-1,2.735366659E0,1.727904850E-1,2.762605079E0
1.470520250E0,5.254201274E-1,2.769045159E0,3.422322696E-1,2.839154862E0
1.480524250E0,5.228309803E-1,2.730773378E0,2.639479923E-1,2.792873792E0
1.490529250E0,5.162617797E-1,2.680144677E0,7.319544554E-3,2.729423985E0
1.500533250E0,3.863322625E-1,2.706079710E0,-1.913010156E-1,2.740203658E0
1.510538250E0,8.371502504E-2,2.668960707E0,-3.763016564E-1,2.696657635E0
1.520542250E0,-1.451736470E-1,2.575169030E0,-4.184717757E-1,2.612984796E0
1.530547250E0,-2.121353759E-1,2.467502494E0,-5.259161174E-2,2.477162863E0
1.540551250E0,-1.485749723E-1,2.267147942E0,7.039954090E-1,2.378580217E0
1.550556250E0,-5.160240903E-2,2.096239091E0,1.541039532E0,2.602245948E0
1.560560250E0,-2.667704433E-2,2.069064448E0,2.551114461E0,3.284802026E0
1.570565250E0,-2.430117443E-2,2.096375915E0,3.642563336E0,4.202814555E0
1.580569250E0,1.687506437E-2,2.141792847E0,4.522945853E0,5.004458068E0
1.590573250E0,1.438879904E-1,2.180788806E0,5.030561355E0,5.484805476E0
1.600578250E0,2.481983708E-1,2.265029057E0,5.164826290E0,5.645120873E0
1.610582250E0,3.847904979E-1,2.385122680E0,4.933916236E0,5.493669388E0
1.620587250E0,4.940338817E-1,2.418658947E0,4.338059818E0,4.991266729E0
1.630591250E0,5.391852039E-1,2.334583880E0,3.566634902E0,4.296729815E0
1.640596250E0,3.962456319E-1,2.273326402E0,2.933656266E0,3.732474062E0
1.650600250E0,1.676803109E-1,2.192278438E0,2.685724967E0,3.470924954E0
1.660605250E0,-6.899012804E-2,1.965045405E0,2.852860610E0,3.464819872E0
1.670609250E0,-2.296358000E-1,1.656367967E0,3.239408927E0,3.645553132E0
1.680614250E0,-3.483008024E-1,1.430107765E0,3.655680395E0,3.940878179E0
1.690618250E0,-3.495064983E-1,1.278876110E0,3.669534788E0,3.901687386E0
1.700623250E0,-3.501654795E-1,1.101149771E0,3.173113196E0,3.376950405E0
1.710627250E0,-4.200666037E-1,9.471945566E-1,2.315776311E0,2.537016634E0
1.720631250E0,-4.199628156E-1,7.582765737E-1,1.284706369E0,1.549781463E0
1.730635750E0,-4.168329473E-1,5.057180804E-1,3.091534013E-1,7.246214931E-1
1.740639750E0,-4.022179779E-1,1.629355878E-1,-4.932079625E-1,6.569485534E-1
1.750644750E0,-3.979756768E-1,-3.119553870E-1,-1.041131830E0,1.157435221E0
1.760648750E0,-4.683536415E-1,-8.492705052E-1,-1.297824013E0,1.620173661E0
1.770653750E0,-4.895880975E-1,-1.334975321E0,-1.234751852E0,1.883206772E0
1.780657750E0,-4.826265487E-1,-1.766093016E0,-8.925762999E-1,2.036837101E0
1.790662750E0,-5.430983068E-1,-2.161083689E0,-2.340850925E-1,2.240543307E0
1.800666750E0,-6.098686856E-1,-2.489598244E0,4.615464592E-1,2.604431678E0
1.810671750E0,-5.427958596E-1,-2.764372064E0,1.015053248E0,2.994447086E0
1.820675750E0,-2.558453594E-1,-3.004450845E0,1.245056400E0,3.262261051E0
1.830680750E0,-1.542558347E-1,-3.093246662E0,1.068431895E0,3.276204586E0
1.840684750E0,-2.094854178E-1,-2.992417275E0,5.547668642E-1,3.050608392E0
1.850689750E0,-2.905379131E-1,-2.837647909E0,-7.125592411E-2,2.853372626E0
1.860693750E0,-3.138662571E-1,-2.774870155E0,-6.227044934E-1,2.861149645E0
1.870698750E0,-2.574279083E-1,-2.792412387E0,-1.070996484E0,3.001811043E0
1.880702750E0,-1.250814445E-1,-2.872437088E0,-1.492291296E0,3.239363132E0
1.890706750E0,7.026496723E-2,-2.942913578E0,-1.838099138E0,3.470487852E0
1.900711750E0,1.671049449E-1,-3.046109918E0,-2.089348732E0,3.697578642E0
1.910715750E0,2.385802858E-1,-3.150932368E0,-2.229035205E0,3.867026414E0
1.920720750E0,2.524833566E-1,-3.307811995E0,-2.375438375E0,4.080205327E0
1.930724750E0,9.166606888E-2,-3.487753917E0,-2.483104327E0,4.282363500E0
1.940729750E0,-1.379302624E-1,-3.596352791E0,-2.382495965E0,4.316140079E0
1.950733750E0,-3.388373762E-1,-3.701384572E0,-2.071867311E0,4.255313463E0
1.960738750E0,-4.303752449E-1,-3.798043724E0,-1.701056775E0,4.183772596E0
1.970742750E0,-4.238656859E-1,-3.907662353E0,-1.388510234E0,4.168626615E0
1.980747750E0,-4.061664565E-1,-4.045935555E0,-1.278439908E0,4.262507983E0
1.990751750E0,-3.782859090E-1,-4.144535106E0,-1.459408309E0,4.410231750E0
2.000756750E0,-4.136640488E-1,-4.179341534E0,-1.807816408E0,4.572331327E0
2.010760750E0,-5.004615797E-1,-4.202131057E0,-2.081568426E0,4.716067676E0
2.020764750E0,-5.724571766E-1,-4.232694453E0,-2.131651583E0,4.773609538E0
2.030769750E0,-6.520072299E-1,-4.301980743E0,-1.981151853E0,4.780911462E0
2.040773750E0,-8.034928000E-1,-4.353954304E0,-1.653786129E0,4.726259337E0
2.050778750E0,-1.035017251E0,-4.344479476E0,-1.185515957E0,4.620737031E0
2.060782750E0,-1.148329419E0,-4.333798074E0,-7.531248844E-1,4.546170179E0
2.070787750E0,-1.047042927E0,-4.366393086E0,-5.262090629E-1,4.520905158E0
2.080791750E0,-8.432926042E-1,-4.291321561E0,-2.561045372E-1,4.380887204E0
2.090796750E0,-5.614163178E-1,-4.220261226E0,1.348976040E-1,4.259576324E0
2.100800750E0,-3.131176673E-1,-4.283236324E0,5.753326911E-1,4.333031708E0
2.110805750E0,-1.080103523E-1,-4.401272312E0,1.008206159E0,4.516563279E0
2.120809750E0,-3.103263527E-2,-4.529816039E0,1.445186126E0,4.754866908E0
2.130814750E0,4.361452773E-2,-4.661076675E0,2.037925394E0,5.087305564E0
2.140818750E0,2.133855106E-1,-4.800665500E0,2.651403565E0,5.488338864E0
2.150823750E0,3.993559121E-1,-5.010249882E0,3.093267712E0,5.901728066E0
2.160827750E0,5.478143786E-1,-5.145443355E0,3.240634503E0,6.105522082E0
2.170831750E0,7.145503642E-1,-5.173719905E0,3.300927483E0,6.178517794E0
2.180836750E0,7.994044268E-1,-5.064913162E0,3.433809552E0,6.171178235E0
2.190840750E0,8.523125191E-1,-4.882265148E0,3.640253102E0,6.149340798E0
2.200845750E0,8.748880340E-1,-4.614038164E0,3.881571785E0,6.092731470E0
2.210849750E0,6.743877402E-1,-4.251398527E0,4.225543016E0,6.031948445E0
2.220854750E0,3.246412137E-1,-3.757431888E0,4.711968209E0,6.035422993E0
2.230858750E0,-4.826525688E-2,-3.169891965E0,5.162842330E0,6.058505222E0
2.240863750E0,-3.827952817E-1,-2.478269264E0,5.424709298E0,5.976271559E0
2.250867750E0,-7.196422657E-1,-1.720665559E0,5.344842179E0,5.660910958E0
2.260872750E0,-9.101770037E-1,-1.003779524E0,4.864057211E0,5.049262131E0
2.270876750E0,-8.706936800E-1,-3.989342547E-1,3.934263968E0,4.049159048E0
2.280881750E0,-6.464228466E-1,8.107902713E-2,2.597815003E0,2.678260461E0
2.290885750E0,-2.529236519E-1,4.355571936E-1,9.124340290E-1,1.042217012E0
2.300889750E0,1.822221901E-1,6.875974774E-1,-7.901389289E-1,1.063162614E0
2.310894750E0,6.208760691E-1,8.771153115E-1,-2.174796433E0,2.425810769E0
2.320898750E0,9.942756061E-1,1.025147151E0,-3.054998855E0,3.372317996E0
2.330903750E0,1.349109795E0,1.106142636E0,-3.381379323E0,3.804914571E0
2.340907750E0,1.657625557E0,1.064713797E0,-3.199984660E0,3.757823810E0
2.350912750E0,1.873053062E0,9.088450811E-1,-2.729078563E0,3.432520496E0
2.360916750E0,1.869194923E0,7.142334451E-1,-2.170337931E0,2.952013856E0
2.370921750E0,1.641378045E0,5.345519433E-1,-1.556696622E0,2.324472422E0
2.380925750E0,1.249290076E0,4.253864005E-1,-8.405278945E-1,1.564661761E0
2.390930750E0,7.192288676E-1,5.014169417E-1,-1.312150276E-1,8.865249556E-1
2.400934750E0,7.172574788E-2,7.932940134E-1,5.313692307E-1,9.575036470E-1
2.410938750E0,-6.120160756E-1,1.320091379E0,1.013459882E0,1.773219067E0
2.420943750E0,-1.309249180E0,1.983373795E0,1.317715071E0,2.717402810E0
2.430947750E0,-1.886519053E0,2.650922340E0,1.345479990E0,3.520889063E0
2.440952750E0,-2.243506187E0,3.269062496E0,1.194142939E0,4.140780962E0
2.450956750E0,-2.517689146E0,3.779321232E0,9.702787793E-1,4.643648191E0
2.460961750E0,-2.731884349E0,4.269190727E0,8.292380905E-1,5.135836579E0
2.470965750E0,-2.899890058E0,4.692974698E0,7.200793451E-1,5.563442111E0
2.480970750E0,-3.029789169E0,4.945745738E0,7.771440768E-1,5.851835287E0
2.490974750E0,-3.159702607E0,5.147181732E0,1.022052366E0,6.125503358E0
2.500979750E0,-3.266565151E0,5.335991249E0,1.278031772E0,6.385657030E0
2.510983750E0,-3.315758653E0,5.555359485E0,1.485100974E0,6.637906248E0
2.520988750E0,-3.256959052E0,5.785217625E0,1.483076084E0,6.802649477E0
2.530992750E0,-3.091913497E0,6.145731214E0,1.456143808E0,7.032090445E0
2.540996750E0,-2.756737647E0,6.541668990E0,1.331456028E0,7.222590310E0
2.551001750E0,-2.335034700E0,6.872982754E0,1.059075181E0,7.335660790E0
2.561005750E0,-1.850944886E0,7.091987293E0,7.017073935E-1,7.363061455E0
2.571010750E0,-1.395817500E0,7.261676999E0,1.989304626E-1,7.397285493E0
2.581014750E0,-9.540931016E-1,7.351687283E0,-1.524117690E-1,7.414905859E0
2.591019750E0,-6.131469271E-1,7.319749791E0,-1.927563876E-1,7.347914070E0
2.601023750E0,-3.364441109E-1,7.159227934E0,-9.449100494E-2,7.167751935E0
2.611028750E0,-3.129055595E-1,6.833561411E0,3.311979890E-2,6.840801734E0
2.621032750E0,-4.585029835E-1,6.401895393E0,1.841422695E-1,6.420934355E0
2.631037750E0,-6.464634848E-1,6.048675036E0,3.801233965E-1,6.094987984E0
2.641041750E0,-9.019318449E-1,5.819695147E0,6.779636049E-1,5.928066068E0
2.651046750E0,-1.069891360E0,5.728154647E0,1.175005002E0,5.944498292E0
2.661050750E0,-9.886302656E-1,5.858959785E0,1.811069798E0,6.211664300E0
2.671054750E0,-8.482544053E-1,6.075185142E0,2.458843644E0,6.608579432E0
2.681059750E0,-5.983242354E-1,6.271034122E0,3.067749878E0,7.006778872E0
2.691063750E0,-3.020648217E-1,6.349285070E0,3.734407307E0,7.372276582E0
2.701068750E0,-5.882269710E-2,6.352535537E0,4.312075961E0,7.678031451E0
2.711072750E0,8.704574525E-2,6.314659613E0,4.922068022E0,8.006825626E0
2.721077750E0,1.735234335E-1,6.198632144E0,5.673756831E0,8.405038216E0
2.731082250E0,3.866135135E-1,5.977189316E0,6.338015732E0,8.720476222E0
2.741087250E0,5.854895970E-1,5.662503864E0,6.555129865E0,8.681962660E0
2.751091250E0,6.924024269E-1,5.262956017E0,6.214207372E0,8.172790247E0
2.761096250E0,5.954400963E-1,4.721907598E0,5.447742650E0,7.233868968E0
2.771100250E0,2.144992590E-1,4.061516923E0,4.449704799E0,6.028416247E0
2.781105250E0,-2.638284168E-1,3.449592941E0,3.598533803E0,4.991867628E0
2.791109250E0,-8.008802640E-1,2.913571665E0,3.048055871E0,4.291963844E0
2.801113250E0,-1.596055984E0,2.457565151E0,3.123242878E0,4.282717274E0
2.811118250E0,-2.015524418E0,1.988561737E0,3.751321548E0,4.699907426E0
2.821122250E0,-2.068720924E0,1.540643822E0,4.816524026E0,5.463706923E0
2.831127250E0,-1.879266459E0,1.076782962E0,5.913523078E0,6.297686811E0
2.841131250E0,-1.456951016E0,4.817327287E-1,6.632338255E0,6.807546064E0
2.851136250E0,-1.039180030E0,-1.970722540E-1,6.739392588E0,6.821887206E0
2.861140250E0,-8.328373441E-1,-7.472441934E-1,5.968699744E0,6.072673922E0
2.871145250E0,-8.213768014E-1,-1.018754828E0,4.569243522E0,4.752947255E0
2.881149250E0,-8.983267441E-1,-1.166490798E0,3.022411153E0,3.361943024E0
2.891154250E0,-9.104117694E-1,-1.304330502E0,1.697956581E0,2.326625066E0
2.901158250E0,-9.560463640E-1,-1.467682996E0,7.611601281E-1,1.909838414E0
2.911162250E0,-1.024411279E0,-1.716289941E0,2.210721141E-1,2.010955621E0
2.921167250E0,-1.101195014E0,-2.050655221E0,2.414397204E-1,2.340109064E0
2.931171250E0,-9.415712893E-1,-2.526434826E0,6.702055192E-1,2.778237726E0
2.941176250E0,-6.202574337E-1,-3.107067141E0,1.074172107E0,3.345509112E0
2.951180250E0,-3.014961800E-1,-3.703058337E0,1.303234441E0,3.937252977E0
2.961185250E0,-1.028285497E-1,-4.326842519E0,1.305268688E0,4.520604632E0
2.971189250E0,2.589380980E-2,-4.887098457E0,1.039801004E0,4.996557609E0
2.981194250E0,-7.795800269E-3,-5.268819605E0,4.570300698E-1,5.288610147E0
2.991198250E0,-2.363690150E-1,-5.449385133E0,-2.858329511E-1,5.461993145E0
3.001203250E0,-5.377424034E-1,-5.469747477E0,-8.739143264E-1,5.565162226E0
3.011207250E0,-7.697108039E-1,-5.475146796E0,-1.087920080E0,5.635002862E0
3.021211250E0,-8.710269713E-1,-5.540124564E0,-9.781046927E-1,5.692833825E0
3.031216250E0,-8.242583093E-1,-5.665112892E0,-6.561347795E-1,5.762240770E0
3.041220250E0,-5.994822764E-1,-5.770748690E0,-3.104772109E-1,5.810104607E0
3.051225250E0,-4.376263770E-1,-5.855462565E0,-1.946105397E-1,5.875017614E0
3.061229250E0,-3.756277648E-1,-5.908390392E0,-3.314903498E-1,5.929591815E0
3.071234250E0,-3.065815035E-1,-5.959531894E0,-4.827391076E-1,5.986906519E0
3.081238250E0,-3.082695946E-1,-5.971754329E0,-6.076742256E-1,6.010503130E0
3.091243250E0,-4.968613029E-1,-5.827139238E0,-7.725902653E-1,5.899094724E0
3.101247250E0,-7.067529559E-1,-5.637155600E0,-1.003046576E0,5.769152921E0
3.111252250E0,-9.471583039E-1,-5.428737445E0,-1.327892150E0,5.668473927E0
3.121256250E0,-1.254695535E0,-5.139995504E0,-1.640250995E0,5.539335519E0
3.131261250E0,-1.576487693E0,-4.764013690E0,-1.783197291E0,5.325498330E0
3.141265250E0,-1.763788043E0,-4.335173047E0,-1.703849405E0,4.980740548E0
3.151269250E0,-1.770569352E0,-3.988764404E0,-1.502396454E0,4.615447151E0
3.161274250E0,-1.657545012E0,-3.802294358E0,-1.119048318E0,4.296180511E0
3.171278250E0,-1.481156443E0,-3.665855135E0,-4.817339712E-1,3.983012164E0
3.181283250E0,-1.133507020E0,-3.544407881E0,3.883960372E-1,3.741459191E0
3.191287250E0,-5.861541331E-1,-3.434171494E0,1.398546980E0,3.754070348E0
3.201292250E0,-4.586906791E-2,-3.367295135E0,2.403128450E0,4.137125432E0
3.211296250E0,3.402626351E-1,-3.269572374E0,3.109158690E0,4.524682301E0
3.221301250E0,4.991727072E-1,-3.042486398E0,3.344960525E0,4.549138137E0
3.231305250E0,5.183968905E-1,-2.814388855E0,3.369516492E0,4.420764792E0
3.241309250E0,6.015130144E-1,-2.686208532E0,3.441044896E0,4.406622761E0
3.251314250E0,1.016509644E0,-2.613735802E0,3.307441866E0,4.336366958E0
3.261318250E0,1.558448009E0,-2.478745812E0,2.845656840E0,4.082977327E0
3.271323250E0,1.878915042E0,-2.239830335E0,2.244298777E0,3.685653085E0
3.281327250E0,1.916948548E0,-2.061125683E0,1.674206945E0,3.275041941E0
3.291332250E0,1.629347399E0,-2.040289423E0,1.251036932E0,2.895280173E0
3.301336250E0,1.229948510E0,-1.974100988E0,1.104177679E0,2.574695399E0
3.311341250E0,7.860585956E-1,-1.878677352E0,1.236011342E0,2.382234402E0
3.321345250E0,4.068646140E-1,-1.707994789E0,1.595522718E0,2.372441307E0
3.331350250E0,9.971110672E-3,-1.455798238E0,1.966817989E0,2.447002438E0
3.341354250E0,-3.688914800E-1,-1.048877344E0,2.274868605E0,2.532044980E0
3.351359250E0,-7.585860376E-1,-5.876779175E-1,2.287574020E0,2.480688011E0
3.361363250E0,-1.025782451E0,-1.242428076E-1,1.764627119E0,2.044889919E0
3.371367250E0,-1.113132982E0,2.439958307E-1,8.362278521E-1,1.413462423E0
3.381372250E0,-1.031580842E0,4.333257499E-1,-3.127617180E-1,1.161787473E0
3.391376250E0,-8.917255300E-1,5.248989943E-1,-1.351855209E0,1.702411784E0
3.401381250E0,-7.474735504E-1,5.027745920E-1,-2.265104924E0,2.437662675E0
3.411385250E0,-5.467991558E-1,3.519234449E-1,-2.952508274E0,3.023267196E0
3.421390250E0,-4.158851136E-1,9.690035015E-2,-3.381502115E0,3.408358352E0
3.431394250E0,-3.624753302E-1,-2.339830586E-1,-3.398690005E0,3.425964125E0
3.441399250E0,-2.902166086E-1,-6.465099701E-1,-2.990991139E0,3.073797133E0
3.451403250E0,-1.458878843E-1,-1.157782028E0,-2.310708529E0,2.588651465E0
3.461408250E0,-3.803467602E-3,-1.643913398E0,-1.645012382E0,2.325624962E0
3.471412250E0,1.054270524E-1,-2.009240708E0,-1.122409297E0,2.303902280E0
3.481416250E0,2.448543482E-1,-2.204667811E0,-7.639609444E-1,2.346092525E0
3.491421250E0,2.764622033E-1,-2.237388830E0,-5.827645022E-1,2.328509092E0
3.501425250E0,1.291186546E-1,-1.971378817E0,-5.538962138E-1,2.051781441E0
3.511430250E0,-6.165728107E-2,-1.533679057E0,-7.393962067E-1,1.703725278E0
3.521434250E0,-2.873900646E-1,-1.062464519E0,-1.020761300E0,1.501125423E0
3.531439250E0,-4.477522928E-1,-6.480001330E-1,-1.272551177E0,1.496587046E0
3.541443250E0,-5.491437431E-1,-2.300338492E-1,-1.412783196E0,1.533111471E0
3.551448250E0,-5.429747844E-1,1.557610542E-1,-1.468608903E0,1.573497770E0
3.561452250E0,-4.430511314E-1,4.271692166E-1,-1.390651485E0,1.520749617E0
3.571456250E0,-3.241993104E-1,6.124686500E-1,-1.226681525E0,1.408889848E0
3.581461250E0,-2.783803824E-1,7.959916994E-1,-1.049393361E0,1.346226151E0
3.591465250E0,-2.173813516E-1,9.940944886E-1,-9.200231302E-1,1.371831281E0
3.601470250E0,-1.629708172E-1,1.148509806E0,-8.587899184E-1,1.443313682E0
3.611474250E0,-1.807720806E-1,1.277152644E0,-8.440052336E-1,1.541474052E0
3.621479250E0,-2.397199081E-1,1.402663127E0,-8.784552741E-1,1.672307732E0
3.631483250E0,-2.921957450E-1,1.534407913E0,-9.812551725E-1,1.844626713E0
3.641488250E0,-2.422179848E-1,1.622973349E0,-1.142171717E0,1.999316952E0
3.651492250E0,-2.153839427E-1,1.604663378E0,-1.317224489E0,2.087202711E0
3.661497250E0,-2.436388582E-1,1.470901304E0,-1.604408732E0,2.190214126E0
3.671501250E0,-2.988470989E-1,1.298536788E0,-1.845001191E0,2.275859568E0
3.681505250E0,-3.261477488E-1,1.075701446E0,-1.709212471E0,2.045706046E0
3.691510250E0,-1.784476662E-1,7.979870617E-1,-1.166596706E0,1.424631459E0
3.701514250E0,2.262240958E-1,4.568093374E-1,-3.956003916E-1,6.452532698E-1
3.711519250E0,5.447897601E-1,6.561745405E-2,3.890480018E-1,6.726513812E-1
3.721523250E0,7.431689765E-1,-2.673159885E-1,1.212372218E0,1.446929287E0
3.731528375E0,9.915798935E-1,-5.566537607E-1,2.174767781E0,2.454120820E0
3.741532375E0,1.272549423E0,-9.891997844E-1,3.054484885E0,3.453661269E0
3.751537375E0,1.433047014E0,-1.518453785E0,3.681653727E0,4.232481519E0
3.761541375E0,1.464725767E0,-2.139956675E0,3.835762943E0,4.630109448E0
3.771546375E0,1.233602874E0,-2.812958918E0,3.552740164E0,4.696432326E0
3.781550375E0,9.224681434E-1,-3.292803361E0,3.058893101E0,4.588063693E0
3.791554375E0,6.919501448E-1,-3.495517557E0,2.531714569E0,4.371157359E0
3.801559375E0,5.679488271E-1,-3.520170296E0,2.204730084E0,4.192254706E0
3.811563375E0,3.561512741E-1,-3.446510581E0,2.042965109E0,4.022310947E0
3.821568375E0,8.984743863E-2,-3.231129270E0,2.006912346E0,3.804729437E0
3.831572375E0,-1.804371813E-1,-2.965607792E0,2.061732332E0,3.616369362E0
3.841577375E0,-4.961795175E-1,-2.753898824E0,2.190849963E0,3.553867810E0
3.851581375E0,-6.772674939E-1,-2.618299262E0,2.345621084E0,3.579960971E0
3.861586375E0,-5.667583340E-1,-2.442462085E0,2.563421681E0,3.585800714E0
3.871590375E0,-3.676088932E-1,-2.234086176E0,2.860050346E0,3.647761687E0
3.881595375E0,-1.855847776E-1,-2.106481804E0,3.058676754E0,3.718495769E0
3.891599375E0,1.382199919E-1,-2.038905972E0,2.904002112E0,3.550981638E0
3.901603375E0,4.269709960E-1,-1.853202349E0,2.335911782E0,3.012166502E0
3.911608375E0,6.029759878E-1,-1.484063386E0,1.553871247E0,2.231712353E0
3.921612375E0,6.814190170E-1,-1.096092003E0,8.507909274E-1,1.545831413E0
3.931617375E0,7.102814582E-1,-7.474741352E-1,3.332065076E-1,1.083625355E0
3.941621375E0,6.894343802E-1,-3.764465942E-1,-1.776734948E-2,7.857146312E-1
3.951626375E0,5.657251310E-1,2.386802366E-2,-2.382149810E-1,6.142971460E-1
3.961630375E0,3.860936961E-1,4.385040441E-1,-1.873161381E-1,6.135482658E-1
3.971635375E0,2.503815749E-1,9.053447916E-1,2.781052709E-2,9.397412145E-1
3.981639375E0,1.811914721E-1,1.258942075E0,1.929429138E-1,1.286465105E0
3.991643375E0,1.548980051E-1,1.470212502E0,2.124422085E-1,1.493536034E0
4.001648375E0,2.147661844E-1,1.646879691E0,-1.046417713E-2,1.660857227E0
4.011652375E0,2.739019999E-1,1.831450269E0,-4.147547007E-1,1.897696987E0
4.021657375E0,2.998016569E-1,2.047461910E0,-9.199781066E-1,2.264584073E0
4.031661375E0,3.387926450E-1,2.223296163E0,-1.420941231E0,2.660244400E0
4.041666375E0,3.851566797E-1,2.348604918E0,-1.779190194E0,2.971499365E0
4.051670375E0,4.673457277E-1,2.473748197E0,-1.942940884E0,3.180072554E0
4.061675375E0,5.847823763E-1,2.561596765E0,-1.934774078E0,3.262989296E0
4.071679375E0,6.623351669E-1,2.633880045E0,-1.763139002E0,3.238004186E0
4.081684375E0,7.295182130E-1,2.679646202E0,-1.423997571E0,3.120972552E0
4.091688375E0,8.532979211E-1,2.685972304E0,-1.109402166E0,3.028751843E0
4.101692375E0,8.428448537E-1,2.701065137E0,-9.205312532E-1,2.975486198E0
4.111697375E0,6.646860400E-1,2.877361905E0,-7.972158140E-1,3.058851438E0
4.121701375E0,4.569236505E-1,3.173914264E0,-5.054204571E-1,3.246222546E0
4.131706375E0,3.035210708E-1,3.499450979E0,-8.247673094E-2,3.513557258E0
4.141710375E0,2.018938315E-1,3.785255279E0,2.546772319E-1,3.799181377E0
4.151715375E0,1.318424338E-1,4.102025263E0,4.564769232E-1,4.129450916E0
4.161719375E0,1.077659386E-1,4.334695914E0,4.539538497E-1,4.359733509E0
4.171724375E0,1.065795386E-1,4.446656061E0,3.215290332E-1,4.459539241E0
4.181728375E0,9.983506769E-2,4.470090532E0,7.430466235E-2,4.471822625E0
4.191732375E0,1.491683185E-2,4.434899649E0,-1.881359178E-1,4.438913441E0
4.201737375E0,-9.622207314E-2,4.373122061E0,-3.056567663E-1,4.384846783E0
4.211741375E0,-1.801860434E-1,4.290832149E0,-3.501868218E-1,4.308867409E0
4.221746375E0,-2.582984126E-1,4.143208957E0,-2.521945041E-1,4.158906179E0
4.231750375E0,-3.626922619E-1,3.969708620E0,2.229800606E-1,3.992474460E0
4.241755375E0,-4.035833028E-1,3.737311327E0,9.527856642E-1,3.877908709E0
4.251759375E0,-3.770039070E-1,3.405245903E0,1.671731819E0,3.812154100E0
4.261764375E0,-3.001314399E-1,3.127910711E0,2.327618092E0,3.910461645E0
4.271768375E0,-2.987020880E-1,2.949113966E0,2.934002421E0,4.170715326E0
4.281772375E0,-2.913518456E-1,2.798268666E0,3.485943326E0,4.479619883E0
4.291777375E0,-3.025366920E-1,2.661250861E0,3.928478733E0,4.754653484E0
4.301781375E0,-3.204446670E-1,2.571868861E0,4.251816895E0,4.979471973E0
4.311786375E0,-3.638684294E-1,2.571211926E0,4.305104325E0,5.027668869E0
4.321790375E0,-5.364849597E-1,2.695942976E0,4.196567724E0,5.016682699E0
4.331795375E0,-6.681335583E-1,2.871802665E0,3.916998310E0,4.902706269E0
4.341799375E0,-6.613168743E-1,3.029650883E0,3.585471123E0,4.740435386E0
4.351804375E0,-6.134694010E-1,3.175910212E0,3.302429633E0,4.622639057E0
4.361808375E0,-6.230450937E-1,3.261375162E0,3.021517113E0,4.489356168E0
4.371812375E0,-7.048596275E-1,3.247612863E0,2.753851461E0,4.315960411E0
4.381817375E0,-8.343158126E-1,3.168136338E0,2.619059107E0,4.194358275E0
4.391821375E0,-9.537045541E-1,3.044045851E0,2.634889274E0,4.137439910E0
4.401826375E0,-1.082771899E0,2.890292730E0,2.877207831E0,4.219539306E0
4.411830375E0,-1.189452302E0,2.786441210E0,3.315903956E0,4.491577723E0
4.421835375E0,-1.234233496E0,2.689882045E0,3.711820682E0,4.747252944E0
4.431839375E0,-1.338925846E0,2.691600249E0,3.910621337E0,4.932584876E0
4.441844375E0,-1.357600391E0,2.710841682E0,3.680324070E0,4.768283413E0
4.451848375E0,-1.308102833E0,2.686043348E0,2.989508870E0,4.226479052E0
4.461853375E0,-1.137294554E0,2.635478966E0,2.134403867E0,3.576991494E0
4.471857375E0,-9.376103854E-1,2.585189695E0,1.337909600E0,3.058156486E0
4.481861375E0,-7.151890263E-1,2.449407261E0,6.767970854E-1,2.639913932E0
4.491866375E0,-5.363007724E-1,2.153428368E0,1.845088899E-1,2.226862318E0
4.501870375E0,-4.024688235E-1,1.759407894E0,-2.701589048E-2,1.805055996E0
4.511875375E0,-2.923356396E-1,1.242768969E0,1.242796451E-1,1.282723769E0
4.521879375E0,-2.203409198E-1,5.542673658E-1,5.464895457E-1,8.089581307E-1
4.531884375E0,-1.336708581E-1,-1.987720031E-1,1.118585803E0,1.143945980E0
4.541888375E0,-7.635528088E-2,-9.695563558E-1,1.565515977E0,1.843016530E0
4.551893375E0,3.168547690E-2,-1.760084855E0,1.783107828E0,2.505668812E0
4.561897375E0,1.418850267E-1,-2.491556477E0,1.766556700E0,3.057565635E0
4.571901375E0,1.514662743E-1,-3.106659590E0,1.419722672E0,3.419047865E0
4.581906375E0,5.736732513E-2,-3.581513727E0,8.350204021E-1,3.678014500E0
4.591910375E0,-9.333237916E-2,-3.887774511E0,2.669312418E-1,3.898044878E0
4.601915375E0,-2.866913223E-1,-4.130528101E0,-1.524755037E-1,4.143272026E0
4.611919375E0,-4.186264345E-1,-4.305577658E0,-4.389744526E-1,4.348096782E0
4.621924375E0,-5.080818173E-1,-4.424940964E0,-5.835836971E-1,4.492084104E0
4.631928375E0,-5.924518767E-1,-4.530849242E0,-6.644951284E-1,4.617482848E0
4.641933375E0,-6.749908805E-1,-4.593186408E0,-6.444555509E-1,4.687034993E0
4.651937375E0,-7.639337549E-1,-4.638195643E0,-5.363305932E-1,4.731184218E0
4.661941375E0,-8.175612009E-1,-4.715258437E0,-2.502567369E-1,4.792149505E0
4.671946375E0,-7.351622379E-1,-4.760082315E0,-9.151009440E-2,4.817387389E0
4.681950375E0,-6.028078803E-1,-4.672458572E0,-6.196645260E-2,4.711590633E0
4.691955375E0,-4.492705223E-1,-4.582675745E0,-1.455810517E-1,4.606946368E0
4.701959375E0,-3.649177122E-1,-4.453792003E0,-3.039675057E-1,4.479042798E0
4.711964375E0,-3.445965913E-1,-4.303335543E0,-5.320451689E-1,4.349771910E0
4.721968375E0,-2.963620323E-1,-4.146276991E0,-8.219512904E-1,4.237339645E0
4.731973500E0,-3.237041974E-1,-4.059268376E0,-1.151913763E0,4.231943935E0
4.741977500E0,-3.215959838E-1,-4.008430344E0,-1.454486707E0,4.276268161E0
4.751981500E0,-2.338207984E-1,-4.061462836E0,-1.731161749E0,4.421207249E0
4.761986500E0,-8.864934415E-2,-4.156873608E0,-1.887237384E0,4.566083863E0
4.771990500E0,1.034913316E-1,-4.299722548E0,-1.769591405E0,4.650782535E0
4.781995500E0,1.904274416E-1,-4.533256248E0,-1.454106054E0,4.764567057E0
4.791999500E0,1.457903820E-1,-4.799197264E0,-9.639900988E-1,4.897226371E0
4.802004500E0,3.500377178E-2,-5.042917691E0,-4.287137586E-1,5.061229059E0
4.812008500E0,-1.084059164E-1,-5.243798200E0,3.703977227E-2,5.245049413E0
4.822013500E0,-2.101375285E-1,-5.349905283E0,4.819503182E-1,5.375678602E0
4.832017500E0,-1.932668495E-1,-5.275073787E0,1.007103374E0,5.373826638E0
4.842021500E0,-5.495417923E-2,-5.097886781E0,1.467361692E0,5.305150320E0
4.852026500E0,6.399572879E-2,-4.892562095E0,1.748442611E0,5.195989884E0
4.862030500E0,6.609984934E-2,-4.632988990E0,1.854278383E0,4.990721841E0
4.872035500E0,5.401540875E-2,-4.307329776E0,1.912549396E0,4.713157397E0
4.882039500E0,1.180418354E-1,-4.097163596E0,1.884425458E0,4.511290582E0
4.892044500E0,2.112093231E-1,-4.014480458E0,1.810497356E0,4.408918621E0
4.902048500E0,3.930656236E-1,-3.921820509E0,1.830112426E0,4.345628629E0
4.912053500E0,7.070786458E-1,-3.823401344E0,1.884375756E0,4.320790442E0
4.922057500E0,1.068130764E0,-3.786436124E0,1.996870338E0,4.411971555E0
4.932061500E0,1.254518364E0,-3.688218396E0,2.054113410E0,4.404106398E0
4.942066500E0,1.275220139E0,-3.398279238E0,2.024709517E0,4.156192586E0
4.952070500E0,1.282992258E0,-3.060380340E0,2.025631623E0,3.887824640E0
4.962075500E0,1.290179948E0,-2.777290025E0,2.034091374E0,3.676334030E0
4.972079500E0,1.255787502E0,-2.567031460E0,1.944485718E0,3.456541259E0
4.982084500E0,1.128333696E0,-2.408704355E0,1.725203437E0,3.170381759E0
4.992088500E0,9.054468986E-1,-2.304216950E0,1.478703536E0,2.883715309E0
5.002093500E0,7.276444727E-1,-2.286161333E0,1.249827143E0,2.705192785E0
5.012097500E0,6.270399114E-1,-2.344631150E0,1.110584473E0,2.669058290E0
5.022101500E0,5.338873342E-1,-2.426857036E0,1.021164173E0,2.686530667E0
5.032106500E0,4.500166270E-1,-2.477766988E0,8.455483139E-1,2.656463093E0
5.042110500E0,3.408654830E-1,-2.417564348E0,5.727306801E-1,2.507753394E0
5.052115500E0,2.451968488E-1,-2.230213712E0,3.443197256E-1,2.269918670E0
5.062119500E0,1.732585546E-1,-2.012732373E0,2.529932338E-1,2.035955723E0
5.072124500E0,1.705512938E-1,-1.731915894E0,3.819576681E-1,1.781716046E0
5.082128500E0,2.660629302E-1,-1.439986928E0,5.508539075E-1,1.564542062E0
5.092133500E0,3.191600338E-1,-1.167198531E0,6.430978274E-1,1.370324908E0
5.102137500E0,3.458084267E-1,-8.946552774E-1,7.015226215E-1,1.188328878E0
5.112141500E0,4.195654973E-1,-6.077104783E-1,7.095099181E-1,1.024085717E0
5.122146500E0,5.218599039E-1,-3.084808253E-1,6.104528224E-1,8.603201888E-1
5.132150500E0,5.520961484E-1,-6.910151750E-2,4.042969555E-1,6.877799103E-1
5.142155500E0,5.065670961E-1,9.884454936E-2,1.473118275E-1,5.367320023E-1
5.152159500E0,4.873142615E-1,2.718266769E-1,-2.432780850E-1,6.087274910E-1
5.162164500E0,4.114972168E-1,3.915607696E-1,-6.773613417E-1,8.840068908E-1
5.172168500E0,2.269301471E-1,4.643171623E-1,-1.045264058E0,1.166046598E0
5.182173500E0,1.175951082E-1,4.965264767E-1,-1.283857353E0,1.381541478E0
5.192177500E0,-1.297029376E-2,4.951395902E-1,-1.387725538E0,1.473469922E0
5.202181500E0,-2.272236773E-1,5.385303158E-1,-1.232346307E0,1.363936553E0
5.212186500E0,-2.619871286E-1,6.200777780E-1,-8.444747651E-1,1.079940431E0
5.222190500E0,-2.128655469E-1,7.115620715E-1,-3.699615204E-1,8.297613207E-1
5.232195500E0,-2.210361537E-1,9.042040730E-1,1.162777305E-2,9.309012794E-1
5.242199500E0,-2.502055737E-1,1.168170192E0,4.005833888E-1,1.260036300E0
5.252204500E0,-1.974484858E-1,1.506001408E0,8.277885658E-1,1.729815035E0
5.262208500E0,-1.375092629E-1,1.872144843E0,1.168661942E0,2.211245316E0
5.272213500E0,-1.013901347E-1,2.276299126E0,1.321474246E0,2.634029585E0
5.282217500E0,-9.400393188E-2,2.691819520E0,1.213647496E0,2.954262905E0
5.292221500E0,-7.772206753E-2,3.053630899E0,9.574505728E-1,3.201158226E0
5.302226500E0,-1.456091183E-1,3.437093933E0,7.788549721E-1,3.527241385E0
5.312230500E0,-1.966126263E-1,3.752728388E0,7.019061989E-1,3.822865311E0
5.322235500E0,-2.456719351E-1,3.975816622E0,5.810927832E-1,4.025560996E0
5.332239500E0,-2.581411225E-1,4.095981289E0,4.691010618E-1,4.130829864E0
5.342244500E0,-2.081868973E-1,4.121712254E0,4.733812237E-1,4.154027379E0
5.352248500E0,-1.264659190E-1,4.061625096E0,7.654952538E-1,4.135066509E0
5.362252500E0,-8.527403891E-2,3.967847452E0,1.296842850E0,4.175270822E0
5.372257500E0,-9.457783610E-2,3.870904709E0,2.072822746E0,4.391974769E0
5.382261500E0,-8.438730866E-2,3.788080946E0,3.063258632E0,4.872394885E0
5.392266500E0,-3.086482018E-2,3.676266103E0,4.094896338E0,5.503095594E0
5.402270500E0,-5.010800689E-2,3.561029177E0,4.927760287E0,6.079988574E0
5.412275500E0,-2.462040317E-1,3.421218157E0,5.240662923E0,6.263377522E0
5.422279500E0,-5.889827237E-1,3.279877799E0,4.893257622E0,5.920174759E0
5.432284500E0,-9.152421543E-1,3.237819069E0,3.999813010E0,5.226819744E0
5.442288500E0,-1.252771801E0,3.318389608E0,2.895188604E0,4.578565695E0
5.452292500E0,-1.514718584E0,3.488542706E0,1.810630673E0,4.212206789E0
5.462297500E0,-1.627304382E0,3.727753175E0,1.057142676E0,4.202596094E0
5.472301500E0,-1.527017325E0,3.979799745E0,7.091742879E-1,4.321286393E0
5.482306500E0,-1.259671223E0,4.225404145E0,7.917410660E-1,4.479694821E0
5.492310500E0,-9.841445741E-1,4.364519638E0,1.186815208E0,4.628833822E0
5.502315500E0,-7.225319597E-1,4.359861453E0,1.900041617E0,4.810468010E0
5.512319500E0,-5.219093129E-1,4.193178093E0,2.714730665E0,5.022439092E0
5.522324500E0,-5.610418037E-1,3.972486632E0,3.719485797E0,5.470831065E0
5.532328500E0,-6.565011075E-1,3.731694199E0,4.729504593E0,6.060094801E0
5.542332500E0,-8.032010239E-1,3.587121792E0,5.568577700E0,6.672453240E0
5.552337500E0,-8.990266559E-1,3.576885071E0,5.966121122E0,7.014054247E0
5.562341500E0,-8.148361060E-1,3.618763415E0,5.652892211E0,6.761257049E0
5.572346500E0,-7.737845591E-1,3.668251032E0,4.658983079E0,5.980044440E0
5.582350500E0,-7.895492372E-1,3.734230721E0,3.204827909E0,4.983852827E0
5.592355500E0,-8.123954782E-1,3.799727138E0,1.623975855E0,4.211319308E0
5.602359500E0,-7.818554708E-1,3.800172111E0,2.413333011E-1,3.887267396E0
5.612364500E0,-6.952172765E-1,3.679853370E0,-7.741742760E-1,3.824133064E0
5.622368500E0,-5.445044160E-1,3.393032239E0,-1.461865894E0,3.734461772E0
5.632372500E0,-3.148307553E-1,2.939556692E0,-1.744642505E0,3.432767021E0
5.642377500E0,2.451445162E-3,2.308641830E0,-1.724193038E0,2.881436229E0
5.652381500E0,2.197795871E-1,1.648130995E0,-1.591508605E0,2.301638217E0
5.662386500E0,2.071577874E-1,9.903251541E-1,-1.356696703E0,1.692419630E0
5.672390500E0,1.349829733E-3,3.895857994E-1,-1.156843550E0,1.220682562E0
5.682395500E0,-1.077036658E-1,-1.838815202E-1,-1.143014885E0,1.162710420E0
5.692399500E0,-3.036929789E-1,-5.902487555E-1,-1.285766469E0,1.447003259E0
5.702403500E0,-5.970129973E-1,-8.145565360E-1,-1.469183099E0,1.782814025E0
5.712408500E0,-8.166724241E-1,-9.752274241E-1,-1.649890130E0,2.083305022E0
5.722412500E0,-9.786540386E-1,-1.040885224E0,-1.731185138E0,2.244595233E0
5.732416833E0,-1.202374649E0,-9.584580481E-1,-1.602915353E0,2.221189829E0
5.742420833E0,-1.408592497E0,-7.853421655E-1,-1.378892149E0,2.121847944E0
5.752425833E0,-1.392850915E0,-5.924589664E-1,-1.046272702E0,1.840034746E0
5.762429833E0,-1.177607890E0,-5.205195759E-1,-7.762634861E-1,1.503424748E0
5.772434833E0,-1.009079441E0,-5.034998661E-1,-6.098417884E-1,1.282053212E0
5.782438833E0,-9.235244429E-1,-4.905205822E-1,-4.675714302E-1,1.145482815E0
5.792442833E0,-8.665480042E-1,-5.308685629E-1,-3.318505383E-1,1.069042401E0
5.802447833E0,-8.085190666E-1,-5.307245752E-1,-2.196997726E-1,9.917860887E-1
5.812451833E0,-7.121780026E-1,-4.862787196E-1,-2.053612304E-1,8.864748927E-1
5.822456833E0,-5.631085020E-1,-3.997024327E-1,-2.800138021E-1,7.451583383E-1
5.832460833E0,-4.209451479E-1,-3.020931807E-1,-3.932568276E-1,6.504660174E-1
5.842465833E0,-2.809768385E-1,-1.788408914E-1,-3.901928866E-1,5.130131937E-1
5.852469833E0,-5.016414016E-2,-5.866759971E-2,-1.934796882E-1,2.083091883E-1
5.862473833E0,2.570924243E-1,-4.116235167E-2,1.110900807E-1,2.830757140E-1
5.872478833E0,4.128295049E-1,-1.512990439E-1,1.339006537E-1,4.596183045E-1
5.882482833E0,4.870803729E-1,-4.516965321E-1,-1.062263668E-1,6.727266070E-1
5.892487833E0,4.014759663E-1,-7.511567116E-1,-4.787384427E-1,9.770413775E-1
5.902491833E0,2.685178837E-1,-1.094216362E0,-7.416561556E-1,1.348875515E0
5.912496833E0,1.346482202E-1,-1.531655044E0,-7.895238018E-1,1.728422735E0
5.922500833E0,1.018760383E-2,-1.876702894E0,-6.676555485E-1,1.991954184E0
5.932505833E0,-1.311375520E-1,-2.164081995E0,-3.897753954E-1,2.202810204E0
5.942509833E0,-2.583606854E-1,-2.389437779E0,-1.817606986E-2,2.403433692E0
5.952513833E0,-3.590722507E-1,-2.548252834E0,4.868672419E-1,2.619077146E0
5.962518833E0,-3.276493138E-1,-2.702957589E0,1.063811426E0,2.923188080E0
5.972522833E0,-3.120889959E-1,-2.800765719E0,1.607907121E0,3.244542104E0
5.982527833E0,-3.431602228E-1,-2.869146275E0,2.205890756E0,3.635342255E0
5.992531833E0,-1.939112127E-1,-3.012918198E0,2.679720461E0,4.036852657E0
6.002536833E0,1.377378890E-1,-3.220505756E0,3.037274190E0,4.428957389E0
6.012540833E0,4.346951678E-1,-3.453588051E0,3.422377076E0,4.881484934E0
6.022545833E0,7.255219334E-1,-3.665788769E0,3.723867116E0,5.275564015E0
6.032549833E0,9.380419099E-1,-3.813474526E0,3.851613575E0,5.500676115E0
6.042553833E0,8.125314260E-1,-3.817967527E0,3.843181306E0,5.477876039E0
6.052558833E0,4.369738278E-1,-3.556328308E0,3.779877010E0,5.208251853E0
6.062562833E0,9.715499640E-2,-3.117200073E0,3.739628286E0,4.869414247E0
6.072567833E0,-1.295187503E-2,-2.643734357E0,3.463728585E0,4.357397711E0
6.082571833E0,-1.350122094E-3,-2.213552948E0,2.915920492E0,3.660930317E0
6.092576833E0,5.266587138E-2,-1.829351411E0,2.177437035E0,2.844386106E0
6.102580833E0,1.452398667E-1,-1.567231404E0,1.315693104E0,2.051428097E0
6.112584833E0,1.682808200E-1,-1.340967840E0,5.245800287E-1,1.449723211E0
6.122589833E0,1.510227630E-1,-1.177353390E0,-8.223407149E-2,1.189845083E0
6.132593833E0,2.742674509E-1,-1.159130835E0,-5.083159983E-1,1.295064508E0
6.142598833E0,4.987204251E-1,-1.271492685E0,-7.178924865E-1,1.542979369E0
6.152602833E0,6.592177239E-1,-1.491855824E0,-8.081506920E-1,1.820249804E0
6.162607833E0,6.626941860E-1,-1.572602364E0,-7.058261722E-1,1.846735597E0
6.172611833E0,7.352060920E-1,-1.524430955E0,-5.523086947E-1,1.780298466E0
6.182616833E0,7.432506913E-1,-1.428698294E0,-4.867807031E-1,1.682425587E0
6.192620833E0,5.541061288E-1,-1.284524959E0,-3.329913300E-1,1.438026842E0
6.202624833E0,3.959316364E-1,-1.045717071E0,-1.681694305E-1,1.130737374E0
6.212629833E0,1.122834975E-1,-8.071125919E-1,-1.060877877E-1,8.217620937E-1
6.222633833E0,2.299300611E-2,-7.408472664E-1,-3.440080690E-1,8.171443581E-1
6.232638833E0,1.610785121E-1,-9.264744363E-1,-4.437598139E-1,1.039819186E0
6.242642833E0,4.154183596E-2,-1.107838474E0,-5.944267738E-1,1.257924878E0
6.252647833E0,-3.518933317E-1,-9.992493939E-1,-9.892646885E-1,1.449473315E0
6.262651833E0,-3.212694168E-1,-5.290012546E-1,-8.789078486E-1,1.074958312E0
6.272655833E0,-4.308649492E-1,-1.417022738E-1,-5.144853956E-1,6.858712424E-1
6.282660833E0,-4.993538247E-1,-9.750539993E-2,1.194843435E-1,5.226261126E-1
6.292664833E0,-8.945260540E-2,-4.311074625E-1,1.064344692E0,1.151818143E0
6.302669833E0,5.130939044E-1,-9.234475520E-1,1.958706146E0,2.225432656E0
6.312673833E0,1.023741041E0,-1.317681742E0,2.447440404E0,2.962143721E0
6.322678833E0,1.321503190E0,-1.298438263E0,2.169501194E0,2.852901687E0
6.332682833E0,1.196144660E0,-9.745390606E-1,1.490062922E0,2.144941943E0
6.342687833E0,7.366618294E-1,-5.857754893E-1,4.906731945E-1,1.061397079E0
6.352691833E0,2.127165343E-1,-1.880492511E-1,-4.085239077E-1,4.974963597E-1
6.362695833E0,1.386093160E-1,3.047224909E-1,-5.939566576E-1,6.818011808E-1
6.372700833E0,3.451342062E-1,8.310991131E-1,-5.813009441E-1,1.071332882E0
6.382704833E0,5.998964055E-1,1.276880017E0,-5.861810303E-1,1.527712825E0
6.392709833E0,9.978357565E-1,1.721351291E0,-5.341735554E-1,2.060113553E0
6.402713833E0,1.628320920E0,1.947069018E0,-6.753826439E-1,2.626527840E0
6.412718833E0,1.858416750E0,1.883924059E0,-1.050042402E0,2.847011016E0
6.422722833E0,1.650845272E0,1.774491518E0,-1.317767111E0,2.758735293E0
6.432726833E0,1.141337100E0,1.594598566E0,-1.537343507E0,2.491750393E0
6.442731833E0,8.397918031E-1,8.518498582E-1,-1.872264419E0,2.221772380E0
6.452735833E0,7.246191233E-1,5.346320867E-1,-1.629281033E0,1.861574878E0
6.462740833E0,1.379483888E-1,1.262386377E0,-4.781297475E-1,1.356929320E0
6.472744833E0,-9.854429483E-2,1.180791187E0,-9.733742952E-2,1.188887455E0
6.482749833E0,3.299364522E-2,5.781867536E-1,-5.945203292E-1,8.299656165E-1
6.492753833E0,2.022709769E-1,2.645179679E-1,-9.122948653E-1,9.711669396E-1
6.502758833E0,2.700961934E-1,1.471101717E-1,-1.043717469E0,1.088089845E0
6.512762833E0,5.745254830E-2,1.262431858E-1,-7.645801646E-1,7.770591775E-1
6.522766833E0,-7.282920519E-1,3.867523849E-1,2.044069648E-1,8.495698484E-1
6.532771833E0,-1.713223954E0,1.363539115E0,1.661706768E0,2.748753284E0
6.542775833E0,-1.766162598E0,1.558002597E0,1.469090129E0,2.775775247E0
6.552780833E0,-8.419471599E-1,6.212076062E-1,2.816861057E-1,1.083568628E0
6.562784833E0,-5.093687895E-1,-2.812248700E-1,-1.450565565E-1,5.996543970E-1
6.572789833E0,-6.033695785E-1,-8.038002905E-1,1.292068014E0,1.636945175E0
6.582793833E0,-1.372011877E-1,-6.810244031E-1,1.918422339E0,2.040333961E0
6.592797833E0,6.696639208E-1,-4.664512133E-2,2.750982817E0,2.831701255E0
6.602802833E0,2.622417748E-1,8.898062546E-2,1.495827107E0,1.521245225E0
6.612806833E0,-6.767349587E-1,1.795705508E-1,-2.145355117E-1,7.322849670E-1
6.622811833E0,-7.049348373E-1,9.719202389E-1,-1.286083973E0,1.759424355E0
6.632815833E0,3.764062850E-1,1.786181710E0,-1.018099648E0,2.090132456E0
6.642820833E0,1.017191794E0,1.531851218E0,-9.645274580E-1,2.076429753E0
6.652824833E0,1.023289783E-1,5.918563378E-1,-9.224707747E-1,1.100780393E0
6.662828833E0,-1.528433520E0,5.774812505E-2,1.620889109E-1,1.538088647E0
6.672833833E0,-1.408932366E0,-4.569248199E-1,1.522478716E0,2.124102668E0
6.682837833E0,-7.990622185E-1,-1.308318888E0,2.355856050E0,2.810739488E0
6.692842833E0,-1.654449788E0,-1.894065908E0,2.524489750E0,3.563388593E0
6.702846833E0,-2.135999572E0,-2.019713071E0,2.266461478E0,3.711951333E0
6.712851833E0,-2.314559797E0,-1.789877735E0,1.703768129E0,3.385804956E0
6.722855833E0,-2.347436937E0,-1.622156201E0,4.706675309E-1,2.891950698E0
6.732861333E0,-2.623889200E0,-1.472722419E0,-7.929432535E-1,3.111665930E0
6.742865333E0,-4.165286874E0,-1.277450852E0,-1.741455773E0,4.691925365E0
6.752869333E0,-4.045703713E0,-1.357798319E0,-2.509377621E0,4.950586920E0
6.762874333E0,-3.330645956E0,-1.390350061E0,-3.417530318E0,4.970491853E0
6.772878333E0,-3.854874567E0,-1.021893102E0,-4.011137313E0,5.656283761E0
6.782883333E0,-4.050330614E0,-6.758624080E-1,-4.538830984E0,6.120698880E0
6.792887333E0,-3.852212330E0,-6.372405984E-1,-4.782185667E0,6.173727818E0
6.802892333E0,-3.205475780E0,-7.921307829E-1,-4.652292695E0,5.704942899E0
6.812896333E0,-2.656737980E0,-9.060477000E-1,-3.738817277E0,4.675246920E0
6.822900333E0,-2.658666392E0,-8.644443952E-1,-9.204838908E-1,2.943307950E0
6.832905333E0,-1.309972773E0,-2.465322432E-1,-1.019263244E0,1.678006070E0
6.842909333E0,-1.276943021E0,-4.593268379E-2,-1.274689504E0,1.804861940E0
6.852914333E0,-1.395851998E0,-2.045971820E-1,-9.214276314E-2,1.413772647E0
6.862918333E0,-2.137285375E0,-5.216323742E-1,-8.266834420E-1,2.350211612E0
6.872923333E0,-2.755269411E0,-1.204222515E0,-1.022697898E0,3.176093888E0
6.882927333E0,-1.791686279E0,-1.318177586E0,-1.234285244E0,2.543853756E0
6.892931333E0,-6.339574599E-1,-7.318693784E-1,-6.089898491E-1,1.143854660E0
6.902936333E0,-4.158709341E-1,-3.108248278E-1,7.335443133E-1,8.986923651E-1
6.912940333E0,-9.269298613E-2,-1.416071378E-1,1.988012976E0,1.995204291E0
6.922945333E0,5.329614276E-1,9.118323505E-2,2.699569420E0,2.753186757E0
6.932949333E0,8.131383669E-1,2.947148716E-1,3.144581999E0,3.261356591E0
6.942954333E0,7.799618500E-1,3.568001689E-1,3.334585226E0,3.443124377E0
6.952958333E0,6.952824730E-1,4.630335523E-1,3.182342733E0,3.290155477E0
6.962962333E0,7.095058250E-1,7.221739639E-1,2.735125461E0,2.916478191E0
6.972967333E0,9.775877988E-1,1.145798306E0,1.802740440E0,2.349128510E0
6.982971333E0,1.317589356E0,1.689043963E0,8.057837391E-1,2.288711133E0
6.992976333E0,1.638296270E0,1.960624472E0,-1.938857773E-1,2.562353349E0
7.002980333E0,1.806977332E0,1.884786085E0,-1.071752822E0,2.822452794E0
7.012985333E0,1.739936666E0,1.682382815E0,-1.401173842E0,2.796619329E0
7.022989333E0,1.602062829E0,1.412473440E0,-1.279294186E0,2.489634540E0
7.032993333E0,1.385216498E0,1.242698656E0,-8.896705261E-1,2.062677469E0
7.042998333E0,1.386681225E0,1.103247533E0,-5.215485397E-1,1.847174280E0
7.053002333E0,1.680791495E0,9.948413242E-1,-3.668095788E-1,1.987289253E0
7.063007333E0,1.623349618E0,8.603619424E-1,-2.796799260E-1,1.858415323E0
7.073011333E0,1.388695591E0,6.333113426E-1,-3.014760071E-1,1.555778417E0
7.083016333E0,1.152526551E0,2.575664873E-1,-3.529335514E-1,1.232566443E0
7.093020333E0,9.642274958E-1,-2.899834509E-1,-1.327718487E-1,1.015604957E0
7.103025333E0,7.770078367E-1,-7.122421758E-1,3.464650691E-1,1.109535101E0
7.113029333E0,8.575427073E-1,-8.151028852E-1,8.100530836E-1,1.433861293E0
7.123033333E0,1.217777385E0,-6.777916237E-1,1.228063222E0,1.857558214E0
7.133038333E0,1.495874469E0,-5.943319758E-1,1.660724728E0,2.312764049E0
7.143042333E0,1.782886804E0,-5.382572508E-1,1.912141260E0,2.669211573E0
7.153047333E0,1.947279518E0,-5.234905462E-1,1.908865065E0,2.776635682E0
7.163051333E0,1.787846997E0,-6.108736758E-1,1.795049889E0,2.606102001E0
7.173056333E0,1.352754511E0,-7.253286099E-1,1.730236720E0,2.312956002E0
7.183060333E0,9.718902719E-1,-7.844894953E-1,1.717402666E0,2.123550420E0
7.193064333E0,9.689105308E-1,-7.011921807E-1,1.673316122E0,2.056804545E0
7.203069333E0,9.914883846E-1,-4.014306504E-1,1.685597321E0,1.996355207E0
7.213073333E0,9.862381697E-1,-1.285618535E-1,1.682743295E0,1.954691504E0
7.223078333E0,1.080363139E0,8.960931078E-2,1.610208878E0,1.941130333E0
7.233082333E0,1.346309710E0,2.952903838E-1,1.531227027E0,2.060194761E0
7.243087333E0,1.686201923E0,4.754753309E-1,1.619314454E0,2.385693404E0
7.253091333E0,1.715398241E0,6.263422655E-1,1.869031493E0,2.613077588E0
7.263095333E0,1.639720652E0,6.903053230E-1,1.911701257E0,2.611476010E0
7.273100333E0,1.789553799E0,6.930774149E-1,1.801709868E0,2.632302709E0
7.283104333E0,1.425974514E0,7.343805382E-1,1.548769552E0,2.229664821E0
7.293109333E0,8.703720832E-1,7.888605083E-1,1.123437530E0,1.625410825E0
7.303113333E0,9.902949679E-1,9.668784041E-1,7.050832835E-1,1.553280531E0
7.313118333E0,1.534714015E0,1.374347109E0,7.577906701E-1,2.195090837E0
7.323122333E0,1.155755383E0,1.441143654E0,1.336379383E0,2.280038463E0
7.333126333E0,1.130452142E0,1.427725463E0,1.437219295E0,2.319896840E0
7.343131333E0,1.787794372E0,1.031893229E0,1.106705138E0,2.342180312E0
7.353135333E0,2.456233447E0,1.430617058E-1,9.940520963E-1,2.653618090E0
7.363140333E0,4.816474324E-1,7.341336396E-1,1.015615166E0,1.342538869E0
7.373144333E0,-1.370169858E0,1.278724814E0,8.561738741E-1,2.060469920E0
7.383149333E0,-2.761607208E0,1.353550463E0,6.000130574E-1,3.133462765E0
7.393153333E0,-3.521165784E0,1.095182395E0,3.291144799E-1,3.702208705E0
7.403157333E0,-3.726715879E0,6.164573282E-1,3.486928582E-2,3.777518597E0
7.413162333E0,-3.495029315E0,-1.092091046E-1,1.137884246E-1,3.498586049E0
7.423166333E0,-2.898255469E0,-7.357507601E-1,6.614019513E-2,2.990917663E0
7.433171333E0,-2.166016254E0,-7.160832117E-1,-4.840507843E-1,2.332103501E0
7.443175333E0,-1.709673232E0,-6.791668157E-1,-4.882695504E-1,1.903327948E0
7.453180333E0,-1.479975890E0,-8.938890729E-1,-4.296300173E-1,1.781557819E0
7.463184333E0,-1.253655315E0,-1.188773295E0,-2.354013008E-1,1.743630513E0
7.473188333E0,-1.171633497E0,-1.450895640E0,4.705999956E-2,1.865485957E0
7.483193333E0,-1.327958223E0,-1.548209096E0,2.205049342E-1,2.051596177E0
7.493197333E0,-1.543818714E0,-1.728167244E0,3.006133966E-1,2.336729907E0
7.503202333E0,-1.758301601E0,-2.044593266E0,3.145989132E-1,2.714950942E0
7.513206333E0,-1.890531120E0,-2.294541562E0,3.130230886E-1,2.989483626E0
7.523211333E0,-1.867982503E0,-2.395117472E0,2.390908939E-1,3.046819783E0
7.533215333E0,-1.924868309E0,-2.441422304E0,-5.145140469E-2,3.109390313E0
7.543219333E0,-2.224239904E0,-2.423263045E0,-3.568754518E-1,3.308595929E0
7.553224333E0,-2.503612266E0,-2.270376189E0,-5.670759840E-1,3.426989582E0
7.563228333E0,-2.609684851E0,-2.115736339E0,-7.375851779E-1,3.439596949E0
7.573233333E0,-2.444206309E0,-2.046866956E0,-8.883788761E-1,3.309535594E0
7.583237333E0,-2.213449452E0,-2.184300936E0,-8.773004490E-1,3.231127533E0
7.593242333E0,-1.752901697E0,-2.536081270E0,-6.318916386E-1,3.147008041E0
7.603246333E0,-7.194876069E-1,-3.115096537E0,-2.732207993E-1,3.208759645E0
7.613250333E0,3.880159682E-1,-3.718664263E0,2.198395211E-1,3.745310362E0
7.623255333E0,1.250919988E0,-4.223447959E0,6.241046092E-1,4.448799843E0
7.633259333E0,1.843374496E0,-4.413803480E0,7.666190886E-1,4.844315794E0
7.643264333E0,1.879603844E0,-4.372572423E0,5.741685104E-1,4.793951364E0
7.653268333E0,1.662797858E0,-4.319021283E0,1.239377292E-1,4.629708644E0
7.663273333E0,1.504187456E0,-4.342846348E0,-2.723266138E-1,4.604026074E0
7.673277333E0,1.376964322E0,-4.374628304E0,-4.928179532E-1,4.612621064E0
7.683281333E0,9.240179479E-1,-4.295744980E0,-6.476336588E-1,4.441470866E0
7.693286333E0,3.235147476E-1,-4.223243891E0,-7.513081545E-1,4.301733918E0
7.703290333E0,1.901596391E-1,-4.221560770E0,-7.094783431E-1,4.284984894E0
7.713295333E0,4.445076728E-1,-4.220431380E0,-4.760127631E-1,4.270388303E0
7.723299333E0,7.553023875E-1,-4.175555170E0,-9.227549493E-2,4.244320610E0
7.733303833E0,8.871413130E-1,-3.903544159E0,4.393510133E-1,4.027121307E0
7.743307833E0,8.064930063E-1,-3.456371033E0,8.760007592E-1,3.655722776E0
7.753311833E0,6.231412804E-1,-2.928878506E0,1.175209070E0,3.216791992E0
7.763316833E0,3.963447422E-1,-2.453961804E0,1.371486066E0,2.839012455E0
7.773320833E0,1.244819587E-1,-1.975901346E0,1.576858991E0,2.531040530E0
7.783325833E0,-8.722817838E-2,-1.343061143E0,1.792862738E0,2.241824879E0
7.793329833E0,-2.231022674E-1,-6.761788885E-1,1.932275708E0,2.059291607E0
7.803334833E0,-1.993988246E-1,-7.860821307E-2,2.070149253E0,2.081215287E0
7.813338833E0,-1.857251108E-2,4.090143429E-1,2.075687297E0,2.115683205E0
7.823342833E0,2.991476458E-1,7.697134352E-1,1.848526623E0,2.024598420E0
7.833347833E0,6.740091330E-1,1.022352474E0,1.599349721E0,2.014301969E0
7.843351833E0,9.621488106E-1,1.293420475E0,1.299855335E0,2.070818860E0
7.853356833E0,1.142292754E0,1.563804789E0,9.002776676E-1,2.135607182E0
7.863360833E0,1.321699948E0,1.726659978E0,4.534017994E-1,2.221220076E0
7.873365833E0,1.354868279E0,1.769525624E0,1.081325591E-2,2.228678064E0
7.883369833E0,1.115083321E0,1.764946377E0,-3.746679443E-1,2.121042808E0
7.893373833E0,6.752101511E-1,1.733662603E0,-7.157154219E-1,1.993425026E0
7.903378833E0,1.446338028E-1,1.746713296E0,-9.362983433E-1,1.987103637E0
7.913382833E0,-3.423860514E-1,1.797467713E0,-1.010721046E0,2.090376861E0
7.923387833E0,-6.943820018E-1,1.895721986E0,-9.129450756E-1,2.215715894E0
7.933391833E0,-8.043967795E-1,2.088395928E0,-7.759635240E-1,2.368664417E0
7.943396833E0,-7.452410835E-1,2.272846638E0,-6.012142217E-1,2.466307899E0
7.953400833E0,-5.296431327E-1,2.429207909E0,-4.210019390E-1,2.521669198E0
7.963404833E0,-7.243004501E-2,2.638690841E0,-1.322439913E-1,2.642995259E0
7.973409833E0,4.177402890E-1,2.873601269E0,1.706708694E-1,2.908817585E0
7.983413833E0,7.532289648E-1,2.990416358E0,4.456775545E-1,3.115858205E0
7.993418833E0,9.318035156E-1,3.039321593E0,7.290331864E-1,3.261475574E0
8.003422833E0,1.070027016E0,3.056834004E0,1.028986579E0,3.398235619E0
8.013427833E0,1.224610441E0,3.019978419E0,1.367573840E0,3.534147505E0
8.023431833E0,1.336874642E0,3.004855472E0,1.630404283E0,3.670777622E0
8.033435833E0,1.456936106E0,3.104994888E0,1.748236789E0,3.849673744E0
8.043440833E0,1.607800117E0,3.299126833E0,1.720462514E0,4.053301165E0
8.053444833E0,1.890630523E0,3.590904063E0,1.664044484E0,4.386128112E0
8.063449833E0,2.163613633E0,3.898087538E0,1.507655439E0,4.706308036E0
8.073453833E0,2.408016137E0,4.164241977E0,1.277825950E0,4.977177123E0
8.083458833E0,2.573847851E0,4.407185601E0,9.541954279E-1,5.192154331E0
8.093462833E0,2.624230385E0,4.538844432E0,5.716713108E-1,5.273945580E0
8.103466833E0,2.619362578E0,4.576349643E0,1.725921182E-1,5.275777138E0
8.113471833E0,2.520117202E0,4.504959233E0,-1.422862919E-1,5.163902961E0
8.123475833E0,2.190118477E0,4.335103465E0,-3.647623225E-1,4.870604947E0
8.133480833E0,1.858909378E0,4.131843140E0,-5.229944099E-1,4.560832704E0
8.143484833E0,1.878913872E0,3.907404783E0,-6.561897433E-1,4.385055810E0
8.153489833E0,2.041532541E0,3.503895155E0,-9.158166432E-1,4.157385777E0
8.163493833E0,2.082654839E0,2.944125414E0,-1.162069792E0,3.788895859E0
8.173497833E0,2.067925118E0,2.415401756E0,-1.306140507E0,3.437511158E0
8.183502833E0,2.020712360E0,2.032428719E0,-1.306469998E0,3.149747418E0
8.193506833E0,2.066887822E0,1.727821527E0,-1.213986196E0,2.954852786E0
8.203511833E0,2.266526383E0,1.458213723E0,-1.064332559E0,2.897642645E0
8.213515833E0,2.621514938E0,1.219009393E0,-8.358723414E-1,3.009486175E0
8.223520833E0,2.937720081E0,1.077809952E0,-4.651454204E-1,3.163579275E0
8.233524833E0,3.104870342E0,9.943906501E-1,-1.779009515E-1,3.265069885E0
8.243528833E0,3.321727198E0,8.704729477E-1,-3.199596405E-3,3.433890646E0
8.253533833E0,3.536449236E0,7.504111916E-1,1.751572917E-1,3.619429545E0
8.263537833E0,3.656745173E0,5.819207489E-1,3.430941492E-1,3.718619450E0
8.273542833E0,3.612005203E0,3.339523199E-1,4.203873235E-1,3.651688820E0
8.283546833E0,3.584533814E0,1.962676406E-2,4.868596405E-1,3.617499162E0
8.293551833E0,3.654743671E0,-3.370612845E-1,5.778200966E-1,3.715459282E0
8.303555833E0,3.430245674E0,-4.762402198E-1,7.527791677E-1,3.544018426E0
8.313559833E0,2.958658960E0,-3.485955021E-1,1.070991075E0,3.165786403E0
8.323564833E0,2.464845811E0,-2.523482859E-2,1.379870389E0,2.824914859E0
8.333568833E0,2.109090101E0,2.858037150E-1,1.643063359E0,2.688791926E0
8.343573833E0,1.836170726E0,5.439340201E-1,1.845588251E0,2.659620865E0
8.353577833E0,1.592434804E0,7.550360468E-1,1.872323475E0,2.571288244E0
8.363582833E0,1.375062223E0,7.772174594E-1,1.787113756E0,2.385086722E0
8.373586833E0,1.201877051E0,6.181802103E-1,1.654732794E0,2.136538283E0
8.383590833E0,1.005686594E0,3.398998153E-1,1.480229074E0,1.821542072E0
8.393595833E0,6.760515654E-1,-4.518318951E-2,1.273146862E0,1.442217103E0
8.403599833E0,3.271446991E-1,-4.382593381E-1,1.075132220E0,1.206235546E0
8.413604833E0,3.087856114E-2,-7.876915768E-1,9.087904827E-1,1.203042662E0
8.423608833E0,-1.052574831E-1,-1.085668902E0,8.737997210E-1,1.397598675E0
8.433613833E0,-1.979569012E-1,-1.277344578E0,8.708777212E-1,1.558596841E0
8.443617833E0,-2.439201093E-1,-1.371335062E0,9.016862619E-1,1.659245306E0
8.453621833E0,-2.310404474E-1,-1.440142610E0,9.572611231E-1,1.744631561E0
8.463626833E0,-2.160031629E-1,-1.457241038E0,9.832028800E-1,1.771128655E0
8.473630833E0,-2.225988221E-1,-1.427345248E0,9.736799584E-1,1.742101419E0
8.483635833E0,-2.240033233E-1,-1.409520011E0,9.435141729E-1,1.710889577E0
8.493639833E0,-3.467398882E-1,-1.403969542E0,8.702789663E-1,1.687822415E0
8.503643833E0,-5.749976456E-1,-1.356909250E0,7.687128304E-1,1.662150541E0
8.513648833E0,-8.287182730E-1,-1.315221087E0,7.262298851E-1,1.715806029E0
8.523652833E0,-1.132157775E0,-1.251667262E0,7.351809490E-1,1.840908251E0
8.533657833E0,-1.403435252E0,-1.247773601E0,6.621188200E-1,1.991223443E0
8.543661833E0,-1.640427580E0,-1.339093515E0,5.805022144E-1,2.195713303E0
8.553666833E0,-1.803951983E0,-1.517192248E0,4.675508188E-1,2.403064469E0
8.563670833E0,-1.935113801E0,-1.725501352E0,3.745526080E-1,2.619601114E0
8.573674833E0,-2.145915281E0,-1.930041634E0,2.620757139E-1,2.898050513E0
8.583679833E0,-2.397414551E0,-2.120850606E0,1.654270864E-1,3.205147413E0
8.593683833E0,-2.529600216E0,-2.319178221E0,9.527409330E-2,3.433153365E0
8.603688833E0,-2.608665097E0,-2.566127772E0,8.208730638E-2,3.660175359E0
8.613692833E0,-2.662789848E0,-2.815498656E0,8.823273003E-2,3.876243990E0
8.623697833E0,-2.710511314E0,-3.036750864E0,1.077023502E-1,4.071894792E0
8.633701833E0,-2.793188020E0,-3.210493861E0,1.339483085E-1,4.257594661E0
8.643705833E0,-2.865302900E0,-3.302893317E0,1.680495626E-1,4.375763434E0
8.653710833E0,-2.905141734E0,-3.287694649E0,2.813311797E-1,4.396354380E0
8.663714833E0,-2.955914277E0,-3.161374910E0,3.918147580E-1,4.345715056E0
8.673719833E0,-3.009474773E0,-3.009362214E0,3.882869866E-1,4.273636172E0
8.683723833E0,-2.970199610E0,-2.923727694E0,3.435804914E-1,4.181903503E0
8.693728833E0,-2.962674828E0,-2.939664573E0,2.870994580E-1,4.183478939E0
8.703732833E0,-2.917561805E0,-2.952734269E0,1.660825592E-1,4.154321842E0
8.713736833E0,-2.711063291E0,-2.931818486E0,5.533073992E-2,3.993555471E0
8.723741833E0,-2.475462601E0,-2.998972004E0,1.643886209E-2,3.888703949E0
8.733745833E0,-2.238945651E0,-3.144691050E0,1.894775614E-2,3.860352114E0
8.743750833E0,-1.764168697E0,-3.313688739E0,-6.327827543E-2,3.754574329E0
8.753754833E0,-1.023817640E0,-3.447309603E0,-1.075912531E-1,3.597738448E0
8.763759833E0,-1.067109255E0,-3.733372642E0,2.799722868E-1,3.892965185E0
8.773763833E0,-1.150398749E0,-3.811150551E0,5.219334327E-1,4.015059191E0
8.783767833E0,-2.583340806E-1,-3.555198918E0,8.712304544E-1,3.669498378E0
8.793772833E0,5.159723425E-1,-3.440817440E0,8.807903597E-1,3.589044966E0
8.803776833E0,1.135169091E0,-3.469094574E0,4.141908829E-1,3.673524210E0
8.813781833E0,1.639362803E0,-3.637883225E0,-2.545433307E-1,3.998311777E0
8.823785833E0,1.769044105E0,-3.757508487E0,-7.619524258E-1,4.222435147E0
8.833789833E0,1.189832956E0,-3.672332681E0,-1.158322603E0,4.030315253E0
8.843794833E0,3.276031208E-1,-3.551704330E0,-1.659788004E0,3.934059439E0
8.853798833E0,1.977996111E-2,-3.544033952E0,-2.004448915E0,4.071656094E0
8.863803833E0,2.662751842E-1,-3.620291292E0,-1.877447391E0,4.086834988E0
8.873807833E0,5.242046374E-1,-3.569270827E0,-1.531382856E0,3.919134878E0
8.883812833E0,5.793818879E-1,-3.391288015E0,-1.113933904E0,3.616264165E0
8.893816833E0,6.940697604E-1,-3.154135180E0,-6.135003912E-1,3.287352171E0
8.903820833E0,1.048665968E0,-2.882923192E0,-1.180131841E-1,3.069995693E0
8.913825833E0,1.217697862E0,-2.489937968E0,3.055281276E-1,2.788534849E0
8.923829833E0,1.054818993E0,-2.087841758E0,7.438178712E-1,2.454585777E0
8.933834833E0,5.968445975E-1,-1.619756358E0,1.252281219E0,2.132613979E0
8.943838833E0,-1.496966729E0,-1.855562139E0,7.819028918E0,8.174425573E0
8.953843833E0,-1.390684229E-1,-9.868085656E-1,2.292493867E0,2.499731846E0
8.963847833E0,1.644848660E0,3.490594786E-1,1.531581076E0,2.274447236E0
8.973851833E0,1.109076476E-1,7.636861253E-1,2.973307113E0,3.071819036E0
8.983856833E0,3.418802673E-1,1.234781380E0,2.206090146E0,2.551156778E0
8.993860833E0,6.068526918E-1,1.725467146E0,1.443662196E0,2.330164715E0
9.003865833E0,3.557720822E-1,2.164144852E0,1.016733007E0,2.417404129E0
9.013869833E0,3.303875649E-1,2.416287316E0,6.274879543E-1,2.518202031E0
9.023874833E0,1.901754266E-1,2.471827094E0,1.032656291E-1,2.481281860E0
9.033878833E0,1.263127220E-1,2.379806830E0,-4.519786602E-1,2.425638094E0
9.043882833E0,6.166473627E-3,2.175419746E0,-8.701531050E-1,2.343001392E0
9.053887833E0,-1.062146723E-1,1.932352453E0,-1.184896152E0,2.269195111E0
9.063891833E0,-2.417829520E-1,1.780839401E0,-1.429817305E0,2.296568199E0
9.073896833E0,-3.993946499E-1,1.666873952E0,-1.602753531E0,2.346657994E0
9.083900833E0,-5.850712287E-1,1.510746278E0,-1.597672155E0,2.275350297E0
9.093904833E0,-7.845314491E-1,1.342337111E0,-1.573947808E0,2.212390160E0
9.103909833E0,-9.654963416E-1,1.182442076E0,-1.541500585E0,2.169464566E0
9.113913833E0,-1.093400676E0,1.023336122E0,-1.402651872E0,2.051870885E0
9.123918833E0,-1.228043926E0,8.073864609E-1,-1.129776789E0,1.853742262E0
9.133922833E0,-1.383485722E0,5.895259300E-1,-7.985011782E-1,1.702697183E0
9.143927833E0,-1.482617662E0,4.507250172E-1,-3.934784371E-1,1.598791248E0
9.153931833E0,-1.328148842E0,3.396010226E-1,5.810670555E-4,1.370878747E0
9.163935833E0,-1.130494827E0,4.045150566E-1,4.576048511E-1,1.284933144E0
9.173940833E0,-9.899055433E-1,5.934213451E-1,9.174193650E-1,1.474354153E0
9.183944833E0,-8.998233390E-1,8.402767566E-1,1.200367300E0,1.719485017E0
9.193949833E0,-8.134997249E-1,1.020329483E0,1.315168316E0,1.852706603E0
9.203953833E0,-6.867613256E-1,1.119019666E0,1.426691383E0,1.938890001E0
9.213958833E0,-5.248998713E-1,1.257527634E0,1.428684407E0,1.974344134E0
9.223962833E0,-2.671703929E-1,1.488836761E0,1.242735055E0,1.957653017E0
9.233966833E0,3.627729535E-2,1.748381507E0,9.806692815E-1,2.004960393E0
9.243971833E0,3.830464196E-1,2.060766957E0,7.666483247E-1,2.231867976E0
9.253975833E0,7.232403499E-1,2.451494864E0,6.201694331E-1,2.630116689E0
9.263980833E0,1.017092173E0,2.809794405E0,4.310470900E-1,3.019142706E0
9.273984833E0,1.324356338E0,3.096694180E0,2.608407819E-1,3.378087102E0
9.283988833E0,1.626787196E0,3.341700702E0,3.598493457E-2,3.716812489E0
9.293993833E0,1.940331271E0,3.538009858E0,-2.369999295E-1,4.042099475E0
9.303997833E0,2.076117067E0,3.586280670E0,-6.181214458E-1,4.189718993E0
9.314002833E0,2.180891570E0,3.418408863E0,-1.003176969E0,4.177100816E0
9.324006833E0,2.245852967E0,3.033562962E0,-1.175484474E0,3.953242156E0
9.334011833E0,2.320718377E0,2.585680861E0,-1.129469810E0,3.653379443E0
9.344015833E0,2.454167626E0,2.182416817E0,-8.871199706E-1,3.401891200E0
9.354019833E0,2.790126418E0,1.899486716E0,-5.719760969E-1,3.423450287E0
9.364024833E0,3.270358239E0,1.665772044E0,-2.808739275E-1,3.680887078E0
9.374028833E0,3.773235742E0,1.505224459E0,4.805329531E-2,4.062673721E0
9.384033833E0,4.236683716E0,1.469578663E0,3.829204121E-1,4.500641999E0
9.394037833E0,4.573494447E0,1.512643114E0,6.784015614E-1,4.864685944E0
9.404042833E0,4.727344047E0,1.601562015E0,8.559241980E-1,5.064127650E0
9.414046833E0,4.743329165E0,1.653542885E0,9.494638610E-1,5.112226253E0
9.424050833E0,4.601451155E0,1.653829106E0,1.050994914E0,5.001309204E0
9.434055833E0,4.319023622E0,1.648052934E0,1.023700111E0,4.734765616E0
9.444059833E0,4.066764799E0,1.622495632E0,8.680133164E-1,4.463688511E0
9.454064833E0,3.831463485E0,1.511887362E0,6.424552184E-1,4.168772546E0
9.464068833E0,3.554942225E0,1.425740918E0,4.701889363E-1,3.858941439E0
9.474072833E0,3.251764678E0,1.397516701E0,5.679818639E-1,3.584638036E0
9.484077833E0,3.027250308E0,1.400105263E0,8.010080257E-1,3.430182653E0
9.494081833E0,2.765400882E0,1.413384290E0,1.067426174E0,3.283975613E0
9.504086833E0,2.529414859E0,1.499305031E0,1.332662893E0,3.228288322E0
9.514090833E0,2.468624867E0,1.624717866E0,1.513268474E0,3.320210588E0
9.524095833E0,2.632791293E0,1.768345363E0,1.639392623E0,3.570188159E0
9.534099833E0,2.673737006E0,1.893301531E0,1.687287751E0,3.685159456E0
9.544103833E0,2.487176912E0,1.990756782E0,1.564286015E0,3.549105845E0
9.554108833E0,2.309988737E0,2.009787422E0,1.311657355E0,3.331026638E0
9.564112833E0,2.063309326E0,1.918631669E0,1.051041984E0,3.007171779E0
9.574117833E0,1.627728013E0,1.824585345E0,7.821612802E-1,2.567174796E0
9.584121833E0,1.223319960E0,1.733215584E0,5.608000213E-1,2.194321000E0
9.594125833E0,9.768071955E-1,1.540768806E0,4.075287116E-1,1.869278059E0
9.604130833E0,6.768520492E-1,1.331395217E0,3.251127917E-1,1.528541869E0
9.614134833E0,3.643780142E-1,1.123417942E0,2.375355345E-1,1.204683502E0
9.624139833E0,1.526164216E-1,9.076814121E-1,1.847275758E-1,9.387766482E-1
9.634143833E0,-1.203707814E-2,6.434381354E-1,1.468791336E-1,6.600992389E-1
9.644148833E0,-2.556051850E-1,4.016984528E-1,1.036202627E-1,4.872707835E-1
9.654152833E0,-4.635584861E-1,2.173091385E-1,1.091575760E-1,5.234740759E-1
9.664156833E0,-6.367606151E-1,-6.478861123E-2,1.259519488E-1,6.523231856E-1
9.674161833E0,-8.749937224E-1,-4.116001278E-1,9.113353372E-2,9.712538291E-1
9.684165833E0,-1.080939674E0,-7.014132786E-1,8.863881916E-2,1.291614496E0
9.694170833E0,-1.244604995E0,-9.683684939E-1,1.631604132E-1,1.585370762E0
9.704174833E0,-1.333018988E0,-1.252423014E0,2.796287629E-1,1.850323019E0
9.714179833E0,-1.514259285E0,-1.475238476E0,2.895014942E-1,2.133804316E0
9.724183833E0,-1.748306370E0,-1.688295519E0,2.064569986E-1,2.439168181E0
9.734187833E0,-1.872068537E0,-1.980001706E0,1.541366976E-1,2.729249986E0
9.744192500E0,-2.022436119E0,-2.319135828E0,2.880993319E-1,3.090572774E0
9.754196500E0,-2.277874659E0,-2.604991291E0,4.692472422E-1,3.492117633E0
9.764201500E0,-2.513596387E0,-2.772954607E0,5.640247607E-1,3.784913207E0
9.774205500E0,-2.624413403E0,-2.897740329E0,6.407308745E-1,3.961689132E0
9.784209500E0,-2.598161159E0,-3.000608055E0,6.452788389E-1,4.021252900E0
9.794214500E0,-2.555244350E0,-3.102591390E0,6.665387303E-1,4.074263234E0
9.804218500E0,-2.558165034E0,-3.153536718E0,6.463927335E-1,4.111791062E0
9.814223500E0,-2.626948171E0,-3.211451635E0,6.033505020E-1,4.192649535E0
9.824227500E0,-2.765223126E0,-3.299119816E0,5.486258259E-1,4.339543847E0
9.834232500E0,-2.878454458E0,-3.462607089E0,5.187354442E-1,4.532574806E0
9.844236500E0,-2.995387661E0,-3.706249455E0,5.410229838E-1,4.795971031E0
9.854240500E0,-3.098250709E0,-3.843839117E0,5.857074058E-1,4.971650609E0
9.864245500E0,-3.070092857E0,-3.933169077E0,5.970931041E-1,5.025117841E0
9.874249500E0,-3.023823255E0,-4.060473195E0,6.775747651E-1,5.107842716E0
9.884254500E0,-2.759293465E0,-4.256609858E0,7.508573341E-1,5.127983487E0
9.894258500E0,-2.285353832E0,-4.483361080E0,8.199506655E-1,5.098596651E0
9.904263500E0,-1.814689225E0,-4.705195671E0,8.091496888E-1,5.107512751E0
9.914267500E0,-1.417012487E0,-4.875215745E0,6.857661295E-1,5.123077994E0
9.924271500E0,-1.144264435E0,-4.959151649E0,5.460878420E-1,5.118665657E0
9.934276500E0,-9.696694994E-1,-5.007436202E0,4.152905980E-1,5.117337446E0
9.944280500E0,-7.902365774E-1,-5.047855080E0,3.087119365E-1,5.118653906E0
9.954285500E0,-5.931579280E-1,-4.988665470E0,3.268470758E-1,5.034426334E0
9.964289500E0,-4.807300043E-1,-4.752204069E0,3.551078385E-1,4.789639488E0
9.974293500E0,-4.340733165E-1,-4.524291005E0,2.597140235E-1,4.552480655E0
9.984298500E0,-3.296543241E-1,-4.355948204E0,6.131828874E-2,4.368834703E0
9.994302500E0,-2.129398066E-1,-4.251123123E0,-1.129497877E-1,4.257951247E0
1.000430750E1,-6.635069489E-2,-4.107449725E0,-3.856253341E-1,4.126045632E0
1.001431150E1,1.370710140E-1,-3.960765889E0,-7.727741602E-1,4.037775971E0
1.002431650E1,4.094436747E-1,-3.697830634E0,-1.039174767E0,3.862833121E0
1.003432050E1,6.086103648E-1,-3.320890754E0,-1.136419811E0,3.562326763E0
1.004432450E1,7.656045967E-1,-2.941467269E0,-1.107976322E0,3.235118487E0
1.005432950E1,9.830414969E-1,-2.706010712E0,-9.875336203E-1,3.043696307E0
1.006433350E1,1.035294555E0,-2.589642935E0,-8.124580434E-1,2.904853424E0
1.007433850E1,9.513893491E-1,-2.511400757E0,-3.948148182E-1,2.714434416E0
1.008434250E1,8.000160456E-1,-2.355446453E0,2.613576758E-1,2.501291966E0
1.009434750E1,4.832390445E-1,-2.016413780E0,9.408085200E-1,2.276964026E0
1.010435150E1,2.072785324E-1,-1.519860625E0,1.444517789E0,2.107029272E0
1.011435550E1,1.000002515E-1,-9.246870156E-1,1.773824204E0,2.002872546E0
1.012436050E1,8.229546726E-2,-3.115520753E-1,1.984723917E0,2.010712875E0
1.013436450E1,6.788441956E-2,2.194465882E-1,2.006401885E0,2.019508262E0
1.014436950E1,-6.116713822E-2,6.278114516E-1,1.695255167E0,1.808805882E0
1.015437350E1,-3.412704027E-1,8.707103446E-1,1.132990711E0,1.469105151E0
1.016437750E1,-5.125306714E-1,9.885258928E-1,6.439158529E-1,1.286273204E0
1.017438250E1,-5.678769064E-1,1.011601052E0,4.269549161E-1,1.236168019E0
1.018438650E1,-5.709279835E-1,1.056728986E0,3.146515381E-1,1.241628166E0
1.019439150E1,-6.160737509E-1,1.146333472E0,2.371396780E-2,1.301610406E0
1.020439550E1,-7.240858573E-1,1.208781443E0,-3.134724471E-1,1.443508878E0
1.021439950E1,-8.723595518E-1,1.231961853E0,-6.290025294E-1,1.635354817E0
1.022440450E1,-1.011826755E0,1.226187727E0,-8.738029370E-1,1.814073123E0
1.023440850E1,-1.172250379E0,1.140070812E0,-9.712970719E-1,1.901933334E0
1.024441350E1,-1.352839295E0,1.068257648E0,-1.041634398E0,2.014038426E0
1.025441750E1,-1.493591132E0,1.088426742E0,-1.065681657E0,2.133345878E0
1.026442250E1,-1.599817498E0,1.163697364E0,-1.058049287E0,2.243451777E0
1.027442650E1,-1.579607182E0,1.232160366E0,-8.693587607E-1,2.183841265E0
1.028443050E1,-1.371746852E0,1.318802945E0,-5.611031994E-1,1.983876870E0
1.029443550E1,-1.081591639E0,1.519647786E0,-1.678039795E-1,1.872786171E0
1.030443950E1,-6.685449100E-1,1.781532004E0,2.837680069E-1,1.923884835E0
1.031444450E1,-2.852324420E-1,2.105889920E0,5.787767011E-1,2.202524091E0
1.032444850E1,-6.611739099E-2,2.340887763E0,6.818514186E-1,2.439067114E0
1.033445350E1,1.106234729E-2,2.387803482E0,6.488763383E-1,2.474422831E0
1.034445750E1,2.185221434E-2,2.349141985E0,5.343384469E-1,2.409245351E0
1.035446150E1,5.228697181E-2,2.365318015E0,4.549928999E-1,2.409249214E0
1.036446650E1,1.155474132E-1,2.405836003E0,5.662852943E-1,2.474283151E0
1.037447050E1,2.165282428E-1,2.468391270E0,7.347517633E-1,2.584511578E0
1.038447550E1,4.157674384E-1,2.617414578E0,8.451278991E-1,2.781719397E0
1.039447950E1,8.636799449E-1,2.869747953E0,9.511864507E-1,3.144225187E0
1.040448350E1,1.399818165E0,3.191685415E0,1.091660544E0,3.652132175E0
1.041448850E1,1.822670674E0,3.495835938E0,1.150773556E0,4.106979069E0
1.042449250E1,2.152882823E0,3.721941628E0,1.067344898E0,4.430234651E0
1.043449750E1,2.290753736E0,3.881564183E0,9.151003593E-1,4.599076196E0
1.044450150E1,2.340148675E0,3.951623767E0,6.880871817E-1,4.643822799E0
1.045450650E1,2.407582274E0,3.943283299E0,3.557826072E-1,4.633844715E0
1.046451050E1,2.440885676E0,3.812927812E0,-1.834359258E-2,4.527325686E0
1.047451450E1,2.534228287E0,3.572378038E0,-2.949823818E-1,4.389898912E0
1.048451950E1,2.595884838E0,3.292163384E0,-4.506960735E-1,4.216643782E0
1.049452350E1,2.721729782E0,2.889483768E0,-5.020448595E-1,4.001122154E0
1.050452850E1,2.989700074E0,2.459858136E0,-4.885833997E-1,3.902297057E0
1.051453250E1,3.282486534E0,2.067583641E0,-2.886518937E-1,3.890107951E0
1.052453750E1,3.601288426E0,1.737907974E0,-5.590493649E-2,3.999090874E0
1.053454150E1,4.031107308E0,1.446322533E0,2.263381165E-1,4.288694900E0
1.054454550E1,4.337685596E0,1.211395441E0,4.251721001E-1,4.523689485E0
1.055455050E1,4.449265673E0,1.014925487E0,4.402149394E-1,4.584738593E0
1.056455450E1,4.369000359E0,8.420978719E-1,3.640628493E-1,4.464284346E0
1.057455950E1,4.111724625E0,7.308218497E-1,2.741858822E-1,4.185159240E0
1.058456350E1,3.889696491E0,6.266423008E-1,2.418159887E-1,3.947264158E0
1.059456750E1,3.562682769E0,4.795424348E-1,2.973870492E-1,3.607091421E0
1.060457250E1,3.112184039E0,4.094734955E-1,4.356912410E-1,3.169098436E0
1.061457650E1,2.672675151E0,5.176826531E-1,6.918051338E-1,2.808875600E0
1.062458150E1,2.293639337E0,8.873126364E-1,1.045656406E0,2.672358966E0
1.063458550E1,2.221249638E0,1.427415268E0,1.388354406E0,2.983117875E0
1.064459050E1,2.435717906E0,1.927879041E0,1.485094835E0,3.443101216E0
1.065459450E1,2.734350412E0,2.245184045E0,1.444703731E0,3.821608620E0
1.066459850E1,2.981519235E0,2.414898603E0,1.356520702E0,4.069562707E0
1.067460350E1,3.154678094E0,2.454557928E0,1.323196543E0,4.210427246E0
1.068460750E1,3.201858693E0,2.385230708E0,1.392506806E0,4.228510355E0
1.069461250E1,2.991903305E0,2.164830731E0,1.379698188E0,3.942276572E0
1.070461650E1,2.684298831E0,1.814768455E0,1.287131794E0,3.486481466E0
1.071462050E1,2.314160725E0,1.428375674E0,1.172215003E0,2.961365384E0
1.072462550E1,1.881205396E0,1.076755114E0,1.097622658E0,2.429631828E0
1.073462950E1,1.440100803E0,7.600514960E-1,1.080384774E0,1.954174981E0
1.074463537E1,1.011653093E0,4.974164960E-1,1.055885232E0,1.544590164E0
1.075463937E1,6.142032266E-1,3.339897421E-1,9.862308607E-1,1.208902834E0
1.076464437E1,2.625440758E-1,1.911937192E-1,8.992038265E-1,9.560606422E-1
1.077464837E1,-3.514176607E-3,9.680504054E-2,8.146884638E-1,8.204272414E-1
1.078465237E1,-1.979949081E-1,8.417944014E-3,7.649739745E-1,7.902265670E-1
1.079465737E1,-3.361347932E-1,-6.536982447E-2,7.889098442E-1,8.600224156E-1
1.080466138E1,-3.656164545E-1,-1.816408306E-1,8.167765045E-1,9.131224679E-1
1.081466637E1,-3.715168798E-1,-3.750823657E-1,7.610195026E-1,9.262085383E-1
1.082467037E1,-4.557629782E-1,-6.317839037E-1,7.739810255E-1,1.098142714E0
1.083467438E1,-6.396719438E-1,-9.339121677E-1,7.426463816E-1,1.353844814E0
1.084467937E1,-8.446466732E-1,-1.274071746E0,6.457749751E-1,1.659431268E0
1.085468337E1,-1.058988642E0,-1.664530242E0,4.664850175E-1,2.027245950E0
1.086468837E1,-1.252591122E0,-1.998494110E0,2.154169795E-1,2.368410374E0
1.087469237E1,-1.478174948E0,-2.262859009E0,-7.450317532E-2,2.703901402E0
1.088469738E1,-1.645811112E0,-2.517808136E0,-3.659091076E-1,3.030171860E0
1.089470137E1,-1.753820295E0,-2.707926845E0,-5.798870873E-1,3.277960106E0
1.090470537E1,-1.849188382E0,-2.838613284E0,-7.212379709E-1,3.463727365E0
1.091471038E1,-1.903955743E0,-2.939945531E0,-8.078928298E-1,3.594581759E0
1.092471437E1,-1.922287933E0,-3.033948586E0,-8.282136583E-1,3.685915461E0
1.093471937E1,-1.913259832E0,-3.133958486E0,-8.688099995E-1,3.773206831E0
1.094472337E1,-1.903017849E0,-3.188751282E0,-8.299982285E-1,3.805063565E0
1.095472837E1,-2.033242359E0,-3.257624173E0,-8.102027723E-1,3.924616959E0
1.096473237E1,-2.215928087E0,-3.377992031E0,-8.441148689E-1,4.127190008E0
1.097473637E1,-2.401978303E0,-3.545871440E0,-9.508762559E-1,4.387125447E0
1.098474137E1,-2.576513012E0,-3.677920865E0,-1.081736358E0,4.619055611E0
1.099474538E1,-2.705175145E0,-3.828602150E0,-1.204978999E0,4.840262532E0
1.100475037E1,-2.804411750E0,-4.001511042E0,-1.333841107E0,5.065170084E0
1.101475437E1,-2.925943789E0,-4.189234438E0,-1.395804051E0,5.297084215E0
1.102475837E1,-2.942192032E0,-4.361035282E0,-1.428070157E0,5.451101453E0
1.103476337E1,-2.772898766E0,-4.551279413E0,-1.408967595E0,5.512558531E0
1.104476737E1,-2.509478193E0,-4.864388748E0,-1.399751506E0,5.649695830E0
1.105477237E1,-2.153411411E0,-5.219952085E0,-1.281912862E0,5.790369683E0
1.106477637E1,-1.653033593E0,-5.463657601E0,-1.044394284E0,5.803002142E0
1.107478138E1,-1.072383444E0,-5.558111769E0,-6.810708153E-1,5.701444566E0
1.108478537E1,-5.885760498E-1,-5.511611202E0,-3.244655049E-1,5.552437093E0
1.109478937E1,-1.499986231E-1,-5.414754998E0,-3.888720006E-2,5.416971801E0
1.110479437E1,1.224775332E-1,-5.273817220E0,-4.109101564E-2,5.275399254E0
1.111479837E1,2.100290626E-1,-5.158483815E0,-4.195111182E-1,5.179773842E0
1.112480337E1,3.003890097E-2,-5.068026804E0,-1.014464434E0,5.168649351E0
1.113480737E1,-1.814502114E-1,-5.025171391E0,-1.500256957E0,5.247479646E0
1.114481137E1,-1.718052292E-1,-4.990526639E0,-1.764418665E0,5.296040634E0
1.115481637E1,7.527646959E-2,-4.973742206E0,-1.870224910E0,5.314275049E0
1.116482037E1,4.810054082E-1,-4.987352770E0,-1.677330528E0,5.283795185E0
1.117482537E1,9.060669959E-1,-4.892830775E0,-1.182136266E0,5.114508436E0
1.118482938E1,1.176999487E0,-4.553595788E0,-5.376087946E-1,4.733876383E0
1.119483437E1,1.335392373E0,-4.092944245E0,4.008967996E-2,4.305470075E0
1.120483837E1,1.438784595E0,-3.672667726E0,4.809513214E-1,3.973651156E0
1.121484237E1,1.455228719E0,-3.234795766E0,8.029072013E-1,3.636791752E0
1.122484737E1,1.280984616E0,-2.719750792E0,1.021717905E0,3.175196598E0
1.123485137E1,1.016077681E0,-2.093342380E0,1.149427527E0,2.595318827E0
1.124485637E1,7.458041704E-1,-1.440157082E0,1.150618020E0,1.988516560E0
1.125486037E1,4.867310017E-1,-8.308286794E-1,1.004376233E0,1.391385992E0
1.126486437E1,2.753407073E-1,-3.051239388E-1,7.569176808E-1,8.612998889E-1
1.127486937E1,1.180517757E-1,7.179927662E-2,5.077666524E-1,5.262303024E-1
1.128487337E1,6.730028272E-2,2.910229397E-1,2.493664983E-1,3.891109481E-1
1.129487837E1,6.611505210E-2,3.637811597E-1,3.863898575E-2,3.717538210E-1
1.130488237E1,1.136464834E-2,2.983527169E-1,6.478305638E-2,3.055165188E-1
1.131488737E1,-1.124080431E-1,1.709417416E-1,1.242723361E-1,2.393747286E-1
1.132489137E1,-1.346432501E-1,6.163637727E-2,2.767288363E-1,3.138577650E-1
1.133489537E1,-1.089657873E-1,-1.701949060E-2,4.424289876E-1,4.559677784E-1
1.134490037E1,-1.516481227E-1,-8.555061221E-3,6.127645192E-1,6.313087185E-1
1.135490437E1,-1.870553523E-1,1.589799464E-2,7.407852128E-1,7.642023178E-1
1.136490937E1,-2.895406705E-1,8.861279905E-2,7.812005827E-1,8.378307576E-1
1.137491338E1,-3.992133862E-1,2.468627205E-1,8.567740908E-1,9.769208633E-1
1.138491837E1,-5.309382910E-1,4.831413960E-1,9.564452903E-1,1.195871511E0
1.139492237E1,-6.199393451E-1,7.734468824E-1,1.084892977E0,1.469536540E0
1.140492637E1,-5.723558736E-1,1.064014324E0,1.127557186E0,1.652604894E0
1.141493137E1,-5.726248455E-1,1.323495044E0,1.097759629E0,1.812350558E0
1.142493537E1,-5.772090626E-1,1.516236228E0,1.057115779E0,1.936397783E0
1.143494037E1,-6.012574911E-1,1.643245354E0,1.058814687E0,2.045202779E0
1.144494437E1,-6.129951918E-1,1.765700083E0,1.125111296E0,2.181590089E0
1.145494838E1,-5.244648385E-1,1.867928708E0,1.290064611E0,2.329911528E0
1.146495337E1,-3.746340305E-1,2.000866033E0,1.448979654E0,2.498671162E0
1.147495737E1,-7.458006620E-2,2.217805920E0,1.618943448E0,2.746853322E0
1.148496237E1,2.594549918E-1,2.436285963E0,1.680944838E0,2.971259285E0
1.149496637E1,5.494418049E-1,2.577475171E0,1.729647174E0,3.152291849E0
1.150497137E1,7.921386766E-1,2.726504326E0,1.760841631E0,3.340938906E0
1.151497537E1,1.013974437E0,2.958929687E0,1.799406357E0,3.608500005E0
1.152497937E1,1.254562803E0,3.272229933E0,1.745650857E0,3.915190095E0
1.153498438E1,1.458467492E0,3.586851943E0,1.574093258E0,4.179761222E0
1.154498837E1,1.640761456E0,3.898667874E0,1.332888595E0,4.434895867E0
1.155499337E1,1.703657032E0,4.257884258E0,1.111204278E0,4.718771089E0
1.156499738E1,1.760035300E0,4.547500358E0,8.669324586E-1,4.952681663E0
1.157500137E1,1.893375206E0,4.754461094E0,7.367257833E-1,5.170351521E0
1.158500637E1,2.004986858E0,4.842694117E0,6.530456954E-1,5.281867784E0
1.159501037E1,2.081063812E0,4.795208001E0,5.685176151E-1,5.258142128E0
1.160501537E1,2.220952014E0,4.667960894E0,5.425723498E-1,5.197775631E0
1.161501937E1,2.379630829E0,4.465842530E0,6.041419226E-1,5.096212304E0
1.162502437E1,2.723167028E0,4.248126717E0,7.973292500E-1,5.108615585E0
1.163502837E1,2.954819679E0,4.054524822E0,1.016091714E0,5.118844913E0
1.164503238E1,3.130767660E0,3.851758001E0,1.156658778E0,5.096626862E0
1.165503737E1,3.376689856E0,3.640489329E0,1.268537064E0,5.124878849E0
1.166504137E1,3.540880256E0,3.479395614E0,1.381429841E0,5.152899692E0
1.167504637E1,3.711231283E0,3.323555038E0,1.531760586E0,5.212057772E0
1.168505037E1,3.876147907E0,3.143533886E0,1.744476444E0,5.286731122E0
1.169505437E1,3.970613185E0,2.937613077E0,1.961862181E0,5.314531294E0
1.170505937E1,4.006271260E0,2.761913018E0,2.209428614E0,5.344150795E0
1.171506337E1,4.104561201E0,2.579726642E0,2.373906844E0,5.397948305E0
1.172506838E1,4.239959911E0,2.413476267E0,2.503973624E0,5.483795369E0
1.173507237E1,4.327320237E0,2.312801247E0,2.682680322E0,5.592094755E0
1.174507675E1,4.301916423E0,2.379559493E0,2.910119762E0,5.712931412E0
1.175508075E1,4.292955565E0,2.622014875E0,3.089506491E0,5.903344802E0
1.176508475E1,4.263771527E0,2.927851151E0,3.245101191E0,6.105959527E0
1.177508975E1,4.194621770E0,3.169109023E0,3.269343163E0,6.190856848E0
1.178509375E1,4.152194958E0,3.321325495E0,3.193315911E0,6.202353789E0
1.179509875E1,4.068472186E0,3.350674424E0,3.127890830E0,6.128881306E0
1.180510275E1,3.858045512E0,3.247921596E0,3.069682968E0,5.903936262E0
1.181510675E1,3.506834843E0,2.976516065E0,3.001643889E0,5.492486189E0
1.182511175E1,3.162474772E0,2.521380493E0,2.809547945E0,4.924648812E0
1.183511575E1,2.830649377E0,2.003916818E0,2.537514423E0,4.297352435E0
1.184512075E1,2.493338708E0,1.519000207E0,2.361352287E0,3.755007878E0
1.185512475E1,2.319499817E0,1.030737527E0,2.245841711E0,3.389145061E0
1.186512975E1,2.252959088E0,5.542660502E-1,2.411495816E0,3.346393219E0
1.187513375E1,2.102096246E0,1.683047935E-1,2.639308600E0,3.378325771E0
1.188513775E1,1.918842169E0,-8.937264472E-2,2.702202421E0,3.315394496E0
1.189514275E1,1.790863575E0,-2.796027428E-1,2.664517701E0,3.222580428E0
1.190514675E1,1.498038524E0,-4.045033622E-1,2.539569134E0,2.976097071E0
1.191515175E1,1.117615165E0,-5.421035492E-1,2.267256554E0,2.585225753E0
1.192515575E1,6.978189951E-1,-7.275418541E-1,1.879597119E0,2.132874546E0
1.193515975E1,2.237027764E-1,-9.473193946E-1,1.548482746E0,1.829004041E0
1.194516475E1,-2.245997393E-1,-1.176990278E0,1.249122261E0,1.730912355E0
1.195516875E1,-6.310741979E-1,-1.469009437E0,9.186890879E-1,1.843972074E0
1.196517375E1,-9.733164078E-1,-1.790553381E0,6.231874734E-1,2.131147312E0
1.197517775E1,-1.256080740E0,-2.118193631E0,3.699694142E-1,2.490253090E0
1.198518275E1,-1.457444229E0,-2.486736617E0,1.338924676E-1,2.885468745E0
1.199518675E1,-1.680487440E0,-2.888518100E0,-2.324823707E-2,3.341873027E0
1.200519075E1,-1.917965087E0,-3.280527132E0,-1.804415667E-1,3.804340613E0
1.201519575E1,-2.032989759E0,-3.638027651E0,-2.913538921E-1,4.177700281E0
1.202519975E1,-2.089559816E0,-3.946450151E0,-3.502686828E-1,4.479220598E0
1.203520475E1,-2.182031193E0,-4.225520212E0,-4.295490333E-1,4.775017650E0
1.204520875E1,-2.239379514E0,-4.408697983E0,-4.603460258E-1,4.966221600E0
1.205521375E1,-2.270770292E0,-4.529631267E0,-4.363557771E-1,5.085701869E0
1.206521775E1,-2.304801672E0,-4.595577042E0,-3.778809893E-1,5.155020188E0
1.207522175E1,-2.404874429E0,-4.644417665E0,-2.822936314E-1,5.237721466E0
1.208522675E1,-2.591283664E0,-4.653042893E0,-2.240348983E-1,5.330642628E0
1.209523075E1,-2.779175168E0,-4.694531811E0,-2.016605276E-1,5.459222519E0
1.210523575E1,-2.945316784E0,-4.735207090E0,-2.582475418E-1,5.582451875E0
1.211523975E1,-3.064579518E0,-4.818285500E0,-3.712099010E-1,5.722352625E0
1.212524375E1,-3.169885533E0,-4.957839534E0,-4.478785926E-1,5.901605067E0
1.213524875E1,-3.203516963E0,-5.162331283E0,-5.308146223E-1,6.098684233E0
1.214525275E1,-3.058448128E0,-5.419350910E0,-6.677666456E-1,6.258544681E0
1.215525775E1,-2.749910438E0,-5.749742568E0,-7.598006505E-1,6.418632568E0
1.216526175E1,-2.422969222E0,-6.062251686E0,-7.160719559E-1,6.567681052E0
1.217526675E1,-2.012994035E0,-6.273665369E0,-5.450140008E-1,6.611207334E0
1.218527075E1,-1.463390263E0,-6.351589458E0,-2.510984436E-1,6.522825318E0
1.219527475E1,-9.421051401E-1,-6.289312518E0,5.254951179E-2,6.359699325E0
1.220527975E1,-5.232047635E-1,-6.209049543E0,1.202810267E-1,6.232215255E0
1.221528375E1,-3.054152763E-1,-6.247420726E0,-8.670894563E-2,6.255482608E0
1.222528875E1,-2.832514054E-1,-6.323972474E0,-4.818509156E-1,6.348625010E0
1.223529275E1,-4.346492672E-1,-6.349196777E0,-9.382547486E-1,6.432848644E0
1.224529675E1,-7.067547101E-1,-6.331860368E0,-1.233358168E0,6.489463021E0
1.225530175E1,-8.410003495E-1,-6.281253886E0,-1.419638179E0,6.494367138E0
1.226530575E1,-8.361980313E-1,-6.194004657E0,-1.639232994E0,6.461579192E0
1.227531075E1,-6.815853703E-1,-6.147578934E0,-1.849578684E0,6.455867616E0
1.228531475E1,-4.213866127E-1,-6.125294611E0,-1.969971100E0,6.448068461E0
1.229531975E1,-8.595290065E-2,-6.045557885E0,-1.836168387E0,6.318834733E0
1.230532375E1,2.061570364E-1,-5.832423951E0,-1.397255915E0,6.000999413E0
1.231532775E1,3.130827302E-1,-5.594498407E0,-8.126431078E-1,5.661874429E0
1.232533275E1,3.142995358E-1,-5.321703578E0,-8.870576978E-2,5.331714722E0
1.233533675E1,3.188135862E-1,-4.868143246E0,6.394234371E-1,4.920297053E0
1.234534175E1,3.638523495E-1,-4.217313645E0,1.270250298E0,4.419463625E0
1.235534575E1,3.052264112E-1,-3.434167109E0,1.734677095E0,3.859504051E0
1.236534975E1,1.617462641E-1,-2.595211238E0,1.931483265E0,3.239121922E0
1.237535475E1,3.920908928E-2,-1.718371257E0,1.901352855E0,2.563099649E0
1.238535875E1,-6.054674864E-2,-9.584426992E-1,1.725230626E0,1.974512352E0
1.239536375E1,-2.402556592E-1,-3.218183242E-1,1.435644347E0,1.490759708E0
1.240536775E1,-4.630357450E-1,1.013775632E-1,1.045770426E0,1.148179122E0
1.241537275E1,-6.172227287E-1,2.829460345E-1,6.948699519E-1,9.715279746E-1
1.242537675E1,-6.652424026E-1,4.013835803E-1,4.329524052E-1,8.894402835E-1
1.243538075E1,-7.086112010E-1,4.487966055E-1,1.652016762E-1,8.548917014E-1
1.244538575E1,-7.668319273E-1,4.841534029E-1,-1.032039410E-1,9.127358740E-1
1.245538975E1,-8.272038442E-1,5.614084241E-1,-2.994502392E-1,1.043607237E0
1.246539475E1,-9.168095005E-1,6.642894526E-1,-4.406607896E-1,1.214908255E0
1.247539875E1,-9.815411013E-1,6.595062840E-1,-5.849279720E-1,1.319284732E0
1.248540375E1,-9.523728508E-1,6.325298622E-1,-6.632274520E-1,1.321733228E0
1.249540775E1,-8.814566499E-1,6.469903189E-1,-5.959540665E-1,1.245280510E0
1.250541175E1,-7.498954672E-1,6.645109159E-1,-3.472512272E-1,1.060425096E0
1.251541675E1,-6.646962726E-1,7.567098123E-1,-1.045862228E-2,1.007243892E0
1.252542075E1,-5.131440443E-1,9.470828748E-1,3.516509646E-1,1.133111284E0
1.253542575E1,-3.172845393E-1,1.193189550E0,6.846466801E-1,1.411776136E0
1.254542975E1,-7.677686512E-2,1.392352147E0,9.883262104E-1,1.709189249E0
1.255543375E1,9.436996758E-2,1.552475517E0,1.312107591E0,2.034874014E0
1.256543875E1,3.310009378E-1,1.753485834E0,1.654474347E0,2.433425478E0
1.257544275E1,5.310838866E-1,1.973276531E0,1.932682528E0,2.812673482E0
1.258544775E1,6.890645438E-1,2.222690392E0,2.199124212E0,3.201766672E0
1.259545175E1,9.378343338E-1,2.449320284E0,2.350765903E0,3.522045346E0
1.260545575E1,1.291506096E0,2.782095560E0,2.498636870E0,3.956163534E0
1.261546075E1,1.612836324E0,3.222203203E0,2.614445654E0,4.451871580E0
1.262546475E1,1.902365300E0,3.668446914E0,2.627000211E0,4.896695478E0
1.263546975E1,2.205139974E0,4.107421951E0,2.532857115E0,5.305555819E0
1.264547375E1,2.511305448E0,4.520373370E0,2.345460724E0,5.678170169E0
1.265547875E1,2.826465109E0,4.885862940E0,2.104559094E0,6.024095838E0
1.266548275E1,3.037299918E0,5.202810972E0,1.819158837E0,6.293152761E0
1.267548675E1,3.168639491E0,5.449024944E0,1.528764473E0,6.486082784E0
1.268549175E1,3.263920455E0,5.604368507E0,1.278400732E0,6.610327642E0
1.269549575E1,3.338758968E0,5.631818846E0,1.041182555E0,6.629385799E0
1.270550075E1,3.412170176E0,5.398360575E0,8.224184829E-1,6.439066265E0
1.271550475E1,3.448663234E0,5.017575858E0,6.727522740E-1,6.125515588E0
1.272550875E1,3.497359430E0,4.580295929E0,6.114556199E-1,5.795214556E0
1.273551375E1,3.632316091E0,4.074549197E0,7.624944627E-1,5.511539635E0
1.274551775E1,3.742395188E0,3.585312663E0,1.067406586E0,5.291440773E0
1.275552275E1,3.812561191E0,3.201915995E0,1.428080389E0,5.179507938E0
1.276552675E1,3.914139606E0,2.994436904E0,1.763396280E0,5.234186438E0
1.277553175E1,4.184705477E0,2.879830307E0,2.018702087E0,5.466291307E0
1.278553575E1,4.632418594E0,2.687935215E0,2.070517774E0,5.742067711E0
1.279553975E1,5.024203677E0,2.461155049E0,2.029927572E0,5.951513481E0
1.280554475E1,5.322914536E0,2.179218682E0,1.936245529E0,6.068892813E0
1.281554875E1,5.555895674E0,1.763126138E0,1.854609336E0,6.116875535E0
1.282555375E1,5.569208030E0,1.399057442E0,1.888959973E0,6.044965640E0
1.283555775E1,5.281909767E0,1.297055104E0,2.150503591E0,5.848554387E0
1.284556275E1,4.932642712E0,1.613960159E0,2.565662919E0,5.789512737E0
1.285556675E1,4.740057063E0,2.203488720E0,2.838247249E0,5.948037571E0
1.286557075E1,4.577490435E0,2.760259425E0,2.818503540E0,6.042881182E0
1.287557575E1,4.414426793E0,3.069763952E0,2.557976169E0,5.954314126E0
1.288557975E1,4.058158282E0,3.156170011E0,2.203392533E0,5.593299245E0
1.289558475E1,3.421259088E0,3.000503097E0,1.859813358E0,4.915988030E0
1.290558875E1,2.616157719E0,2.592673839E0,1.638819011E0,4.031372793E0
1.291559275E1,1.905930932E0,1.966658067E0,1.482170058E0,3.114023884E0
1.292559775E1,1.399496568E0,1.316854068E0,1.358076062E0,2.353097080E0
1.293560175E1,1.098171419E0,7.663024619E-1,1.291287118E0,1.860274805E0
1.294560675E1,9.544720012E-1,3.328685385E-1,1.325442166E0,1.666917875E0
1.295561075E1,8.719093162E-1,2.063277751E-2,1.441987992E0,1.685224298E0
1.296561475E1,8.422241718E-1,-1.620526582E-1,1.563319763E0,1.783135245E0
1.297561975E1,8.495910788E-1,-2.741025594E-1,1.588120143E0,1.821829521E0
1.298562375E1,8.677589625E-1,-3.765291131E-1,1.547708282E0,1.813885530E0
1.299562875E1,8.520890093E-1,-5.105715618E-1,1.408334927E0,1.723411229E0
1.300563275E1,7.098981732E-1,-6.280646360E-1,1.203486789E0,1.531927236E0
1.301563775E1,4.998398745E-1,-6.868437713E-1,9.606030992E-1,1.282323119E0
1.302564175E1,3.105941552E-1,-7.558871090E-1,5.979830503E-1,1.012629142E0
1.303564575E1,3.344958186E-2,-8.317980015E-1,1.749773437E-1,8.506608376E-1
1.304565075E1,-2.170416284E-1,-9.498136707E-1,-2.385266376E-1,1.003069307E0
1.305565475E1,-4.831747252E-1,-1.156685822E0,-5.741381049E-1,1.378772812E0
1.306565975E1,-7.696257269E-1,-1.422519249E0,-8.601692766E-1,1.831877713E0
1.307566375E1,-1.050701968E0,-1.694510378E0,-1.123954716E0,2.288801925E0
1.308566875E1,-1.349256122E0,-1.966898388E0,-1.315221818E0,2.723782256E0
1.309567275E1,-1.553135083E0,-2.298559476E0,-1.483176363E0,3.145698075E0
1.310567675E1,-1.738429838E0,-2.647757242E0,-1.592055320E0,3.545052447E0
1.311568175E1,-1.928539191E0,-2.979549308E0,-1.638642718E0,3.909236172E0
1.312568575E1,-2.164291325E0,-3.261437142E0,-1.655386805E0,4.249874663E0
1.313569075E1,-2.317498316E0,-3.576669602E0,-1.613226041E0,4.556957553E0
1.314569475E1,-2.437986041E0,-3.858596905E0,-1.475732858E0,4.796908742E0
1.315569875E1,-2.574897426E0,-4.075926216E0,-1.354888744E0,5.007893248E0
1.316570375E1,-2.707603494E0,-4.214927981E0,-1.232759413E0,5.159111390E0
1.317570775E1,-2.842891107E0,-4.265184215E0,-1.126416686E0,5.248108305E0
1.318571275E1,-2.904306167E0,-4.315039914E0,-1.005307402E0,5.297660498E0
1.319571675E1,-2.814533865E0,-4.373880153E0,-8.620070565E-1,5.272142320E0
1.320572075E1,-2.727152490E0,-4.492449115E0,-7.648046976E-1,5.310780167E0
1.321572575E1,-2.699283491E0,-4.682810775E0,-6.792497000E-1,5.447589217E0
1.322572975E1,-2.680305768E0,-4.872783011E0,-5.814377689E-1,5.591611857E0
1.323573475E1,-2.570302684E0,-5.082569999E0,-4.814535972E-1,5.715835132E0
1.324573875E1,-2.285044515E0,-5.305681622E0,-3.600358719E-1,5.788031767E0
1.325574375E1,-1.797557468E0,-5.531449635E0,-1.385225853E-1,5.817846373E0
1.326574775E1,-1.294815035E0,-5.684778832E0,1.152167532E-1,5.831511918E0
1.327575175E1,-8.408032984E-1,-5.775334661E0,2.801462415E-1,5.842937836E0
1.328575675E1,-3.957939345E-1,-5.775667952E0,3.246613866E-1,5.798309939E0
1.329576075E1,-8.881862104E-2,-5.694531403E0,3.273668933E-1,5.704624942E0
1.330576575E1,1.708690900E-1,-5.680586379E0,2.368794769E-1,5.688090166E0
1.331576975E1,4.138127142E-1,-5.854307156E0,-8.712936044E-2,5.869560866E0
1.332577375E1,7.164271742E-1,-6.282992263E0,-5.164369038E-1,6.344758998E0
1.333577875E1,1.065159209E0,-6.814265599E0,-8.786733752E-1,6.952758208E0
1.334578275E1,1.344885913E0,-7.419877512E0,-1.042200994E0,7.612455801E0
1.335578775E1,1.519330575E0,-7.898847504E0,-8.810093379E-1,8.091744852E0
1.336579175E1,1.287966776E0,-8.014084430E0,-5.234512237E-1,8.133781953E0
1.337579675E1,6.083571804E-1,-7.659450216E0,9.572535217E-2,7.684168102E0
1.338580075E1,-2.945762926E-1,-6.845622463E0,7.783526963E-1,6.896024580E0
1.339580475E1,-9.328308713E-1,-5.732674545E0,1.409119331E0,5.976566586E0
1.340580975E1,-1.181876650E0,-4.526645386E0,1.912686220E0,5.054277342E0
1.341581375E1,-1.240024871E0,-3.301627395E0,2.235506611E0,4.175631083E0
1.342581875E1,-1.163999373E0,-2.157821089E0,2.318944917E0,3.374698789E0
1.343582275E1,-1.028301870E0,-1.223684680E0,2.158556376E0,2.685921548E0
1.344582675E1,-8.373721522E-1,-4.959329112E-1,1.759890289E0,2.011058280E0
1.345583175E1,-6.542554843E-1,2.203537837E-2,1.262574073E0,1.422191649E0
1.346583575E1,-4.022048217E-1,3.372723690E-1,7.207082132E-1,8.915950303E-1
1.347584075E1,-1.841919708E-1,4.880556884E-1,1.447308666E-1,5.413613034E-1
1.348584475E1,-2.509858847E-2,4.403894788E-1,-4.908260992E-1,6.599114273E-1
1.349584975E1,8.073075235E-2,3.130160719E-1,-1.121583670E0,1.167238812E0
1.350585375E1,1.038260847E-1,4.761665449E-2,-1.742485467E0,1.746225302E0
1.351585775E1,1.867074430E-2,-3.169392613E-1,-2.240360677E0,2.262745027E0
1.352586275E1,-1.956934440E-1,-6.172921644E-1,-2.561985020E0,2.642558000E0
1.353586675E1,-4.768398517E-1,-8.263815795E-1,-2.729345781E0,2.891299215E0
1.354587175E1,-7.120131111E-1,-9.220525526E-1,-2.779979452E0,3.014204594E0
1.355587575E1,-8.307133430E-1,-9.136917651E-1,-2.694263949E0,2.963777239E0
1.356587975E1,-8.714456320E-1,-6.948872012E-1,-2.431645613E0,2.674917961E0
1.357588475E1,-7.739374638E-1,-3.212562606E-1,-1.977741757E0,2.147940232E0
1.358588875E1,-5.698713917E-1,1.207175213E-1,-1.437029260E0,1.550606081E0
1.359589375E1,-3.156321162E-1,5.298989484E-1,-9.981126952E-1,1.173305365E0
1.360589775E1,-8.429579973E-2,9.006328860E-1,-6.331897205E-1,1.104162397E0
1.361590275E1,4.268701315E-2,1.202406516E0,-2.713014507E-1,1.233372648E0
1.362590675E1,1.096557587E-1,1.319274231E0,8.768776953E-2,1.326724548E0
1.363591075E1,6.025029480E-2,1.406457386E0,4.303299290E-1,1.472051739E0
1.364591575E1,-2.314211011E-2,1.497159395E0,7.074066746E-1,1.656033217E0
1.365591975E1,-7.288203478E-2,1.650712833E0,9.249225122E-1,1.893580286E0
1.366592475E1,-6.426440835E-2,1.833123449E0,1.004948383E0,2.091504900E0
1.367592875E1,1.012749445E-1,2.015176801E0,1.053277082E0,2.276090237E0
1.368593275E1,1.989468348E-1,2.218207624E0,1.028883083E0,2.453288671E0
1.369593775E1,2.510268152E-1,2.434742591E0,9.727550751E-1,2.633863774E0
1.370594175E1,3.792679489E-1,2.615539961E0,8.794826299E-1,2.785387434E0
1.371594675E1,6.230740374E-1,2.800380680E0,8.311068606E-1,2.986819684E0
1.372595075E1,8.340252060E-1,3.001914323E0,8.679156679E-1,3.234248793E0
1.373595575E1,1.064975021E0,3.218156345E0,9.103551976E-1,3.509907213E0
1.374596071E1,1.305528889E0,3.402273763E0,9.394885111E-1,3.763311189E0
1.375596471E1,1.487663809E0,3.529080575E0,9.156780642E-1,3.937768357E0
1.376596971E1,1.666068206E0,3.601652123E0,8.074952191E-1,4.049657987E0
1.377597371E1,1.920658314E0,3.575926128E0,6.073552600E-1,4.104272950E0
1.378597871E1,2.114611627E0,3.394409551E0,4.169694798E-1,4.020878272E0
1.379598271E1,2.229462637E0,3.098350404E0,2.730740342E-1,3.826858804E0
1.380598671E1,2.344284410E0,2.805618323E0,3.001136059E-1,3.668409976E0
1.381599171E1,2.476846637E0,2.564319813E0,4.702360064E-1,3.596057184E0
1.382599571E1,2.694322128E0,2.399724201E0,6.949234539E-1,3.674366146E0
1.383600071E1,2.941356465E0,2.426578416E0,9.388766000E-1,3.927002665E0
1.384600471E1,3.133851482E0,2.594472443E0,1.085558682E0,4.210789714E0
1.385600971E1,3.466781416E0,2.782717411E0,1.094169000E0,4.578132302E0
1.386601371E1,3.938938233E0,2.926123006E0,9.862551266E-1,5.005010432E0
1.387601771E1,4.546331207E0,2.820579594E0,8.359191191E-1,5.415123033E0
1.388602271E1,5.107260452E0,2.406715132E0,7.161313051E-1,5.691153758E0
1.389602671E1,5.470901717E0,1.843783801E0,7.544653586E-1,5.822329626E0
1.390603171E1,5.558725727E0,1.432419900E0,1.017880962E0,5.829866219E0
1.391603571E1,5.403533607E0,1.395996425E0,1.506694742E0,5.780753454E0
1.392603971E1,5.086297014E0,1.773476295E0,2.005211684E0,5.747739502E0
1.393604471E1,4.754803156E0,2.543273930E0,2.311225423E0,5.866699097E0
1.394604871E1,4.555490870E0,3.445541990E0,2.357286718E0,6.179082241E0
1.395605371E1,4.510754408E0,4.226566864E0,2.233049904E0,6.572464124E0
1.396605771E1,4.526232573E0,4.785604534E0,1.977588852E0,6.877474081E0
1.397606171E1,4.377708617E0,5.068874651E0,1.740518464E0,6.920059789E0
1.398606671E1,3.972852668E0,5.024399559E0,1.639542604E0,6.611826465E0
1.399607071E1,3.295068573E0,4.506316956E0,1.656753299E0,5.823160731E0
1.400607571E1,2.488393718E0,3.634930381E0,1.625867721E0,4.695558329E0
1.401607971E1,1.736024294E0,2.762252156E0,1.476447680E0,3.581021513E0
1.402608471E1,1.215622686E0,2.044355577E0,1.356432409E0,2.738071788E0
1.403608871E1,8.515025336E-1,1.574344688E0,1.326763052E0,2.227985179E0
1.404609271E1,6.761427820E-1,1.264578206E0,1.445829905E0,2.036357340E0
1.405609771E1,7.331975734E-1,1.036332728E0,1.792260914E0,2.196306761E0
1.406610171E1,9.597228009E-1,9.497281551E-1,2.203605080E0,2.584361966E0
1.407610671E1,1.161792634E0,8.614638501E-1,2.484784232E0,2.875071263E0
1.408611071E1,1.302685388E0,7.571182403E-1,2.657496949E0,3.054915266E0
1.409611471E1,1.403704809E0,6.480372629E-1,2.628178425E0,3.049206670E0
1.410611971E1,1.286899075E0,5.347495061E-1,2.376468655E0,2.754935486E0
1.411612371E1,9.607524955E-1,3.390747732E-1,1.957502789E0,2.206770090E0
1.412612871E1,5.848636526E-1,1.144630471E-1,1.483762547E0,1.598974226E0
1.413613271E1,3.464329094E-1,-6.913016886E-2,1.042153924E0,1.100399719E0
1.414613771E1,2.662143731E-1,-2.056073982E-1,6.969419128E-1,7.738685447E-1
1.415614171E1,1.977464014E-1,-3.655968663E-1,3.648276651E-1,5.530496661E-1
1.416614571E1,1.130126452E-1,-5.541588999E-1,9.596450329E-2,5.736489608E-1
1.417615071E1,7.231251597E-3,-7.582068457E-1,-1.750673908E-1,7.781892464E-1
1.418615471E1,-9.322917581E-2,-9.912632668E-1,-3.610614735E-1,1.059084478E0
1.419615971E1,-1.803836793E-1,-1.333858649E0,-4.565880203E-1,1.421333805E0
1.420616371E1,-2.595842153E-1,-1.721673473E0,-4.340658613E-1,1.794423775E0
1.421616871E1,-3.390543079E-1,-2.111646796E0,-4.062260981E-1,2.176931248E0
1.422617271E1,-4.245306605E-1,-2.456794488E0,-4.108407207E-1,2.526827167E0
1.423617671E1,-5.961119413E-1,-2.834053041E0,-4.161486769E-1,2.925813700E0
1.424618171E1,-8.159789443E-1,-3.195691050E0,-3.646624812E-1,3.318319100E0
1.425618571E1,-1.061870150E0,-3.524427361E0,-2.898622674E-1,3.692313174E0
1.426619071E1,-1.294341411E0,-3.735269186E0,-2.320096233E-1,3.959972733E0
1.427619471E1,-1.478983617E0,-3.834391771E0,-2.356840137E-1,4.116491194E0
1.428619871E1,-1.654525802E0,-3.916721444E0,-3.104204929E-1,4.263158851E0
1.429620371E1,-1.832619712E0,-4.037756762E0,-4.317130879E-1,4.455148804E0
1.430620771E1,-2.028685039E0,-4.245273568E0,-5.874709260E-1,4.741627647E0
1.431621271E1,-2.193545530E0,-4.524070857E0,-6.891323715E-1,5.074816503E0
1.432621671E1,-2.332240900E0,-4.837013547E0,-7.821624497E-1,5.426585092E0
1.433622071E1,-2.500836593E0,-5.142955949E0,-8.340658441E-1,5.779259935E0
1.434622571E1,-2.505857597E0,-5.472630154E0,-9.059865966E-1,6.086855905E0
1.435622971E1,-2.298762082E0,-5.844839929E0,-9.149550560E-1,6.346936557E0
1.436623471E1,-1.957735509E0,-6.208449619E0,-8.851854193E-1,6.569712948E0
1.437623871E1,-1.484140862E0,-6.484584378E0,-7.131641355E-1,6.690374559E0
1.438624371E1,-1.071639093E0,-6.623621811E0,-4.325498244E-1,6.723680212E0
1.439624771E1,-8.215133339E-1,-6.672933719E0,-2.469328871E-1,6.727845452E0
1.440625171E1,-7.000023454E-1,-6.612450705E0,-1.671555233E-1,6.651499724E0
1.441625671E1,-7.599403989E-1,-6.547976382E0,-2.907691705E-1,6.598336974E0
1.442626071E1,-9.882355785E-1,-6.528032114E0,-6.021450984E-1,6.629810824E0
1.443626571E1,-1.201795190E0,-6.511644707E0,-9.599385631E-1,6.690837804E0
1.444626971E1,-1.385014184E0,-6.430276024E0,-1.271081772E0,6.699430043E0
1.445627371E1,-1.521045563E0,-6.321976819E0,-1.608262047E0,6.698318992E0
1.446627871E1,-1.499803798E0,-6.213325612E0,-1.832067150E0,6.649157588E0
1.447628271E1,-1.398662755E0,-6.102522629E0,-1.934799513E0,6.552899290E0
1.448628771E1,-1.213669716E0,-5.952646798E0,-1.827139117E0,6.343929022E0
1.449629171E1,-9.835841185E-1,-5.714378607E0,-1.472613368E0,5.982487001E0
1.450629671E1,-7.131761223E-1,-5.402416788E0,-1.034451679E0,5.546604151E0
1.451630071E1,-4.703500271E-1,-5.115278739E0,-6.697047052E-1,5.180329151E0
1.452630471E1,-3.077693653E-1,-4.857303385E0,-3.034000334E-1,4.876491540E0
1.453630971E1,-1.888837767E-1,-4.600617927E0,6.846475571E-2,4.605002694E0
1.454631371E1,-1.704761571E-1,-4.199940105E0,3.689961451E-1,4.219563622E0
1.455631871E1,-1.572222733E-1,-3.712817925E0,6.295676628E-1,3.769096872E0
1.456632271E1,-8.626514196E-2,-3.193253345E0,8.820387402E-1,3.313955483E0
1.457632771E1,-5.736703277E-3,-2.617652852E0,1.087585620E0,2.834604354E0
1.458633171E1,1.629209697E-2,-2.075145845E0,1.104583476E0,2.350872256E0
1.459633571E1,5.064331949E-2,-1.611121189E0,9.579738986E-1,1.875097390E0
1.460634071E1,9.121597946E-2,-1.247913057E0,7.130974773E-1,1.440178935E0
1.461634471E1,6.310139716E-2,-9.962470680E-1,4.574422985E-1,1.098063506E0
1.462634971E1,-7.817727327E-3,-8.179650973E-1,2.084275103E-1,8.441386404E-1
1.463635371E1,-1.199988985E-1,-6.639839356E-1,2.716674864E-2,6.752869276E-1
1.464635771E1,-2.403100383E-1,-5.428167634E-1,-1.428574187E-1,6.105793930E-1
1.465636271E1,-3.449126333E-1,-4.786422560E-1,-3.216205421E-1,6.719396602E-1
1.466636671E1,-4.321992838E-1,-4.536674823E-1,-4.640338647E-1,7.797036829E-1
1.467637171E1,-5.108916968E-1,-4.539213976E-1,-5.464407215E-1,8.750156702E-1
1.468637571E1,-6.069140875E-1,-4.266917914E-1,-5.337127948E-1,9.139255669E-1
1.469637971E1,-7.171048665E-1,-3.440725346E-1,-3.512068686E-1,8.694662519E-1
1.470638471E1,-7.385085994E-1,-2.551545109E-1,-1.805909631E-1,8.019425614E-1
1.471638871E1,-7.027990687E-1,-1.904790433E-1,-1.006536779E-1,7.350781998E-1
1.472639371E1,-7.256517416E-1,-1.121187522E-1,-2.339500219E-2,7.346348691E-1
1.473639771E1,-7.167236280E-1,5.510006726E-2,1.376647988E-1,7.319018877E-1
1.474640233E1,-6.102189338E-1,2.731301674E-1,3.609395590E-1,7.597661488E-1
1.475640633E1,-4.810270429E-1,3.941578835E-1,6.091512322E-1,8.705243689E-1
1.476641033E1,-3.104064596E-1,5.040612718E-1,8.192875913E-1,1.010773018E0
1.477641533E1,-1.305116075E-1,6.633224693E-1,1.033120852E0,1.234653260E0
1.478641933E1,4.191108763E-2,8.704872733E-1,1.230735107E0,1.508049580E0
1.479642433E1,2.535832179E-1,1.107439840E0,1.363656352E0,1.774904531E0
1.480642833E1,5.245753509E-1,1.350897727E0,1.461862385E0,2.058432802E0
1.481643333E1,9.098092139E-1,1.657275163E0,1.546571437E0,2.442579985E0
1.482643733E1,1.285191688E0,1.994302826E0,1.505642682E0,2.809968206E0
1.483644133E1,1.601229016E0,2.363975494E0,1.493703983E0,3.222338605E0
1.484644633E1,1.850189425E0,2.701663892E0,1.494391031E0,3.599360117E0
1.485645033E1,2.083469356E0,3.058621790E0,1.503680502E0,3.994629753E0
1.486645533E1,2.275660318E0,3.447111382E0,1.482729928E0,4.388586880E0
1.487645933E1,2.501575096E0,3.870862902E0,1.378897119E0,4.810697957E0
1.488646333E1,2.729995406E0,4.217119517E0,1.190119177E0,5.162688795E0
1.489646833E1,2.914261637E0,4.527491771E0,1.042068262E0,5.484250987E0
1.490647233E1,3.072481445E0,4.811660897E0,9.056413186E-1,5.780346790E0
1.491647733E1,3.090657515E0,4.951729778E0,7.515283021E-1,5.885285589E0
1.492648133E1,3.117038983E0,4.878795703E0,5.660563758E-1,5.817129821E0
1.493648633E1,3.153899830E0,4.627708662E0,4.300051162E-1,5.616731789E0
1.494649033E1,3.123936943E0,4.286934687E0,5.039889126E-1,5.328301405E0
1.495649433E1,3.023329750E0,3.943980871E0,7.480591491E-1,5.025445292E0
1.496649933E1,3.030169823E0,3.672861854E0,1.010978909E0,4.867640261E0
1.497650333E1,3.205252417E0,3.515727289E0,1.256300011E0,4.920596624E0
1.498650833E1,3.467740944E0,3.491660149E0,1.467991291E0,5.135359411E0
1.499651233E1,3.715650024E0,3.625517533E0,1.664966590E0,5.451838794E0
1.500651633E1,3.848286510E0,3.766293928E0,1.795159378E0,5.675991209E0
1.501652133E1,3.973729166E0,3.940192460E0,1.832796590E0,5.888529821E0
1.502652533E1,4.050989011E0,4.117366603E0,1.882505232E0,6.075116926E0
1.503653033E1,4.060062720E0,4.241166776E0,1.947836611E0,6.185925346E0
1.504653433E1,4.095835986E0,4.219045005E0,1.966776474E0,6.200356673E0
1.505653933E1,4.183305654E0,4.022467462E0,1.994254879E0,6.136557928E0
1.506654333E1,4.282595469E0,3.770805640E0,2.085085965E0,6.075128196E0
1.507654733E1,4.300609571E0,3.521419553E0,2.211875381E0,5.982309843E0
1.508655233E1,4.212000280E0,3.407904632E0,2.407741903E0,5.928910643E0
1.509655633E1,4.113474112E0,3.457369153E0,2.603429792E0,5.970922660E0
1.510656133E1,4.104917881E0,3.664437770E0,2.773329121E0,6.161964735E0
1.511656533E1,4.064307214E0,3.887633593E0,2.786328067E0,6.276616300E0
1.512656933E1,4.037521704E0,3.990860338E0,2.704692458E0,6.288394790E0
1.513657433E1,4.000159750E0,3.924687983E0,2.567224125E0,6.164016021E0
1.514657833E1,3.813797877E0,3.686832606E0,2.430184686E0,5.834688211E0
1.515658333E1,3.571099252E0,3.265947100E0,2.365508634E0,5.386537981E0
1.516658733E1,3.342985336E0,2.762443068E0,2.295785265E0,4.906859753E0
1.517659233E1,3.113065215E0,2.225631833E0,2.242966781E0,4.435708745E0
1.518659633E1,2.946963944E0,1.751074150E0,2.224087730E0,4.086248083E0
1.519660033E1,2.788088663E0,1.320470864E0,2.139398266E0,3.754211853E0
1.520660533E1,2.681441297E0,9.295918062E-1,2.077974728E0,3.517420550E0
1.521660933E1,2.586604137E0,5.746070516E-1,2.026281833E0,3.335642710E0
1.522661433E1,2.507472013E0,1.705548021E-1,1.987860364E0,3.204386628E0
1.523661833E1,2.430499851E0,-2.076007140E-1,2.017024229E0,3.165251068E0
1.524662233E1,2.274966254E0,-4.918034613E-1,2.053175955E0,3.103687098E0
1.525662733E1,2.086414014E0,-7.148399475E-1,2.009811981E0,2.983867254E0
1.526663133E1,1.900918699E0,-8.622035229E-1,1.806249062E0,2.760330141E0
1.527663633E1,1.650264351E0,-9.298099074E-1,1.520451486E0,2.428928079E0
1.528664033E1,1.282461038E0,-1.016525577E0,1.231074245E0,2.047821858E0
1.529664533E1,8.786143184E-1,-1.182042857E0,9.814460841E-1,1.769865772E0
1.530664933E1,5.351669973E-1,-1.463423299E0,7.724031544E-1,1.739142921E0
1.531665333E1,1.792873263E-1,-1.767998039E0,5.863853905E-1,1.871312063E0
1.532665833E1,-1.027507818E-1,-2.123911039E0,4.471713719E-1,2.172905442E0
1.533666233E1,-3.421281892E-1,-2.529975023E0,4.125023532E-1,2.586113591E0
1.534666733E1,-5.661636722E-1,-2.884908614E0,4.248988889E-1,2.970484486E0
1.535667133E1,-7.723499447E-1,-3.221476394E0,3.901408464E-1,3.335662524E0
1.536667533E1,-9.677948821E-1,-3.607542608E0,3.061261515E-1,3.747626425E0
1.537668033E1,-1.233626847E0,-3.933084585E0,2.223704883E-1,4.128006563E0
1.538668433E1,-1.470842539E0,-4.237337435E0,6.170478970E-2,4.485779062E0
1.539668933E1,-1.715310532E0,-4.567054909E0,-1.058249554E-1,4.879700778E0
1.540669333E1,-1.967419667E0,-4.836436134E0,-3.005644262E-1,5.229932466E0
1.541669833E1,-2.236572266E0,-5.046358193E0,-4.592093271E-1,5.538850036E0
1.542670233E1,-2.480542662E0,-5.182397758E0,-5.513038507E-1,5.771851900E0
1.543670633E1,-2.691736490E0,-5.273529537E0,-5.621410802E-1,5.947399575E0
1.544671133E1,-2.898278857E0,-5.317405289E0,-5.456080779E-1,6.080502243E0
1.545671533E1,-3.065850118E0,-5.358374391E0,-5.374921426E-1,6.196814573E0
1.546672033E1,-3.159581569E0,-5.374646022E0,-5.489336818E-1,6.258682269E0
1.547672433E1,-3.246543115E0,-5.419102988E0,-5.851057273E-1,6.344215326E0
1.548672933E1,-3.335978617E0,-5.558362030E0,-6.263554949E-1,6.512792258E0
1.549673333E1,-3.390112724E0,-5.801969898E0,-6.550676626E-1,6.751654066E0
1.550673733E1,-3.282501152E0,-6.054627501E0,-6.416024020E-1,6.917006696E0
1.551674233E1,-2.930379487E0,-6.346496533E0,-5.604936272E-1,7.012795112E0
1.552674633E1,-2.473362865E0,-6.594116760E0,-4.561202431E-1,7.057474434E0
1.553675133E1,-1.908955112E0,-6.762068675E0,-2.900318366E-1,7.032339642E0
1.554675533E1,-1.404118207E0,-6.843925016E0,-1.167554480E-1,6.987452282E0
1.555675933E1,-1.147540630E0,-6.890043175E0,1.861022562E-2,6.984976077E0
1.556676433E1,-1.028883668E0,-6.907310003E0,1.304554743E-1,6.984737054E0
1.557676833E1,-1.046551030E0,-6.856635693E0,7.810681432E-2,6.936484900E0
1.558677333E1,-1.170758754E0,-6.801033350E0,-6.036548495E-2,6.901331370E0
1.559677733E1,-1.289812742E0,-6.782205901E0,-3.386593285E-1,6.912063652E0
1.560678233E1,-1.396658914E0,-6.704253745E0,-6.391913027E-1,6.877953178E0
1.561678633E1,-1.403976704E0,-6.557788010E0,-8.256186640E-1,6.757024519E0
1.562679033E1,-1.296172174E0,-6.368911834E0,-9.489343956E-1,6.568377025E0
1.563679533E1,-1.068088079E0,-6.263178388E0,-1.000457136E0,6.431883872E0
1.564679933E1,-7.372572953E-1,-6.218643655E0,-1.041806599E0,6.348262614E0
1.565680433E1,-4.982494318E-1,-6.092016937E0,-9.604466861E-1,6.187356519E0
1.566680833E1,-3.769968903E-1,-5.845436929E0,-7.469733211E-1,5.905017248E0
1.567681333E1,-2.533282793E-1,-5.451938612E0,-4.601858121E-1,5.477187310E0
1.568681733E1,-1.091552371E-1,-4.997765492E0,-1.767426181E-1,5.002080840E0
1.569682133E1,-3.486168444E-2,-4.536499406E0,-6.120865345E-3,4.536637485E0
1.570682633E1,-6.961227179E-2,-4.062068608E0,7.777235359E-2,4.063409379E0
1.571683033E1,-1.888060087E-1,-3.543028816E0,1.719028777E-1,3.552217828E0
1.572683533E1,-2.564682341E-1,-3.011801672E0,3.097261360E-1,3.038528517E0
1.573683933E1,-2.807745248E-1,-2.486135816E0,4.291394359E-1,2.538477158E0
1.574684312E1,-2.482435405E-1,-1.956159538E0,5.525127625E-1,2.047792799E0
1.575684812E1,-2.094975507E-1,-1.547114351E0,6.464491591E-1,1.689777664E0
1.576685212E1,-1.504798490E-1,-1.187671825E0,7.403314689E-1,1.407586315E0
1.577685712E1,-2.156277716E-2,-9.504491168E-1,8.341307482E-1,1.264750008E0
1.578686112E1,2.294067353E-1,-7.585104623E-1,9.617102695E-1,1.246134910E0
1.579686612E1,4.131940788E-1,-5.784992507E-1,1.101562804E0,1.311042082E0
1.580687013E1,4.998182398E-1,-4.817979982E-1,1.214362026E0,1.398793306E0
1.581687412E1,6.038863993E-1,-4.247073926E-1,1.269559449E0,1.468617155E0
1.582687912E1,6.336586672E-1,-4.095484860E-1,1.287771479E0,1.492517555E0
1.583688313E1,5.974743426E-1,-3.474387766E-1,1.257038514E0,1.434515639E0
1.584688812E1,5.153507835E-1,-2.243000695E-1,1.119863127E0,1.252992568E0
1.585689212E1,4.346586227E-1,-1.251880100E-1,1.015363151E0,1.111558583E0
1.586689612E1,4.065288377E-1,8.551143587E-2,9.501702046E-1,1.037015583E0
1.587690112E1,3.745048070E-1,3.692487448E-1,9.187905371E-1,1.058666396E0
1.588690512E1,3.615719354E-1,6.375537899E-1,9.028606752E-1,1.162912937E0
1.589691012E1,4.086993241E-1,8.681644669E-1,8.973730633E-1,1.313781981E0
1.590691412E1,4.182606912E-1,1.115038005E0,1.029482422E0,1.574193703E0
1.591691913E1,4.087525338E-1,1.334338413E0,1.112337468E0,1.784609839E0
1.592692312E1,5.012104619E-1,1.562282759E0,1.210055405E0,2.038669525E0
1.593692712E1,6.470663327E-1,1.831065522E0,1.306312854E0,2.340501881E0
1.594693212E1,8.623035103E-1,2.204257629E0,1.458565140E0,2.780239433E0
1.595693612E1,1.143711873E0,2.523048411E0,1.556555119E0,3.177532686E0
1.596694112E1,1.365272230E0,2.822983092E0,1.577448975E0,3.510206129E0
1.597694512E1,1.536471688E0,3.121483451E0,1.589333294E0,3.824968562E0
1.598695012E1,1.740992673E0,3.407895569E0,1.632042089E0,4.160332808E0
1.599695413E1,2.004716717E0,3.695753411E0,1.753851870E0,4.555598618E0
1.600695812E1,2.232328357E0,3.935324653E0,1.834769733E0,4.882258698E0
1.601696312E1,2.498726333E0,4.227935697E0,1.878922497E0,5.258271892E0
1.602696713E1,2.826024229E0,4.583925295E0,1.909019431E0,5.713417475E0
1.603697212E1,3.054853844E0,4.989203414E0,1.872330931E0,6.142467405E0
1.604697612E1,3.217745578E0,5.337047841E0,1.745761077E0,6.471912237E0
1.605698112E1,3.379783033E0,5.673653920E0,1.609203303E0,6.797265437E0
1.606698512E1,3.524901570E0,5.949077073E0,1.352303690E0,7.045933179E0
1.607698912E1,3.716145283E0,6.121908488E0,1.092334728E0,7.244356042E0
1.608699412E1,3.839861841E0,6.197902996E0,8.976481748E-1,7.346040617E0
1.609699812E1,3.795661569E0,6.122269261E0,7.598006505E-1,7.243377988E0
1.610700313E1,3.745124084E0,5.858376818E0,6.290162703E-1,6.981561058E0
1.611700712E1,3.765972331E0,5.467138449E0,5.452692318E-1,6.661041131E0
1.612701112E1,3.790754585E0,5.010032365E0,6.053885490E-1,6.311635281E0
1.613701612E1,3.887273989E0,4.632456016E0,8.579372482E-1,6.107913239E0
1.614702012E1,4.010452604E0,4.332893803E0,1.119534806E0,6.009247621E0
1.615702512E1,4.125451548E0,4.065519342E0,1.314802427E0,5.939402614E0
1.616702912E1,4.247015746E0,3.850074588E0,1.434138982E0,5.909058445E0
1.617703412E1,4.361873773E0,3.691462432E0,1.613139210E0,5.937596804E0
1.618703813E1,4.542795396E0,3.605377969E0,1.763138271E0,6.061715670E0
1.619704212E1,4.569177448E0,3.602057335E0,1.868458174E0,6.110919370E0
1.620704712E1,4.528220041E0,3.568404270E0,1.906530126E0,6.072325987E0
1.621705113E1,4.472456900E0,3.486797605E0,1.892862405E0,5.978591501E0
1.622705612E1,4.372572423E0,3.328342153E0,1.867403628E0,5.803830407E0
1.623706012E1,4.176341620E0,3.043728347E0,1.820381928E0,5.479042064E0
1.624706512E1,3.895243744E0,2.675384166E0,1.811825551E0,5.060959997E0
1.625706912E1,3.587013618E0,2.385195624E0,1.859131572E0,4.691715578E0
1.626707312E1,3.363870420E0,2.240473821E0,1.975537649E0,4.498677156E0
1.627707812E1,3.300162082E0,2.180819942E0,2.173258615E0,4.513324539E0
1.628708212E1,3.373707776E0,2.143952370E0,2.270587274E0,4.597173315E0
1.629708713E1,3.551409922E0,2.058588577E0,2.225459925E0,4.669365186E0
1.630709112E1,3.767183874E0,1.878944278E0,2.081942941E0,4.696444650E0
1.631709612E1,3.814085560E0,1.551113116E0,1.923364698E0,4.544505729E0
1.632710012E1,3.733741309E0,1.122269256E0,1.767997161E0,4.280902523E0
1.633710412E1,3.561691666E0,7.143958515E-1,1.686846871E0,4.005179313E0
1.634710912E1,3.367279932E0,3.114569119E-1,1.642912939E0,3.759619991E0
1.635711312E1,3.190687003E0,-8.047610611E-2,1.605656820E0,3.572827141E0
1.636711812E1,3.039210788E0,-4.850999209E-1,1.611618934E0,3.474109920E0
1.637712213E1,2.803156353E0,-8.482301393E-1,1.640737483E0,3.356962823E0
1.638712712E1,2.457394704E0,-1.227526740E0,1.632191485E0,3.195255807E0
1.639713112E1,2.106913767E0,-1.626883382E0,1.560543505E0,3.085633030E0
1.640713512E1,1.742877231E0,-2.000128699E0,1.483817803E0,3.039712343E0
1.641714012E1,1.372703456E0,-2.300945140E0,1.458416621E0,3.050515097E0
1.642714412E1,9.594076359E-1,-2.539739873E0,1.464331957E0,3.084640937E0
1.643714912E1,6.668094563E-1,-2.773972315E0,1.485388073E0,3.216509752E0
1.644715312E1,4.173303992E-1,-2.939954302E0,1.481457282E0,3.318465254E0
