"Time (s)","Linear Acceleration x (m/s^2)","Linear Acceleration y (m/s^2)","Linear Acceleration z (m/s^2)","Absolute acceleration (m/s^2)"
9.554167045E-4,-2.954479663E-1,2.585597831E-1,3.316265899E-1,5.139249530E-1
1.095941674E-2,-3.070991282E-1,1.138558137E-1,2.999580699E-1,4.441259558E-1
2.096341667E-2,-2.715767084E-1,1.899924088E-1,4.439931178E-1,5.540585823E-1
3.096841672E-2,-1.357211843E-1,2.115148401E-1,5.340191889E-1,5.901993405E-1
4.097241675E-2,-1.285826111E-1,7.265954822E-2,4.707569933E-1,4.933812365E-1
5.097641668E-2,-7.278102413E-2,2.721001804E-3,2.411795193E-1,2.519365830E-1
6.098141673E-2,-5.086697549E-2,-6.202726364E-2,-5.828504562E-3,8.042886357E-2
7.098541665E-2,-7.958382100E-2,-9.891559303E-2,-1.348590124E-1,1.852156374E-1
8.098941669E-2,-1.002896887E-1,-5.071056247E-2,-1.334018862E-1,1.744294873E-1
9.099441674E-2,-1.175955467E-1,1.521533221E-2,-1.689880407E-1,2.064392812E-1
1.009984167E-1,-7.023397699E-2,3.471579641E-2,-2.837507576E-1,2.943679508E-1
1.110024167E-1,-1.628025636E-2,1.155292869E-2,-4.118784553E-1,4.123619512E-1
1.210074167E-1,6.993562281E-3,8.241358101E-3,-5.582494658E-1,5.583540955E-1
1.310114167E-1,2.182619423E-3,1.586852467E-1,-4.549291652E-1,4.818156460E-1
1.410154167E-1,1.648963054E-1,1.349207005E-1,-5.304617429E-1,5.716502843E-1
1.510194167E-1,2.348899618E-1,-2.699922591E-2,-7.848173779E-1,8.196588126E-1
1.610244167E-1,2.765686226E-1,-1.160768786E-1,-8.615872264E-1,9.123029066E-1
1.710284167E-1,1.908936109E-1,-1.772410932E-1,-8.037746358E-1,8.449310273E-1
1.810324168E-1,9.643520415E-2,-1.594018230E-1,-7.046549749E-1,7.288671508E-1
1.910374167E-1,9.002153948E-2,-1.320222357E-1,-6.004856586E-1,6.213829532E-1
2.010414167E-1,1.053130317E-1,-8.251386076E-2,-6.114170283E-1,6.258834990E-1
2.110454167E-1,-3.862549330E-1,4.130815199E-1,-6.800025290E-1,8.844391753E-1
2.210504167E-1,-1.284494407E-1,1.077255929E-1,-8.077957660E-1,8.250079162E-1
2.310544167E-1,1.686516796E-1,-1.902274668E-2,-5.441524136E-1,5.700062308E-1
2.410584167E-1,3.716111661E-1,-2.198778203E-1,-3.782984805E-1,5.740652010E-1
2.510634167E-1,1.111358206E0,-7.096783179E-1,-2.162785667E-1,1.336239797E0
2.610674168E-1,9.404006767E-1,-8.067277721E-1,7.764903581E-1,1.462224472E0
2.710714167E-1,1.104269334E0,-1.079404196E0,1.704875007E0,2.300244110E0
2.810754167E-1,2.069954979E0,-1.182083641E0,2.228173326E0,3.262942188E0
2.910804168E-1,1.893006685E0,-9.316339463E-1,1.683843157E0,2.699396951E0
3.010844167E-1,2.076840222E0,-9.745615724E-1,-3.777389020E-1,2.325020912E0
3.110884167E-1,2.792360639E0,-1.197760904E0,-2.921436755E0,4.215056564E0
3.210934167E-1,3.546947912E0,-1.893828365E0,-4.530211603E0,6.057247109E0
3.310974167E-1,3.852510538E0,-2.709453553E0,-5.168286088E0,6.992435705E0
3.411018751E-1,4.045926492E0,-3.152342716E0,-6.752827735E0,8.479827132E0
3.511068750E-1,2.501788227E0,-2.065554657E0,-7.117993954E0,7.822486708E0
3.611108750E-1,-1.194360163E0,-1.640515289E-1,1.110648792E0,1.639191826E0
3.711148751E-1,-4.748745148E0,2.214673859E0,3.591922356E0,6.352736969E0
3.811198750E-1,-5.747496067E0,3.436063069E0,1.152613090E0,6.794759553E0
3.911238750E-1,-5.257134529E0,2.521369675E0,-1.600610965E0,6.046215673E0
4.011278751E-1,-2.758502921E0,3.140416735E-1,-2.421043734E0,3.683668457E0
4.111328750E-1,-6.556854209E-1,-1.278672920E0,-2.601279479E0,2.971797896E0
4.211368751E-1,7.161473849E-1,-1.672795720E0,-2.441085066E0,3.044668930E0
4.311408751E-1,1.218432565E0,-1.252978207E0,-2.892671378E0,3.379656788E0
4.411448750E-1,4.398208371E-1,-5.876203224E-1,-2.967388269E0,3.056817487E0
4.511498751E-1,-6.915516570E-1,-5.252486578E-1,-4.472891933E-1,9.768303175E-1
4.611538750E-1,-1.411616092E0,-1.000057187E0,2.110457765E0,2.728883718E0
4.711578750E-1,-1.453065249E0,-5.577857816E-1,-6.234470898E-1,1.676666297E0
4.811628751E-1,-2.219275618E-1,-1.776404580E-1,-5.228155144E0,5.235877594E0
4.911668750E-1,7.747648448E-2,5.348021311E-1,-7.624892002E-1,9.345617719E-1
5.011708750E-1,-1.467370316E0,1.173384739E0,3.618075782E-1,1.913351017E0
5.111758751E-1,-2.439298887E0,1.625416024E0,-6.134050816E-1,2.994732393E0
5.211798750E-1,3.182839016E-1,2.551071484E0,5.562680199E0,6.128024262E0
5.311838750E-1,1.167764468E0,3.543009228E-1,-5.111394433E0,5.255050528E0
5.411888751E-1,5.357741722E0,5.150739178E-1,8.567948484E-1,5.450210538E0
5.511928750E-1,2.807157018E0,-2.131543994E-1,-1.624188108E0,3.250161894E0
5.611968751E-1,1.369852792E-2,-4.304307935E-1,1.206882852E0,1.281415053E0
5.712008750E-1,-1.717421231E0,2.023949379E-1,2.059668265E0,2.689374046E0
5.812058750E-1,-7.409376059E-1,-3.064405856E-1,2.174712233E0,2.317815278E0
5.912098751E-1,-6.923132569E-2,-1.311795350E0,1.713544089E0,2.159127916E0
6.012138750E-1,-9.548093855E-1,-1.288466129E0,1.400920365E0,2.129409260E0
6.112188750E-1,-1.343251908E0,-7.780360696E-1,7.937957776E-1,1.743495785E0
6.212228751E-1,-8.342361443E-1,-3.800003126E-1,6.375090587E-1,1.116587651E0
6.312268750E-1,-4.666344139E-1,3.107648939E-2,7.294904387E-1,8.665273940E-1
6.412318751E-1,-5.859193674E-1,5.058069581E-1,5.044346166E-1,9.239028446E-1
6.512358751E-1,-5.279544568E-1,9.747007361E-1,4.135864270E-1,1.183144609E0
6.612398750E-1,-3.792794971E-1,1.281151554E0,7.650707459E-1,1.539654341E0
6.712448751E-1,-4.427831827E-1,1.441680428E0,1.190137011E0,1.921178157E0
6.812488750E-1,-4.573620455E-1,1.484794580E0,1.601894429E0,2.231560160E0
6.912528750E-1,-3.484545842E-1,1.296008452E0,2.127476086E0,2.515395198E0
7.012568751E-1,-4.393811265E-1,9.459871066E-1,3.002893147E0,3.178885753E0
7.112618750E-1,-6.373658019E-1,5.137737894E-1,3.915595563E0,4.000260902E0
7.212658750E-1,-6.805710246E-1,2.100647306E-1,4.600513262E0,4.655322371E0
7.312698751E-1,-5.180757321E-1,1.996151716E-1,4.865358217E0,4.896933659E0
7.412748750E-1,-5.460458882E-1,4.176166204E-1,4.382273539E0,4.435864191E0
7.512788750E-1,-8.836138339E-1,6.202100712E-1,3.448499511E0,3.613527753E0
7.612828751E-1,-1.285763253E0,6.564014125E-1,2.411211056E0,2.810336050E0
7.712878750E-1,-1.524704166E0,7.116035137E-1,1.672715321E0,2.372567997E0
7.812918751E-1,-1.618591007E0,7.829187870E-1,1.162879631E0,2.141281792E0
7.912958751E-1,-1.668069415E0,7.830830938E-1,7.531576288E-1,1.990708698E0
8.013008750E-1,-1.747982873E0,6.892192027E-1,5.517964786E-1,1.958301966E0
8.113048751E-1,-1.933551571E0,4.321349645E-1,4.877911019E-1,2.040417228E0
8.213088750E-1,-2.017013265E0,1.681054035E-1,5.116997820E-1,2.087687382E0
8.313128750E-1,-1.984069614E0,1.485397428E-2,5.497324115E-1,2.058873138E0
8.413178751E-1,-2.015619435E0,-1.020116937E-1,3.601960856E-1,2.050090075E0
8.513218750E-1,-1.943033562E0,-2.884633210E-1,1.696581316E-1,1.971642562E0
8.613258750E-1,-1.988864623E0,-3.819860271E-1,5.667121410E-2,2.026007759E0
8.713308751E-1,-1.910052050E0,-4.147947541E-1,-1.200205332E-1,1.958253929E0
8.813348750E-1,-1.610592309E0,-3.484496140E-1,-4.907533014E-1,1.719378818E0
8.913388751E-1,-1.130458136E0,-8.577689946E-2,-8.928990662E-1,1.443108456E0
9.013438750E-1,-8.639135411E-1,2.805999854E-1,-9.827239931E-1,1.338218743E0
9.113478750E-1,-7.814990830E-1,3.188156328E-1,-1.138205550E0,1.417002505E0
9.213518751E-1,-6.946881035E-1,1.334954417E-1,-1.321081898E0,1.498555963E0
9.313568750E-1,-6.157422137E-1,-1.472472158E-1,-1.480700945E0,1.610371232E0
9.413608750E-1,-6.232620254E-1,-5.281243184E-1,-1.690375666E0,1.877429290E0
9.513648751E-1,-5.669109464E-1,-9.919207862E-1,-1.770033454E0,2.106730476E0
9.613688750E-1,-4.425566031E-1,-1.368762141E0,-1.568390468E0,2.128195199E0
9.713738750E-1,-3.950891988E-1,-1.480745968E0,-1.435113128E0,2.099584194E0
9.813778751E-1,-2.137236258E-1,-1.496500121E0,-1.417184980E0,2.072101269E0
9.913818750E-1,5.587599277E-2,-1.416971264E0,-1.507565977E0,2.069706468E0
1.001386875E0,2.753218500E-1,-1.133026671E0,-1.858269108E0,2.193790244E0
1.011390875E0,5.303661409E-1,-8.620748842E-1,-2.189328518E0,2.411974442E0
1.021394875E0,6.244634821E-1,-8.510476202E-1,-2.021131606E0,2.280177550E0
1.031399875E0,3.727538583E-1,-1.113351960E0,-1.894670949E0,2.228962995E0
1.041403875E0,1.507195848E-1,-1.398981428E0,-1.888555346E0,2.355102275E0
1.051407875E0,2.784941107E-2,-1.559610874E0,-1.862529974E0,2.429440177E0
1.061412875E0,-1.548962510E-1,-1.639116635E0,-1.702440226E0,2.368332518E0
1.071416875E0,-1.926841745E-1,-1.406485452E0,-1.613415783E0,2.149055376E0
1.081420875E0,1.047057983E-1,-8.606964031E-1,-1.803795277E0,2.001359289E0
1.091424875E0,4.965306428E-1,-3.280071634E-1,-1.808497024E0,1.903888879E0
1.101429875E0,1.019046897E0,-1.028221178E-1,-1.178323882E0,1.561241857E0
1.111433875E0,1.331941639E0,-2.072215220E-1,-1.784119982E-1,1.359720607E0
1.121437875E0,1.444280977E0,-3.598325349E-1,6.210544091E-1,1.612803638E0
1.131442875E0,1.652907878E0,-4.010985285E-1,1.120941646E0,2.037030843E0
1.141446875E0,1.927467397E0,-4.303232047E-1,1.615371677E0,2.551418092E0
1.151450875E0,1.918072383E0,-4.275546943E-1,1.639326550E0,2.559139742E0
1.161455875E0,1.599724528E0,-1.914987977E-1,1.130998272E0,1.968488620E0
1.171459875E0,1.383336618E0,3.358522265E-1,5.266230458E-1,1.517810512E0
1.181463875E0,1.071068113E0,5.891215950E-1,3.146930534E-1,1.262253094E0
1.191468875E0,7.836862341E-1,5.239651939E-1,6.669872117E-1,1.154805429E0
1.201472875E0,5.005660987E-1,3.513372615E-1,1.256825675E0,1.397717807E0
1.211476875E0,1.908808932E-1,1.066435656E-1,1.707817910E0,1.721757933E0
1.221480875E0,-1.186961389E-1,-5.444167078E-2,1.846623209E0,1.851234708E0
1.231485875E0,-4.309026638E-1,-1.468013656E-1,1.690553421E0,1.750770864E0
1.241489875E0,-5.401473632E-1,-1.471633083E-1,1.365607275E0,1.475906313E0
1.251493875E0,-4.360803732E-1,-3.739813350E-2,1.083332355E0,1.168406481E0
1.261498875E0,-3.809876150E-1,1.049042382E-1,7.730937105E-1,8.682340394E-1
1.271502875E0,-4.283155632E-1,1.028475532E-1,3.960237300E-1,5.923399663E-1
1.281506875E0,-3.803467602E-1,-6.033997647E-2,2.257838005E-1,4.464111281E-1
1.291511875E0,-4.106306595E-1,-9.908523537E-2,1.799264270E-1,4.591393487E-1
1.301515875E0,-2.669622320E-1,7.638963327E-2,2.326957941E-2,2.786497492E-1
1.311519875E0,-2.015544006E-1,2.419221157E-1,-1.595243222E-1,3.529851213E-1
1.321524875E0,-3.612190560E-1,2.871182422E-1,-4.729549617E-1,6.607590235E-1
1.331528875E0,-5.472096303E-1,4.134937486E-1,-7.758167589E-1,1.035522623E0
1.341532875E0,-7.508713675E-1,4.010618372E-1,-9.116329604E-1,1.247290288E0
1.351537542E0,-8.563770649E-1,2.035670853E-1,-8.772144949E-1,1.242709341E0
1.361541542E0,-7.364389774E-1,5.349003643E-2,-6.617030829E-1,9.914910597E-1
1.371545542E0,-3.678804964E-1,-7.590511836E-2,-1.960676658E-1,4.237218146E-1
1.381549542E0,2.478488535E-2,-4.129736388E-1,2.918889123E-1,5.063207027E-1
1.391554542E0,4.518941680E-1,-6.421099404E-1,6.470353425E-1,1.017432184E0
1.401558542E0,6.388419315E-1,-5.657278719E-1,8.234329748E-1,1.185836794E0
1.411562542E0,6.199250194E-1,-6.086769500E-1,7.287671381E-1,1.133973633E0
1.421567542E0,5.617113099E-1,-8.542040934E-1,5.403610790E-1,1.156362540E0
1.431571542E0,3.801625729E-1,-1.094720100E0,2.285319918E-1,1.181169992E0
1.441575542E0,1.897088188E-1,-1.223403137E0,-1.704808348E-1,1.249707320E0
1.451580542E0,1.142879230E-1,-1.240735161E0,-6.197943342E-1,1.391628717E0
1.461584542E0,8.645225286E-2,-1.296577532E0,-1.177686535E0,1.753719722E0
1.471588542E0,1.471095139E-1,-1.425287174E0,-1.647051891E0,2.183086043E0
1.481593542E0,1.449419510E-1,-1.625592025E0,-2.029946283E0,2.604657274E0
1.491597542E0,1.918857372E-1,-2.010747097E0,-2.451420604E0,3.176379543E0
1.501601542E0,2.230338550E-1,-2.406744222E0,-2.610391780E0,3.557570392E0
1.511605542E0,9.716932207E-1,-1.859030854E0,-2.769243087E0,3.474030902E0
1.521610542E0,1.175431849E0,-1.687199312E0,-3.336654555E0,3.919380713E0
1.531614542E0,7.146437734E-1,-1.803274291E0,-3.908494120E0,4.363351942E0
1.541618542E0,9.150249302E-2,-2.005596138E0,-4.562709258E0,4.984887597E0
1.551623542E0,2.772270191E-1,-2.533936219E0,-5.204618347E0,5.795320502E0
1.561627542E0,1.788590763E0,-3.124433956E0,-5.156278830E0,6.288748352E0
1.571631542E0,2.688450354E0,-4.249765107E0,-5.590025872E0,7.519086249E0
1.581636542E0,-1.126050943E0,-4.570203050E0,-5.921033242E0,7.563952756E0
1.591640542E0,-4.323735309E0,-3.997025935E0,-5.098135872E0,7.788574498E0
1.601644542E0,-5.619333286E0,-1.920332040E0,-3.948798977E0,7.131451121E0
1.611649542E0,-4.520340334E0,-7.113414853E-1,-2.740920929E0,5.334053897E0
1.621653542E0,-2.163312501E0,-2.204991308E0,-2.062494224E0,3.714268444E0
1.631657542E0,-8.808853769E-1,-4.037148359E0,-1.602870330E0,4.432123556E0
1.641661542E0,-1.032400183E0,-4.174558804E0,-1.062258990E0,4.429580737E0
1.651666542E0,-2.184760673E0,-2.664320650E0,3.664976299E-1,3.464982573E0
1.661670542E0,-4.647395652E0,-1.212982960E0,2.920008280E0,5.621037481E0
1.671674542E0,-4.317829621E0,-1.636607887E0,3.390251303E0,5.728520045E0
1.681679542E0,-2.795394174E0,-2.442062720E0,4.958839992E0,6.194190261E0
1.691683542E0,-2.866960001E-1,-2.133329295E0,6.330521355E0,6.686463124E0
1.701687542E0,2.811964014E0,-2.204887959E0,6.186102145E0,7.143985742E0
1.711692542E0,5.135185584E0,-2.870854831E0,5.590547444E0,8.115796891E0
1.721696542E0,6.243978471E0,-2.717450205E0,5.240847695E0,8.592920768E0
1.731700542E0,6.467038638E0,-2.050498077E0,5.143327832E0,8.513574590E0
1.741705542E0,6.350580813E0,-1.279974802E0,5.631811244E0,8.584026448E0
1.751709542E0,6.954440315E0,-3.678106222E-1,6.228314949E0,9.342988380E0
1.761713542E0,8.071167288E0,1.033425200E-1,7.148932157E0,1.078246966E1
1.771717542E0,9.416602255E0,1.185838723E-1,7.784719210E0,1.221835968E1
1.781722542E0,1.013187753E1,9.019622505E-2,8.041720126E0,1.293570022E1
1.791726542E0,9.968786988E0,1.400221038E-1,8.043333957E0,1.280982207E1
1.801730542E0,8.940959913E0,-1.199673235E-2,7.898714772E0,1.193023902E1
1.811735542E0,7.832052421E0,-2.607647681E-1,7.681618180E0,1.097343616E1
1.821739542E0,6.957939289E0,-2.594655168E-1,7.084628572E0,9.933388320E0
1.831743542E0,6.420438668E0,1.292193729E-1,6.278116270E0,8.980727935E0
1.841748542E0,6.083475909E0,6.277512252E-1,6.284510200E0,8.769140163E0
1.851752542E0,5.924653253E0,3.240632164E-1,8.703458292E0,1.053359955E1
1.861756542E0,6.894313397E0,3.959976515E0,-2.220702338E-1,7.953759262E0
1.871761542E0,9.270937003E0,6.710282224E0,-1.393358979E1,1.803116982E1
1.881765542E0,8.337895632E0,5.651110564E0,-1.597447271E1,1.888489694E1
1.891769542E0,6.706989073E0,3.359090906E0,-1.409934433E1,1.597055743E1
1.901773542E0,6.851980725E0,1.141271245E0,1.100000428E0,7.032932593E0
1.911778542E0,4.638196812E0,4.050002001E0,-2.474999501E0,6.636339986E0
1.921782542E0,2.707822765E0,5.006593618E0,-1.043669639E1,1.188793150E1
1.931786542E0,4.900452036E-1,2.315210300E0,-5.429105819E0,5.922460049E0
1.941791542E0,-2.067259120E0,1.751053977E0,-3.294927070E0,4.265711511E0
1.951795542E0,-2.305364758E0,1.778416607E0,-1.560152326E0,3.303263171E0
1.961799542E0,-6.896720695E-1,6.049552703E-1,1.291915401E0,1.584507446E0
1.971804542E0,6.455799705E-1,-4.089016378E-1,3.407603500E0,3.492239348E0
1.981808542E0,4.213070905E-1,-6.172759384E-1,5.600409358E0,5.650054356E0
1.991812542E0,-9.915410095E-1,3.657059169E-1,6.545379633E0,6.630149993E0
2.001817542E0,-2.232989677E0,1.308116866E0,1.169950669E0,2.840105139E0
2.011821542E0,-2.812113118E0,1.883582874E0,-3.647006051E0,4.975592203E0
2.021825542E0,-2.994310604E0,2.876598551E0,-2.318379491E0,4.755586050E0
2.031829542E0,-3.733329080E0,4.335185326E0,8.505172777E-1,5.784026061E0
2.041834542E0,-5.244841343E0,6.041679427E0,-1.629811376E0,8.164957816E0
2.051838542E0,-6.087931488E0,6.317866811E0,-6.565264844E0,1.095815009E1
2.061842542E0,-3.456472190E0,8.271732048E0,-4.592442935E0,1.007269990E1
2.071847542E0,-6.672041434E-1,8.359045596E0,-2.061657488E0,8.635348067E0
2.081851542E0,-1.257208668E0,6.558095573E0,-3.712847453E-1,6.687828014E0
2.091855542E0,-2.480145636E0,6.499163241E0,-1.092202581E0,7.041530493E0
2.101860542E0,-2.447398304E0,5.033494318E0,-2.743608309E0,6.233234318E0
2.111864542E0,-1.193878645E0,3.210533622E0,-3.275597345E0,4.739452534E0
2.121868542E0,5.192193013E-1,4.604375347E0,-3.615014765E0,5.876920348E0
2.131873542E0,2.218602603E0,5.435857599E0,-7.617454344E-1,5.920388624E0
2.141877542E0,3.422717384E0,5.999803423E0,1.240358162E-1,6.908546901E0
2.151881542E0,2.219945124E0,4.339954023E0,-4.931791942E0,6.934401851E0
2.161885542E0,7.981683254E-2,4.149868644E0,-3.688870361E0,5.552976231E0
2.171890542E0,-4.757803363E-1,3.812315608E0,-1.868304684E0,4.272081415E0
2.181894542E0,2.130258191E0,9.791203541E-1,-8.723478574E-1,2.501533013E0
2.191898542E0,3.866015267E0,1.235675127E0,8.817244524E-1,4.153360697E0
2.201903542E0,3.512096168E0,1.049582519E0,2.956219502E0,4.709105722E0
2.211907542E0,2.260300852E0,6.380019790E-1,4.383200322E0,4.972771012E0
2.221911542E0,1.295067050E0,1.000672022E-1,4.874487475E0,5.044585241E0
2.231916542E0,8.080214685E-1,-2.092124990E-1,5.223131216E0,5.289401503E0
2.241920542E0,6.961104387E-1,-1.491155182E0,5.363486027E0,5.610267006E0
2.251924542E0,5.886362761E-1,-3.707451643E0,5.331543272E0,6.520509490E0
2.261929542E0,5.795619822E-1,-5.198000468E0,5.747270365E0,7.770856941E0
2.271933542E0,8.089114147E-1,-6.212359652E0,6.515263549E0,9.038606598E0
2.281937542E0,7.715845442E-1,-6.758809437E0,7.390812757E0,1.004494703E1
2.291941542E0,5.112355131E-1,-6.394420897E0,8.386010031E0,1.055817904E1
2.301946542E0,-1.679349571E-1,-5.258606858E0,8.597960488E0,1.007998377E1
2.311950542E0,-7.698292100E-1,-4.522907554E0,7.078034082E0,8.434921234E0
2.321954542E0,-1.637165419E0,-5.097331295E0,4.028766375E0,6.700302639E0
2.331959542E0,-2.518301057E0,-5.230135596E0,1.547101926E0,6.007468929E0
2.341963875E0,-2.836800647E0,-4.811940978E0,-3.612462455E-1,5.597563107E0
2.351967875E0,-3.290609486E0,-4.843532023E0,-2.557004069E0,6.389536998E0
2.361972875E0,-3.189901137E0,-5.472082855E0,-4.061893191E0,7.524502397E0
2.371976875E0,-1.759618979E0,-5.839009670E0,-4.325240382E0,7.476496321E0
2.381980875E0,7.052233243E-1,-5.411054880E0,-3.840035211E0,6.672535146E0
2.391985875E0,2.721875963E0,-4.739655067E0,-4.653505992E0,7.178304600E0
2.401989875E0,2.845695432E0,-3.927454886E0,-5.995166581E0,7.711349214E0
2.411993875E0,1.509580927E0,-3.905238390E0,-7.044920130E0,8.195158394E0
2.421997875E0,1.877353835E-1,-3.652561198E0,-7.119292036E0,8.003797035E0
2.432002875E0,-3.857261986E-1,-2.615298178E0,-7.336167603E0,7.797943598E0
2.442006875E0,-4.913181424E-1,-2.073046110E0,-6.748581487E0,7.076882490E0
2.452010875E0,4.680485630E-1,-2.203836629E0,-6.055500491E0,6.461041057E0
2.462015875E0,3.321457642E0,-1.845691747E0,-4.516530288E0,5.902347392E0
2.472019875E0,3.956122030E0,-3.141424795E0,7.085396311E0,8.701855673E0
2.482023875E0,-6.577456874E-1,-6.308989568E0,6.270416071E0,8.919310314E0
2.492028875E0,1.858777816E0,-6.877381030E0,5.163822323E0,8.798777516E0
2.502032875E0,-8.572632104E-1,-1.028804730E1,9.912294699E0,1.431196715E1
2.512036875E0,-5.946649894E0,-7.769673155E0,6.931842581E0,1.199086767E1
2.522041875E0,-8.519294972E0,-5.751935858E0,6.799402562E0,1.232457010E1
2.532045875E0,-9.075932361E0,-4.470593977E0,3.711736482E0,1.077662964E1
2.542049875E0,-7.835008188E0,-3.513769056E0,3.030120122E0,9.105797837E0
2.552053875E0,-5.203986847E0,-2.703869462E-1,3.672030380E0,6.374825121E0
2.562058875E0,-1.569376309E0,2.384375845E0,1.527765183E0,3.237631329E0
2.572062875E0,1.855822194E0,5.248430364E0,-1.385585457E0,5.736718955E0
2.582066875E0,1.074678242E1,9.696897308E0,-8.545009273E0,1.680893611E1
2.592071875E0,1.754609084E1,1.434587463E1,-1.444115384E1,2.687408318E1
2.602075875E0,1.441904669E1,1.570568907E1,-1.203586894E1,2.448345804E1
2.612079875E0,7.035813677E0,1.394318624E1,-5.318352538E0,1.649848449E1
2.622084875E0,1.129285915E-1,1.253154676E1,1.493285322E-1,1.253294523E1
2.632088875E0,-1.394336692E0,1.065597048E1,-2.321648669E-1,1.074931543E1
2.642092875E0,1.300685786E0,7.258920622E0,-1.097777317E0,7.455791517E0
2.652097875E0,1.549680402E0,2.454445953E0,-1.515939190E0,3.274734480E0
2.662101875E0,1.690959218E0,2.807785594E0,-2.841388373E0,4.337797933E0
2.672105875E0,-1.067852144E-1,2.528938896E0,-3.605142910E0,4.404996076E0
2.682110875E0,-2.122132754E0,2.363428195E0,-2.983937643E0,4.358110154E0
2.692114875E0,-3.821776988E0,2.315019096E0,-9.941950607E-1,4.577522974E0
2.702118875E0,-5.718716072E0,2.229186648E-1,1.674494044E0,5.962997279E0
2.712122875E0,-3.792798187E0,-2.170585853E0,3.157035107E0,5.391069625E0
2.722127875E0,-1.929181800E0,-3.346308308E0,5.145881311E0,6.434253351E0
2.732131875E0,1.024736238E-1,-3.636710858E0,4.949952809E0,6.143142480E0
2.742135875E0,1.706392944E-1,-2.791688794E0,1.871291442E0,3.365170984E0
2.752140875E0,7.686512884E-1,-1.754331341E0,-2.211282474E-1,1.928056265E0
2.762144875E0,8.546003884E-1,-6.663849485E-1,-2.135464552E0,2.394706574E0
2.772148875E0,-2.414756808E-1,-3.551475996E-1,-2.787961194E0,2.820845253E0
2.782153875E0,-1.052590034E0,-8.672789061E-1,-2.183039253E0,2.574058830E0
2.792157875E0,-4.621782508E-1,-5.589599025E-1,-1.801226011E0,1.941767249E0
2.802161875E0,-1.087509021E0,-2.497328264E-1,-1.719542747E0,2.049846242E0
2.812166875E0,-2.933919976E0,5.241970360E-2,-1.255839835E0,3.191828307E0
2.822170875E0,-2.583023010E0,3.190123916E-1,4.457145381E-1,2.640537488E0
2.832174875E0,-1.195086972E0,3.084201604E-1,2.255648807E0,2.571246275E0
2.842179875E0,-3.476962003E-1,1.100557083E0,2.128328025E0,2.421135833E0
2.852183875E0,9.268342593E-1,9.996049047E-1,3.768433424E0,4.007408412E0
2.862187875E0,1.231326553E0,-6.046775275E-1,3.290311278E0,3.564820935E0
2.872191875E0,2.461815199E-1,-1.540669988E0,2.751960472E0,3.163472110E0
2.882196875E0,3.124968392E-1,-2.561310251E0,5.141160854E0,5.752347295E0
2.892200875E0,1.560116658E0,-3.145130761E0,7.586418493E0,8.359399323E0
2.902204875E0,2.029713856E0,-3.327916476E0,7.427941407E0,8.388628014E0
2.912209875E0,1.614790463E0,-2.450526565E0,5.440200911E0,6.181295547E0
2.922213875E0,-7.970763579E-1,-1.434032562E0,4.266132633E0,4.570740394E0
2.932217875E0,-2.033479463E0,-1.108601097E0,3.410050560E0,4.122193584E0
2.942222875E0,-3.049267707E0,-7.988296455E-1,2.124242576E0,3.801127316E0
2.952226875E0,-3.596997154E0,3.955214542E-1,-4.294019759E-1,3.644065286E0
2.962230875E0,-4.172649396E0,2.313488880E0,-1.632689960E0,5.042708626E0
2.972235875E0,-5.156965878E0,4.086495643E0,-4.465577066E0,7.952051449E0
2.982239875E0,-4.145397278E0,5.538632939E0,-3.800422956E0,7.893287533E0
2.992243875E0,-9.876748306E-1,6.972388929E0,-2.616062994E0,7.512223009E0
3.002247875E0,3.787098321E-1,7.821901070E0,-1.133758158E0,7.912709084E0
3.012252875E0,1.311105671E0,6.485569049E0,-2.811411452E-1,6.622736920E0
3.022256875E0,6.315710358E0,4.278424065E0,1.341250699E0,7.745454360E0
3.032260875E0,1.048253739E1,2.469676196E0,5.989411751E0,1.232298437E1
3.042265875E0,1.305692962E1,2.167036593E-2,7.401503806E0,1.500886868E1
3.052269875E0,1.058595592E1,-2.531094180E0,4.105426589E0,1.163285984E1
3.062273875E0,3.212027001E0,-3.610781381E0,1.340877646E-1,4.834546428E0
3.072278875E0,5.778551799E-1,-1.965854368E0,-3.691803324E0,4.222311190E0
3.082282875E0,1.119063520E0,-3.736324024E-1,-5.093126562E0,5.227986468E0
3.092286875E0,2.479626695E0,-4.763775124E0,-1.929018663E0,5.706418753E0
3.102291875E0,3.011061707E-1,-9.775895530E0,-8.631741607E-1,9.818547142E0
3.112295875E0,2.321230593E-1,-5.230311597E0,-4.814290389E0,7.112484269E0
3.122299875E0,1.710470500E0,-1.479246742E0,-2.960781500E0,3.725601608E0
3.132304875E0,4.060403028E0,-6.367717248E-1,-3.814167129E0,5.607158092E0
3.142308875E0,4.315892731E0,-9.032270032E-1,-2.296517336E0,4.971593402E0
3.152312875E0,3.076862764E0,7.714740318E-1,-2.176948793E0,3.847253916E0
3.162316875E0,-2.127936554E0,-4.007083438E0,-5.800924416E0,7.364479325E0
3.172321875E0,1.609460434E0,-5.719362189E0,-6.217807503E0,8.600150980E0
3.182325875E0,1.788896864E0,-3.355404822E0,-2.179362085E0,4.382751716E0
3.192329875E0,-3.899116355E-1,-1.419298748E0,-2.124150190E-1,1.487131521E0
3.202334875E0,-9.117855728E-2,1.697247899E-1,1.120607185E0,1.137049030E0
3.212338875E0,-4.457472825E-1,2.749290633E-1,1.111317714E0,1.228537216E0
3.222342875E0,-1.494662926E0,1.253233146E0,1.489444286E0,2.454191285E0
3.232347875E0,-1.898695003E0,3.400737115E0,1.649804760E0,4.229883141E0
3.242351875E0,-2.401143905E0,2.115459473E0,1.496593677E0,3.532768527E0
3.252355875E0,-2.432951004E0,1.775095389E0,8.690418416E-1,3.134557058E0
3.262360875E0,-3.343282082E0,1.223058590E0,1.024209988E0,3.704377612E0
3.272364875E0,-3.393379564E0,1.746698971E0,6.760547814E-1,3.875955653E0
3.282368875E0,-2.869760233E0,3.215454639E0,5.431931779E-1,4.343930381E0
3.292372875E0,-2.757376455E0,4.355050657E0,4.958938810E-1,5.178368651E0
3.302377875E0,-2.587297909E0,5.309970555E0,3.387850437E-1,5.916474716E0
3.312381875E0,-2.829861757E0,5.348344662E0,-6.089290380E-3,6.050863183E0
3.322385875E0,-2.914530024E0,4.547466736E0,-6.325479886E-1,5.438203374E0
3.332390875E0,-2.908899448E0,4.462872144E0,-2.839647657E-1,5.334750206E0
3.342394875E0,-2.742867467E0,5.324195076E0,-9.264372334E-1,6.060417568E0
3.352398375E0,-1.399514109E0,3.711699645E0,-1.409448529E0,4.209738609E0
3.362403375E0,-7.679186323E-1,2.081205314E0,-1.632872685E0,2.754521337E0
3.372407375E0,5.168776377E-1,3.361330390E-1,-1.070247456E0,1.235142716E0
3.382411375E0,1.907829962E0,1.063421416E-1,-1.331770608E0,2.329106431E0
3.392416375E0,2.591459080E0,1.053937817E0,-1.622895874E0,3.234228827E0
3.402420375E0,2.526283091E0,2.229641562E0,-1.547919951E0,3.708026958E0
3.412424375E0,2.183471070E0,1.593171553E0,-1.351898186E0,3.022146624E0
3.422429375E0,1.481992010E0,-8.696154535E-2,-4.720430884E-1,1.557782817E0
3.432433375E0,8.471079125E-1,-1.802615894E0,5.040440226E-1,2.054525798E0
3.442437375E0,-2.282983956E-1,-3.810442745E0,2.999598241E-1,3.829042957E0
3.452441375E0,-3.907521728E-1,-5.095295295E0,9.088186955E-1,5.190440523E0
3.462446375E0,-2.217186700E-1,-4.721099221E0,1.021521731E0,4.835436243E0
3.472450375E0,2.985963996E-1,-5.007185941E0,1.008214345E0,5.116401765E0
3.482454375E0,9.423517464E-1,-4.030320858E0,8.905455619E-1,4.233743548E0
3.492459375E0,7.898746347E-1,-3.545988384E0,6.519826716E-1,3.690937139E0
3.502463375E0,1.138261099E0,-2.654434762E0,9.733099759E-1,3.047785187E0
3.512467375E0,2.425973375E0,-4.902937102E-1,2.038547391E0,3.206463816E0
3.522472375E0,2.984741635E0,-1.555879766E-1,2.960264606E0,4.206668133E0
3.532476375E0,3.002325967E0,-4.656447726E-1,3.787429274E0,4.855451243E0
3.542480375E0,2.600846785E0,2.931150734E-1,3.844677900E0,4.651007267E0
3.552485375E0,2.794282034E0,1.025530874E0,3.265845943E0,4.418764011E0
3.562489375E0,3.108679803E0,2.083600919E0,1.865986556E0,4.181768613E0
3.572493375E0,2.888876535E0,3.076112566E0,-3.276805964E-1,4.232664731E0
3.582497375E0,3.376838960E0,3.146648113E0,-1.108329787E0,4.746875881E0
3.592502375E0,2.741019747E0,2.392283034E0,-1.715368712E0,4.022275126E0
3.602506375E0,1.281968410E0,1.125169768E0,-8.465581280E-1,1.904234932E0
3.612510375E0,-1.695943969E-1,-5.543049341E-1,4.521131462E-1,7.351343527E-1
3.622515375E0,-2.032685119E-1,-3.601664402E0,3.295514131E0,4.886073878E0
3.632519375E0,3.929551113E-1,-6.213482317E0,3.393264374E0,7.090558464E0
3.642523375E0,1.223422067E0,-2.184440830E0,2.270025356E0,3.379579621E0
3.652528375E0,1.443888775E0,7.837818360E-1,7.477846223E-1,1.805079113E0
3.662532375E0,1.701486545E0,9.030732214E-1,-1.934489903E0,2.729990639E0
3.672536375E0,9.809207848E-1,1.267855278E0,-1.788325299E0,2.401618198E0
3.682541375E0,6.880857199E-3,1.332875147E0,-1.911989232E0,2.330730857E0
3.692545375E0,-5.000503012E-1,1.299016845E0,-2.408763704E0,2.782020426E0
3.702549375E0,-7.502753900E-1,1.587965192E0,-2.646291345E0,3.176067457E0
3.712554375E0,-8.937260818E-1,1.888726085E0,-2.355199408E0,3.148491192E0
3.722558375E0,-8.881125355E-1,1.584362723E0,-2.037352951E0,2.729424144E0
3.732562375E0,-1.012190305E0,4.101874405E-1,-1.484086483E0,1.842632801E0
3.742566375E0,-9.015305798E-1,-1.742652113E0,-1.436719358E-1,1.967291386E0
3.752571375E0,-5.398866505E-1,-4.169623169E0,2.133446970E0,4.714746117E0
3.762575375E0,-2.260923507E-1,-5.212029693E0,2.002362920E0,5.588007564E0
3.772579375E0,2.001905376E-1,-4.696750830E0,1.668740091E0,4.988410378E0
3.782584375E0,-1.290102180E0,-1.680752903E0,4.323127198E-1,2.162449593E0
3.792588375E0,-2.494540019E0,1.098218197E0,-1.036541181E0,2.916029961E0
3.802592375E0,-2.330289392E0,2.863457519E0,-3.257074535E0,4.923227817E0
3.812597375E0,-1.950948792E0,7.626614007E0,-4.742827182E0,9.190530566E0
3.822601375E0,-1.378862767E0,4.649815814E0,-2.557963013E0,5.483176489E0
3.832605375E0,-1.505235569E0,1.748347886E0,-5.118934418E0,5.614796882E0
3.842610375E0,-1.932043282E0,-4.403450400E-1,-5.518473494E0,5.863466952E0
3.852614375E0,-2.307462155E0,-4.523049933E0,-3.512098799E0,6.173912882E0
3.862618375E0,-2.123858268E0,-6.419072174E0,-1.358468994E0,6.896426576E0
3.872623375E0,-1.873644800E0,-6.318672557E0,8.062044463E-1,6.639738951E0
3.882627375E0,-1.580422430E0,-5.504225584E0,2.142967114E0,6.114453564E0
3.892631375E0,-1.066423523E0,-2.487287425E0,2.485916253E0,3.674729579E0
3.902635375E0,-2.274087417E-1,3.778558463E-1,2.382788326E0,2.423256070E0
3.912640375E0,-6.465090930E-2,7.965620953E-1,1.644539635E0,1.828442376E0
3.922644375E0,-1.638563780E-1,3.629080242E-1,5.352506125E-1,6.671164552E-1
3.932648375E0,-6.237659092E-1,-4.321209311E-1,6.152606955E-1,9.769125509E-1
3.942653375E0,-4.887738727E-1,-4.035362327E-1,7.186584717E-1,9.582334730E-1
3.952657375E0,-9.227635740E-1,1.359278834E-1,3.619961509E-1,1.000504981E0
3.962661375E0,-1.543481330E0,3.080956399E-1,-6.297901493E-1,1.695256078E0
3.972666375E0,-1.952648431E0,9.469799638E-2,-1.382303123E0,2.394277663E0
3.982670375E0,-1.837412090E0,-2.648642510E-1,-1.134000818E0,2.175360686E0
3.992674375E0,-1.463880259E0,-4.182408106E-1,-6.015130144E-1,1.636975472E0
4.002679375E0,-7.476697245E-1,2.186461043E-1,2.591836810E-2,7.794150997E-1
4.012683375E0,5.979713559E-2,1.191691786E0,5.645388772E-1,1.320003467E0
4.022687375E0,6.612240498E-1,1.921428393E0,4.786128737E-1,2.087624151E0
4.032692375E0,1.438492088E0,2.049045628E0,1.566931003E-1,2.508465706E0
4.042696375E0,1.374437887E0,1.959984348E0,9.264036119E-2,2.395662828E0
4.052700375E0,1.384516148E0,1.401265935E0,1.812788880E-1,1.978204544E0
4.062704375E0,6.444311388E-1,8.618398261E-1,-1.873044437E-1,1.092310548E0
4.072709375E0,1.928145674E-1,1.022911906E-1,-7.239770991E-1,7.561638612E-1
4.082713375E0,-1.586551335E-1,-2.888027519E-1,-1.125555684E0,1.172797544E0
4.092717375E0,-3.188890153E-1,-7.966188133E-2,-7.711185942E-1,8.382482363E-1
4.102722375E0,1.009375602E-2,-3.265921372E-1,-3.080564636E-1,4.490691403E-1
4.112726375E0,1.544074237E-1,-4.930343002E-1,3.897437473E-1,6.471666418E-1
4.122730375E0,1.314117864E-1,-4.593672019E-1,9.398645601E-1,1.054339924E0
4.132735375E0,8.528164029E-3,-2.723106802E-1,1.257798067E0,1.286966128E0
4.142739375E0,-4.341636559E-1,-1.471194541E-1,1.910308158E0,1.964540524E0
4.152743375E0,-6.571352381E-1,3.125465405E-1,2.615316305E0,2.714662306E0
4.162748375E0,-3.093177080E-1,6.133360845E-1,3.211622373E0,3.284261997E0
4.172752375E0,2.214285019E-1,3.726418841E-1,4.002369413E0,4.025773649E0
4.182756375E0,3.730719468E-1,8.531847775E-2,4.994678162E0,5.009318503E0
4.192761375E0,2.586153316E-1,1.162309527E-2,5.870299875E0,5.876005243E0
4.202765375E0,1.736164042E-1,6.593057245E-1,6.555589457E0,6.590946807E0
4.212769375E0,3.913000569E-1,9.631445915E-1,6.594047179E0,6.675494097E0
4.222774375E0,8.703586346E-1,1.332790947E-1,6.760852454E0,6.817947886E0
4.232778375E0,1.720808085E0,1.333428293E-1,6.339002157E0,6.569772380E0
4.242782375E0,2.342233500E0,9.994715881E-1,5.371330651E0,5.944425471E0
4.252786375E0,2.879508418E0,1.609297004E0,4.656655887E0,5.706649598E0
4.262791375E0,2.764989530E0,1.780421618E0,4.036782616E0,5.206791923E0
4.272795375E0,2.295440279E0,1.783000240E0,3.255204011E0,4.363999207E0
4.282799375E0,1.740228150E0,2.538606098E0,2.448889929E0,3.933189141E0
4.292804375E0,6.533368868E-1,2.879437374E0,2.589200885E0,3.927081602E0
4.302808375E0,-6.064518651E-1,2.147362466E0,1.944544190E0,2.959763763E0
4.312812375E0,-1.772456833E0,2.943225235E-1,1.122080099E0,2.118323092E0
4.322817375E0,-1.685095046E0,-1.658407769E0,3.105338119E0,3.902945871E0
4.332821375E0,-7.300927019E-1,-3.964819179E0,2.871119125E0,4.949358696E0
4.342825375E0,4.262634829E-1,-6.568873746E0,2.423335989E0,7.014581966E0
4.352829917E0,1.722477757E0,-9.329882199E0,1.020803254E0,9.542309509E0
4.362833917E0,2.916789096E0,-1.147747622E1,-1.279143328E0,1.191118494E1
4.372837917E0,3.482463648E0,-1.239885356E1,-3.140767568E0,1.325607572E1
4.382842917E0,3.474285733E0,-1.101726760E1,-4.424277305E0,1.237033049E1
4.392846917E0,3.669946724E0,-8.637713953E0,-5.133979304E0,1.069749292E1
4.402850917E0,2.900278313E0,-6.073761930E0,-5.427965612E0,8.646676180E0
4.412855917E0,2.655708870E0,-3.652383735E0,-6.321066408E0,7.768434661E0
4.422859917E0,4.467237383E0,-1.136656623E0,-7.455896945E0,8.765762794E0
4.432863917E0,6.384909232E0,1.296424774E0,-8.027880351E0,1.033898670E1
4.442868917E0,6.076570932E0,2.207223921E0,-9.072972500E0,1.114070831E1
4.452872917E0,6.263028699E0,2.939342684E0,-1.014625466E1,1.228054345E1
4.462876917E0,5.910938609E0,3.535772129E0,-1.129002384E1,1.322518499E1
4.472880917E0,6.012410020E0,4.265735607E0,-1.179392753E1,1.390835364E1
4.482885917E0,4.295172245E0,4.467491444E0,-1.126118186E1,1.285383994E1
4.492889917E0,1.730331737E0,3.293161211E0,-9.008795800E0,9.746658938E0
4.502893917E0,-2.779032496E-1,1.755062243E0,-6.499373741E0,6.737902694E0
4.512898917E0,-1.341291044E0,9.536925673E-1,-4.486437885E0,4.778777676E0
4.522902917E0,-2.508280391E0,-5.981877029E-2,-2.007275751E0,3.213130054E0
4.532906917E0,-3.540849851E0,-8.944819075E-1,1.503091103E-1,3.655175560E0
4.542911917E0,-4.404155866E0,-1.207227838E0,2.259807932E0,5.095166321E0
4.552915917E0,-5.176096798E0,-1.464193085E0,4.002881044E0,6.705139529E0
4.562919917E0,-5.555266514E0,-1.504116120E0,4.715652539E0,7.440479165E0
4.572924917E0,-5.586643842E0,-1.396962969E0,5.061224738E0,7.666687082E0
4.582928917E0,-5.315626566E0,-1.159618639E0,5.231826611E0,7.548020327E0
4.592932917E0,-4.663312942E0,-7.500404781E-1,4.515539770E0,6.534458488E0
4.602937917E0,-3.414754061E0,-1.648125440E-1,2.939404079E0,4.508636691E0
4.612941917E0,-1.872828967E0,3.090931749E-1,1.353770757E0,2.331463530E0
4.622945917E0,-5.885985616E-1,5.503756052E-1,-3.183194965E-1,8.664230349E-1
4.632950917E0,4.271262395E-1,6.271015996E-1,-1.895123523E0,2.041368759E0
4.642954917E0,1.284759871E0,9.195886821E-1,-3.157931485E0,3.531116330E0
4.652958917E0,1.627262867E0,1.168164344E0,-3.659067687E0,4.171494782E0
4.662963917E0,1.675757627E0,1.505783161E0,-3.595079268E0,4.242657362E0
4.672967917E0,1.814437502E0,2.029173281E0,-3.257843444E0,4.245382381E0
4.682971917E0,1.853566192E0,2.748572595E0,-2.274332708E0,4.020316929E0
4.692976917E0,2.698009090E0,4.076180570E0,-9.200968051E-1,4.974040533E0
4.702980917E0,4.042242453E0,2.427829428E0,-2.768442311E0,5.467938607E0
4.712984917E0,4.451961532E0,6.284341800E-1,-3.621319233E0,5.773113890E0
4.722989917E0,4.682335981E0,1.069701326E0,-4.963865089E-1,4.828553690E0
4.732993917E0,5.538650481E0,2.093915407E0,2.506216031E-1,5.926545543E0
4.742997917E0,5.676988587E0,2.071512970E0,5.334815374E-1,6.066627395E0
4.753002917E0,5.412012069E0,1.494019148E0,1.753497236E0,5.881897688E0
4.763006917E0,5.773635460E0,8.428562558E-1,2.413364001E0,6.314237792E0
4.773010917E0,6.006371015E0,3.210331893E-1,2.372716497E0,6.466014124E0
4.783015917E0,5.699978085E0,1.082845867E-2,2.369573326E0,6.172904111E0
4.793019917E0,5.304639648E0,-3.597008264E-1,2.517302645E0,5.882635386E0
4.803023917E0,4.575962557E0,-9.047092724E-1,2.617935272E0,5.348973479E0
4.813028917E0,3.518261764E0,-1.061518732E0,2.334973597E0,4.353973996E0
4.823032917E0,2.395645768E0,-6.885874110E-1,2.085030563E0,3.249711328E0
4.833036917E0,1.690486471E0,-9.909568727E-2,1.767523537E0,2.447795726E0
4.843041917E0,1.590679762E0,2.741490448E-1,1.418298582E0,2.148718379E0
4.853045917E0,1.569419578E0,1.390087813E-1,1.096784752E0,1.919723429E0
4.863049917E0,1.265258822E0,-2.179315746E-1,6.543791530E-1,1.441036479E0
4.873054917E0,1.037455686E0,-9.058559114E-1,2.293503097E-1,1.396241668E0
4.883058917E0,1.044850367E0,-2.276658438E0,-1.654235780E-2,2.505026862E0
4.893062917E0,9.849120212E-1,-3.755524526E0,-6.412734962E-1,3.935129967E0
4.903067917E0,4.511688209E-1,-4.504335920E0,-1.316116734E0,4.714314228E0
4.913071917E0,-1.789373705E-1,-4.558073586E0,-1.939006585E0,4.956591564E0
4.923075917E0,-1.037805642E0,-4.066208729E0,-2.414156006E0,4.841409216E0
4.933080917E0,-2.274173664E0,-3.516608464E0,-2.960023993E0,5.128366502E0
4.943084917E0,-3.363212316E0,-2.312110106E0,-4.189463357E0,5.848816414E0
4.953088917E0,-3.823822344E0,-7.483395231E-1,-4.743432661E0,6.138548914E0
4.963093917E0,-3.727214062E0,4.761194748E-1,-4.413574269E0,5.796417190E0
4.973097917E0,-3.643448605E0,1.252456051E0,-3.643714653E0,5.302831354E0
4.983101917E0,-3.166822469E0,1.881075588E0,-2.706677003E0,4.570920073E0
4.993106917E0,-2.814461945E0,1.981758794E0,-2.348668068E0,4.167109988E0
5.003110917E0,-2.302413961E0,1.469809336E0,-2.410252113E0,3.642906090E0
5.013115917E0,-1.387210691E0,5.938122314E-1,-2.182549841E0,2.653392220E0
5.023119917E0,-1.102506545E0,-7.879111397E-1,-1.599767212E0,2.096563803E0
5.033123917E0,-7.342711222E-1,-1.948550118E0,-6.559897685E-1,2.183191292E0
5.043128917E0,-5.369957140E-1,-2.635672801E0,1.440865034E-1,2.693677121E0
5.053132917E0,-6.639855435E-1,-2.672777478E0,6.103043032E-1,2.820831010E0
5.063136917E0,-1.169893074E0,-1.883979900E0,1.068147282E0,2.461497244E0
5.073141917E0,-1.478113844E0,-5.258757716E-1,1.388909161E0,2.095336374E0
5.083145917E0,-1.498459231E0,5.101999712E-1,1.327435044E0,2.065857660E0
5.093149917E0,-1.609836118E0,1.356196182E0,1.270376013E0,2.458596271E0
5.103154917E0,-1.366623229E0,2.096380593E0,1.580371413E0,2.959737226E0
5.113158917E0,-1.098001850E0,2.392270170E0,2.884930249E0,3.905302443E0
5.123162917E0,-5.659271523E-1,2.454899697E0,4.327875137E0,5.007724959E0
5.133167917E0,-5.776549128E-1,1.796382177E0,4.927947398E0,5.276868359E0
5.143171917E0,-7.282145762E-1,1.669442634E0,4.415927188E0,4.776792659E0
5.153175917E0,-6.576018459E-1,1.769664495E0,3.132675607E0,3.657568737E0
5.163180917E0,-7.683948880E-1,1.317215134E0,2.122143133E-1,1.539649742E0
5.173184917E0,-1.025864750E-1,5.560550058E-1,-3.865850376E0,3.906983527E0
5.183188917E0,1.691032893E0,-1.232856184E-1,-5.073013895E0,5.348856099E0
5.193193917E0,3.146703077E0,-6.678461677E-1,-3.095724712E0,4.464445122E0
5.203197917E0,1.751947139E0,-1.414930294E0,-1.314930627E0,2.607755561E0
5.213201917E0,1.980698986E0,-1.177019368E0,-7.292178854E-1,2.416671635E0
5.223206917E0,2.263198147E0,-9.213206273E-1,4.327670485E-1,2.481569034E0
5.233210917E0,2.418901607E0,-7.103390533E-1,7.268615305E-1,2.623736694E0
5.243215917E0,1.880660436E0,-4.997942662E-1,1.228002630E-1,1.949809705E0
5.253219917E0,1.561322062E0,-2.330904812E-1,2.094887434E-1,1.592464532E0
5.263223917E0,1.282735857E0,-7.590387583E-2,1.351372814E0,1.864773756E0
5.273228917E0,1.169000204E0,7.749490321E-2,2.803362175E0,3.038322962E0
5.283232917E0,1.284987035E0,6.134734941E-1,3.849863504E0,4.104752173E0
5.293236917E0,1.175138026E0,1.122754283E0,4.569469224E0,4.849904695E0
5.303241917E0,9.062424123E-1,1.664374852E0,4.849459637E0,5.206599440E0
5.313245917E0,4.735496235E-1,2.363482574E0,5.219025886E0,5.748785117E0
5.323249917E0,8.609674215E-2,3.032800485E0,5.702616348E0,6.459498792E0
5.333254917E0,-4.751184314E-2,3.442012610E0,5.911643783E0,6.840850854E0
5.343258917E0,-5.368568426E-1,3.065028584E0,5.957837956E0,6.721491546E0
5.353263625E0,-9.104062146E-1,1.872839200E0,5.595137508E0,5.970086254E0
5.363268625E0,-5.545206964E-3,7.416403681E-1,5.383241429E0,5.434091412E0
5.373272625E0,1.192493732E0,4.178695124E-1,4.502042642E0,4.676007290E0
5.383276625E0,1.874768196E0,5.032844692E-1,3.672799873E0,4.154215926E0
5.393281625E0,2.184541695E0,5.696445197E-1,3.949892406E0,4.549545836E0
5.403285625E0,2.696538223E0,1.030769395E0,4.669157234E0,5.489520308E0
5.413289625E0,2.734757963E0,1.953303319E0,4.871980773E0,5.918656235E0
5.423294625E0,2.630567012E0,2.744851427E0,5.035070143E0,6.309201495E0
5.433298625E0,2.373295079E0,3.048918335E0,5.227769812E0,6.500616106E0
5.443303625E0,2.138305422E0,2.939618672E0,5.117717028E0,6.277319140E0
5.453307625E0,1.987266871E0,1.997785428E0,5.006320553E0,5.744877867E0
5.463311625E0,1.786501845E0,5.983870929E-1,4.744946505E0,5.105308344E0
5.473316625E0,1.191736810E0,-8.370704359E-1,4.183296883E0,4.429548098E0
5.483320625E0,1.701036894E-1,-2.452981811E0,3.419821258E0,4.212034243E0
5.493324625E0,-8.706448558E-1,-3.874328254E0,2.286612153E0,4.582252396E0
5.503329625E0,-2.032312067E0,-4.980103392E0,1.061994696E0,5.482659470E0
5.513333625E0,-3.779464489E0,-6.575784570E0,-1.763067666E0,7.786764548E0
5.523337625E0,-4.658636047E0,-8.250297325E0,-3.529123260E0,1.011063830E1
5.533342625E0,-3.758367735E0,-9.558889570E0,-3.433608992E0,1.082992930E1
5.543346625E0,-2.510066715E0,-1.000829662E1,-3.061513238E0,1.076286670E1
5.553350625E0,-1.065354798E0,-9.553658066E0,-3.002611019E0,1.007090047E1
5.563355625E0,1.629423121E-1,-8.535430949E0,-3.306811536E0,9.155060579E0
5.573359625E0,5.024851549E-1,-7.255908721E0,-4.034743107E0,8.317442794E0
5.583364625E0,1.349930598E0,-5.691913020E0,-4.090341649E0,7.138002610E0
5.593368625E0,2.477545671E0,-4.477975502E0,-5.140579056E0,7.253692176E0
5.603372625E0,3.391941149E0,-3.438248173E0,-6.379590604E0,8.001624306E0
5.613377625E0,5.338303823E0,-1.236941634E0,-8.156006879E0,9.825882175E0
5.623381625E0,5.994133962E0,6.237026131E-1,-1.121123845E1,1.272833511E1
5.633385625E0,7.144736195E0,2.931538405E0,-1.279081815E1,1.494142569E1
5.643390625E0,6.572055216E0,4.091334799E0,-1.092928922E1,1.339329284E1
5.653394625E0,5.168859115E0,5.083710791E0,-8.254109709E0,1.098597046E1
5.663398625E0,3.712717353E0,5.509390429E0,-5.605138586E0,8.692251239E0
5.673403625E0,2.581527584E0,4.939548858E0,-2.838466811E0,6.254624004E0
5.683407625E0,7.022245798E-1,3.667388275E0,-5.694837213E-1,3.777190468E0
5.693412625E0,-6.015779185E-1,3.547685246E0,2.039973673E0,4.136358203E0
5.703416625E0,-9.984880865E-1,3.462425240E0,3.489605730E0,5.016245125E0
5.713420625E0,-1.218332870E0,3.099714267E0,4.620834675E0,5.696022877E0
5.723425625E0,-2.048969030E0,1.785987582E0,5.651754343E0,6.271391622E0
5.733429625E0,-3.288619971E0,-1.207017338E-1,6.098648264E0,6.929870192E0
5.743433625E0,-4.573274885E0,-1.474277778E0,5.074271046E0,6.988316305E0
5.753438625E0,-5.443384720E0,-1.499772223E0,3.056081759E0,6.420232835E0
5.763442625E0,-6.273966501E0,-1.281941221E0,8.373627967E-1,6.458111597E0
5.773446625E0,-6.653168376E0,-1.290012717E0,-1.796464038E0,7.011138659E0
5.783451625E0,-5.988494323E0,-8.477714252E-1,-3.675594258E0,7.077483578E0
5.793455625E0,-4.912573314E0,-2.286775875E-1,-4.958651712E0,6.983831098E0
5.803459625E0,-3.615247484E0,2.521436334E-1,-5.571049318E0,6.646065098E0
5.813464625E0,-2.054324202E0,5.172628230E-1,-6.122358724E0,6.478509481E0
5.823468625E0,-4.761147970E-1,6.256684470E-1,-6.331548126E0,6.380176172E0
5.833473625E0,1.570419452E0,1.064617757E0,-6.406715838E0,6.681738999E0
5.843477625E0,3.420850660E0,1.659393024E0,-6.124307601E0,7.208533002E0
5.853481625E0,4.616857983E0,1.954479779E0,-4.940773850E0,7.038935650E0
5.863486625E0,4.369635659E0,2.179181845E0,-3.400219929E0,5.950129820E0
5.873490625E0,3.030059896E0,1.434464672E0,-6.030318287E-1,3.406258835E0
5.883494625E0,2.534056672E0,-4.996995413E-1,1.824009394E0,3.161985629E0
5.893499625E0,3.979457683E0,-1.697329760E-1,3.998171112E0,5.643603899E0
5.903503625E0,5.194797948E0,-1.693382889E-1,5.218714814E0,7.365431792E0
5.913508625E0,6.297375829E0,-4.013476199E-1,7.350163499E0,9.687255839E0
5.923512625E0,6.932778720E0,-1.199458058E0,9.031205839E0,1.144835356E1
5.933516625E0,6.699694086E0,-2.393569422E0,9.351263713E0,1.174994504E1
5.943521625E0,5.736294556E0,-2.289305381E0,8.667911314E0,1.064324579E1
5.953525625E0,3.352051443E0,-8.813034528E-1,6.874273235E0,7.698608781E0
5.963529625E0,8.481871623E-1,9.581072152E-1,4.200916883E0,4.391479654E0
5.973534625E0,-4.575308838E-1,2.228915922E0,2.202116817E0,3.166499514E0
5.983538625E0,-4.143521199E-1,2.994929239E0,1.361248761E0,3.315763414E0
5.993542625E0,7.268264472E-1,2.824496936E0,1.216742427E0,3.160145845E0
6.003547625E0,1.955453633E0,1.729836770E0,1.457288693E0,2.989953929E0
6.013551625E0,2.656115252E0,-4.950018883E-2,1.462087795E0,3.032342201E0
6.023556625E0,2.542540981E0,-2.359405895E0,1.019236931E0,3.615266898E0
6.033560625E0,2.405308584E0,-4.872743250E0,1.575742757E-1,5.436355932E0
6.043564625E0,1.936562156E0,-7.031768573E0,-1.248901529E0,7.399716027E0
6.053569625E0,-2.296844780E-1,-8.175472845E0,-3.363807271E0,8.843433188E0
6.063573625E0,-2.118994992E0,-8.200974891E0,-5.964614879E0,1.035966986E1
6.073577625E0,-3.460807023E0,-7.107226891E0,-9.099778476E0,1.205387189E1
6.083582625E0,-5.044322192E0,-6.635081184E0,-1.079093358E1,1.363501874E1
6.093586625E0,-4.523812995E0,-4.783336984E0,-8.727262307E0,1.093207684E1
6.103590625E0,-3.883228301E0,-2.261657991E0,-4.933456644E0,6.673346489E0
6.113595625E0,-3.880464907E0,-5.343530649E-1,-2.410539211E0,4.599373912E0
6.123599625E0,-4.555227453E0,4.233559549E-1,-9.345454212E-1,4.669336415E0
6.133604625E0,-5.284146327E0,5.777528536E-1,-2.129406837E-1,5.319900798E0
6.143608625E0,-4.592755468E0,6.004529142E-1,2.022452492E-1,4.636253836E0
6.153612625E0,-4.050125670E0,8.559563577E-2,1.012197907E0,4.175570518E0
6.163617625E0,-3.367487508E0,-5.868838656E-1,1.926991434E0,3.923990415E0
6.173621625E0,-2.606265399E0,-1.185863281E0,2.941228995E0,4.104840930E0
6.183625625E0,-2.590855063E0,-1.042148076E0,3.980468667E0,4.862379394E0
6.193630625E0,-2.772351467E0,-4.328261054E-1,4.496729861E0,5.300363246E0
6.203634625E0,-2.341110542E0,5.067080140E-1,4.486046414E0,5.085485622E0
6.213639625E0,-2.192046596E0,1.185497246E0,5.276879407E0,5.835745734E0
6.223643625E0,-2.610405813E0,1.064601384E0,5.392641413E0,6.085078145E0
6.233647625E0,-3.441207449E0,4.431505340E-1,2.493935124E0,4.272938509E0
6.243652625E0,-3.865398971E0,1.803690612E-2,-2.207488800E0,4.451363986E0
6.253656625E0,-3.166786801E0,-6.087922132E-1,-5.903372896E0,6.726736070E0
6.263660625E0,-1.788162746E0,-1.005401250E0,-5.419643270E0,5.794902144E0
6.273665625E0,2.250333104E-1,-8.132453710E-1,-3.106035107E0,3.218611830E0
6.283669625E0,8.696683708E-1,-2.826602519E-2,-1.083943389E0,1.389983926E0
6.293673625E0,1.053000216E0,8.077577591E-1,5.547499073E-1,1.438412150E0
6.303678625E0,1.379125746E0,1.417082069E0,1.644744580E0,2.572021412E0
6.313682625E0,1.513409100E0,1.669252599E0,1.910789968E0,2.954306966E0
6.323687625E0,1.407047954E0,1.734129796E0,1.398351683E0,2.634839184E0
6.333691625E0,1.202305652E0,1.776560701E0,6.849755859E-1,2.251865529E0
6.343695625E0,1.197747455E0,1.926929453E0,5.666519513E-1,2.338535977E0
6.353700542E0,1.229720322E0,2.146939713E0,1.344332766E0,2.815811213E0
6.363704542E0,1.233164040E0,2.359179023E0,2.229352124E0,3.472237046E0
6.373708542E0,1.313843629E0,2.670779484E0,2.998786647E0,4.225159108E0
6.383713542E0,1.225810582E0,2.920473719E0,3.580576419E0,4.780408540E0
6.393717542E0,1.081046386E0,3.154658214E0,4.026711956E0,5.228282597E0
6.403722542E0,9.456716493E-1,3.678483367E0,4.330162568E0,5.759847447E0
6.413726542E0,7.880193132E-1,3.928963467E0,5.450011954E0,6.764640321E0
6.423730542E0,5.241677999E-1,3.510352528E0,6.714781072E0,7.595104450E0
6.433735542E0,-1.299847734E-1,2.355069015E0,6.744391372E0,7.144932546E0
6.443739542E0,1.431167427E-1,1.465689388E0,6.066495595E0,6.242683444E0
6.453743542E0,8.294751951E-1,8.235715538E-1,5.777168348E0,5.894232208E0
6.463748542E0,9.820854771E-1,6.362676948E-1,4.967566377E0,5.103532519E0
6.473752542E0,1.276311522E0,9.871930200E-1,4.923166130E0,5.180838339E0
6.483757542E0,1.507006691E0,1.542672075E0,5.594214817E0,5.995510464E0
6.493761542E0,1.730063935E0,2.291903883E0,6.000058361E0,6.651815163E0
6.503765542E0,2.001329133E0,2.887532845E0,5.880287504E0,6.849886521E0
6.513770542E0,2.270799528E0,3.107712674E0,5.407495680E0,6.637425561E0
6.523774542E0,2.324059184E0,2.428493671E0,4.554071167E0,5.660247061E0
6.533778542E0,2.224625235E0,5.414743888E-1,3.752751192E0,4.396054306E0
6.543783542E0,2.007703475E0,-2.351110450E0,2.957000105E0,4.278135483E0
6.553787542E0,1.255245173E0,-5.218196166E0,2.200095581E0,5.800485517E0
6.563791542E0,1.579666239E-1,-7.317552407E0,1.956012919E0,7.576114653E0
6.573796542E0,-1.567220733E0,-8.420646012E0,1.835639214E0,8.759739232E0
6.583800542E0,-2.567980755E0,-1.139953985E1,-7.897378099E-1,1.171186235E1
6.593805542E0,-3.487391389E0,-1.363218103E1,-2.587168393E0,1.430705066E1
6.603809542E0,-3.271688773E0,-1.427521688E1,-3.499248666E0,1.505757303E1
6.613813542E0,-2.094433470E0,-1.315008862E1,-4.116755569E0,1.393768843E1
6.623818542E0,-2.193182125E0,-1.097283461E1,-3.818731758E0,1.182352990E1
6.633822542E0,-2.509783710E0,-8.000882587E0,-3.553711971E0,9.107250145E0
6.643826542E0,-1.379615158E0,-5.127747341E0,-4.170220755E0,6.751879140E0
6.653831542E0,-1.768665791E-1,-3.084314455E0,-4.439030707E0,5.408259523E0
6.663835542E0,1.182091243E0,-1.036667481E0,-5.128519759E0,5.364115406E0
6.673840542E0,2.748469684E0,7.954528785E-1,-7.373581012E0,7.909268477E0
6.683844542E0,4.457501769E0,1.738159112E0,-1.191444566E1,1.283917966E1
6.693848542E0,7.300789025E0,4.019726288E0,-1.436045993E1,1.660369023E1
6.703853542E0,7.654946691E0,4.810142375E0,-1.187234103E1,1.492273969E1
6.713857542E0,5.735074242E0,4.707678106E0,-8.483798865E0,1.127067668E1
6.723861542E0,3.542998995E0,5.273993222E0,-6.070743012E0,8.787591655E0
6.733866542E0,7.562212774E-1,5.133118009E0,-3.837150487E0,6.453254603E0
6.743870542E0,7.268594840E-1,5.404332336E0,-1.071949580E0,5.557356261E0
6.753874542E0,9.285039318E-1,5.560310322E0,2.062060946E0,6.002604916E0
6.763879542E0,-1.247620404E0,4.080510433E0,4.879729211E0,6.482197100E0
6.773883542E0,-1.865404465E0,3.253231160E0,6.765781072E0,7.735569812E0
6.783888542E0,-1.446513444E0,2.669438133E0,7.871989489E0,8.437210416E0
6.793892542E0,-2.582950504E0,8.062485927E-1,8.713847040E0,9.124297252E0
6.803896542E0,-4.300749904E0,-1.416121371E0,7.509307752E0,8.768782834E0
6.813901542E0,-5.162391509E0,-2.052355152E0,5.160087122E0,7.582146587E0
6.823905542E0,-5.498026950E0,-1.608369051E0,2.372863846E0,6.200454353E0
6.833909542E0,-5.850496525E0,-1.579542863E0,2.137098849E-1,6.063739536E0
6.843914542E0,-6.128529875E0,-1.656674069E0,-2.224699495E0,6.727015330E0
6.853918542E0,-5.443652523E0,-1.123671711E0,-4.493053717E0,7.147273788E0
6.863923542E0,-4.351515430E0,-6.112948215E-1,-5.930902757E0,7.381393866E0
6.873927542E0,-3.340030445E0,-2.836870229E-1,-6.714728447E0,7.504922373E0
6.883931542E0,-2.320091263E0,1.185558057E-1,-7.459040993E0,7.812436975E0
6.893936542E0,-1.046357487E0,6.208895177E-1,-8.462475824E0,8.549495006E0
6.903940542E0,7.632683417E-1,1.097392570E0,-8.961096554E0,9.060248366E0
6.913944542E0,2.066284389E0,1.292462701E0,-7.265306366E0,7.663202177E0
6.923949542E0,2.562343454E0,1.927244033E0,-3.872246060E0,5.027341553E0
6.933953542E0,2.484519353E0,1.160361820E0,3.035283798E-1,2.758877570E0
6.943957542E0,8.426688525E-1,-8.771191853E-1,2.051321657E0,2.384816429E0
6.953962542E0,5.223987249E-1,-4.044331956E-1,2.879968302E0,2.954773097E0
6.963966542E0,2.156876763E0,5.150022894E-1,4.955997661E0,5.429480412E0
6.973971542E0,4.268583494E0,1.212876248E-1,6.267573740E0,7.584061993E0
6.983975542E0,6.437459328E0,-8.064152384E-1,7.212072730E0,9.700782505E0
6.993979542E0,7.633902562E0,-1.846940128E0,8.533878513E0,1.159804891E1
7.003984542E0,7.909842609E0,-3.320792229E0,8.192274234E0,1.186198248E1
7.013988542E0,7.396221431E0,-3.719309211E0,6.960903243E0,1.081626213E1
7.023992542E0,5.631832294E0,-2.555728499E0,5.411659482E0,8.217988897E0
7.033997542E0,3.379645916E0,-6.404952317E-1,3.544229541E0,4.939008372E0
7.044001542E0,2.120628704E0,4.287511808E-1,1.501001747E0,2.633229940E0
7.054005542E0,2.023043937E0,3.592640394E-1,5.264549384E-1,2.121068652E0
7.064010542E0,2.306554667E0,-8.043991184E-1,5.732145372E-1,2.509148716E0
7.074014542E0,2.606815330E0,-2.180227327E0,1.032751601E0,3.551823930E0
7.084019542E0,2.825217313E0,-3.361740280E0,1.128958179E0,4.534059676E0
7.094023542E0,1.868677737E0,-4.453491456E0,1.795935743E-1,4.832990429E0
7.104027542E0,-8.664392459E-1,-5.202619768E0,-1.662138877E0,5.529979662E0
7.114032542E0,-2.859551871E0,-4.593225877E0,-2.937987299E0,6.156827935E0
7.124036542E0,-4.115594020E0,-3.777293710E0,-4.166648398E0,6.969004289E0
7.134040542E0,-5.463335420E0,-2.797979228E0,-4.944998463E0,7.882241526E0
7.144045542E0,-6.072050450E0,-1.980727930E0,-5.213986756E0,8.244921933E0
7.154049542E0,-6.221227539E0,-1.658627039E0,-4.782868914E0,8.020632818E0
7.164054542E0,-5.675619754E0,-1.475929032E0,-4.349235601E0,7.301155827E0
7.174058542E0,-5.103773757E0,-1.115308439E0,-3.609713679E0,6.349996246E0
7.184062542E0,-4.697518569E0,-6.033431929E-1,-3.421940581E0,5.842977071E0
7.194067542E0,-3.349490071E0,-2.344809490E-1,-2.857074113E0,4.408734233E0
7.204071542E0,-1.928868390E0,-2.024428850E-1,-1.502733107E0,2.453512416E0
7.214075542E0,-1.657932390E0,-8.557546288E-1,-4.342767996E-1,1.915633611E0
7.224080542E0,-9.994879603E-1,-1.142892094E0,4.697786079E-1,1.589298732E0
7.234084542E0,-6.727917427E-1,-7.890174329E-1,1.235209835E0,1.612743183E0
7.244088542E0,-8.192042685E-1,5.090936780E-2,1.913253400E0,2.081880393E0
7.254093542E0,-9.726600578E-1,8.003557688E-1,3.282061442E0,3.515474968E0
7.264097542E0,-4.344124550E-1,2.292417269E0,4.344390013E0,4.931289456E0
7.274102542E0,2.148740655E-1,3.352294103E0,6.788310978E0,7.573982609E0
7.284106542E0,4.101804239E-1,3.256588631E0,9.437624749E0,9.992115812E0
7.294110542E0,-1.090953031E0,2.554957252E0,8.649761556E0,9.084952397E0
7.304115542E0,-2.056056732E0,2.519107388E0,6.356812776E0,7.140191873E0
7.314119542E0,-4.039766450E0,1.769872656E0,1.974807624E0,4.832393542E0
7.324123542E0,-6.637587885E0,-1.081493990E0,-7.883050666E0,1.036193466E1
7.334128542E0,-5.392277716E0,-3.736864892E0,-9.958412858E0,1.192521718E1
7.344132542E0,-3.331699040E0,-4.231770301E0,-6.415572031E0,8.376614045E0
7.354137625E0,-1.151790971E0,-3.298090414E0,-3.223340194E0,4.753308829E0
7.364141625E0,1.500565106E-1,-2.665257958E0,-3.396244480E-1,2.690996415E0
7.374145625E0,7.539323848E-1,-1.908496690E0,1.208554571E0,2.381465475E0
7.384150625E0,1.173338253E0,-8.628052014E-1,1.324656301E0,1.968722882E0
7.394154625E0,1.496008078E0,5.148947006E-1,4.605079937E-1,1.647793778E0
7.404158625E0,1.407280674E0,1.812313501E0,-1.134096803E-1,2.297342133E0
7.414163625E0,1.193094241E0,2.329814306E0,4.884249401E-1,2.662718064E0
7.424167625E0,9.264614993E-1,2.246669823E0,1.592249447E0,2.905359617E0
7.434171625E0,5.900691363E-1,1.915570067E0,2.594596696E0,3.278646410E0
7.444176625E0,3.742320344E-1,1.689265864E0,3.552771739E0,3.951690246E0
7.454180625E0,2.744291264E-1,1.821570813E0,4.225740652E0,4.609806464E0
7.464185625E0,1.598617065E-1,2.213367006E0,4.655112222E0,5.156997098E0
7.474189625E0,-3.108379841E-3,2.602547155E0,5.172998943E0,5.790784008E0
7.484193625E0,-6.034560442E-2,2.788585677E0,5.361942362E0,6.044028256E0
7.494198625E0,-4.967005044E-2,2.974674484E0,6.082126372E0,6.770776662E0
7.504202625E0,-2.653846532E-2,2.983065823E0,6.988835392E0,7.598895060E0
7.514206625E0,2.181458750E-1,3.371579974E0,7.495753906E0,8.222011053E0
7.524211625E0,4.824806607E-1,3.276378533E0,7.400804479E0,8.107980687E0
7.534215625E0,1.116303050E0,2.486153065E0,6.214459387E0,6.785764145E0
7.544219625E0,1.913600433E0,1.861297966E0,5.371317787E0,5.998112328E0
7.554224625E0,2.636570641E0,1.669949003E0,5.155616341E0,6.026658632E0
7.564228625E0,2.979713322E0,2.074785072E0,5.492032385E0,6.583756093E0
7.574233625E0,2.951139733E0,3.176536156E0,5.232856890E0,6.795763306E0
7.584237625E0,2.691871560E0,4.436029331E0,4.680306705E0,6.987832252E0
7.594241625E0,2.537196626E0,4.859911535E0,4.265419858E0,6.946215762E0
7.604246625E0,2.358778489E0,4.092935182E0,3.953238183E0,6.159873903E0
7.614250625E0,1.605480527E0,2.027738959E0,3.766349477E0,4.568881853E0
7.624254625E0,9.500067750E-1,-1.264748068E0,3.814756236E0,4.129705279E0
7.634259625E0,1.314246503E-1,-5.050708521E0,3.895581129E0,6.379849632E0
7.644263625E0,-1.050796401E0,-8.896269059E0,4.332653482E0,9.950862396E0
7.654267625E0,-2.518763864E0,-1.040281177E1,4.655026268E0,1.167184363E1
7.664272625E0,-1.823643359E0,-1.294251715E1,1.932846835E0,1.321250628E1
7.674276625E0,-1.147031922E0,-1.585304124E1,-7.541095555E-1,1.591236249E1
7.684281625E0,-1.400502874E0,-1.737094334E1,-3.165099587E0,1.771239499E1
7.694285625E0,-1.249411114E0,-1.617853703E1,-4.645585354E0,1.687861226E1
7.704289625E0,-5.692685437E-1,-1.312687986E1,-5.054795725E0,1.407799706E1
7.714294625E0,2.168887237E-1,-9.580131919E0,-5.271346772E0,1.093677581E1
7.724298625E0,1.913208961E-2,-6.487592186E0,-5.874927946E0,8.752370923E0
7.734302625E0,1.107637769E0,-3.946080022E0,-6.500789351E0,7.684963966E0
7.744307625E0,2.171334589E0,-1.851934234E0,-7.661138892E0,8.175414572E0
7.754311625E0,3.345848132E0,2.049414003E-1,-1.055171814E1,1.107138006E1
7.764315625E0,4.899555658E0,1.959879098E0,-1.252332792E1,1.358972089E1
7.774320625E0,6.153545433E0,3.568473267E0,-1.317837512E1,1.497563667E1
7.784324625E0,5.373642055E0,4.506889399E0,-1.163136908E1,1.358222470E1
7.794329625E0,3.438516560E0,4.513089201E0,-9.158321384E0,1.077340340E1
7.804333625E0,1.877556149E0,4.785797492E0,-7.245546870E0,8.884088258E0
7.814337625E0,-9.427576894E-1,4.384030627E0,-4.519662641E0,6.366778384E0
7.824342625E0,-1.592552041E0,4.671073952E0,-1.159630333E0,5.069506522E0
7.834346625E0,-7.380586562E-1,5.447984140E0,2.344922634E0,5.976949383E0
7.844350625E0,-1.999799793E0,4.182606327E0,4.982413627E0,6.805721156E0
7.854355625E0,-2.453389069E0,2.817552198E0,7.409287620E0,8.297907046E0
7.864359625E0,-3.386660236E0,1.834266872E0,8.945490335E0,9.739394224E0
7.874364625E0,-4.879456438E0,1.009783153E0,9.175711588E0,1.044138115E1
7.884368625E0,-6.063854992E0,2.951154059E-1,7.704345723E0,9.808892572E0
7.894372625E0,-6.789467558E0,-3.551359051E-1,4.746962917E0,8.291962866E0
7.904377625E0,-6.912092441E0,-9.336202455E-1,1.343202499E0,7.103017783E0
7.914381625E0,-6.698431088E0,-1.220553058E0,-1.823807958E0,7.048759059E0
7.924385625E0,-6.017780102E0,-1.191286574E0,-4.443289234E0,7.574672289E0
7.934390625E0,-4.920719655E0,-9.667324430E-1,-6.602025704E0,8.290645146E0
7.944394625E0,-3.361307586E0,-4.944060570E-1,-8.583219658E0,9.231169250E0
7.954398625E0,-1.454554243E0,1.449021900E-1,-1.018870311E1,1.029302656E1
7.964403625E0,5.131495991E-1,1.005400665E0,-1.055170059E1,1.061190550E1
7.974407625E0,2.686823367E0,2.222354761E0,-8.189314374E0,8.900716286E0
7.984412625E0,4.006751316E0,2.401171387E0,-4.181242172E0,6.269167906E0
7.994416625E0,3.217603490E0,8.130296087E-1,-2.615130948E0,4.225269132E0
8.004420625E0,1.953623747E0,-6.210327744E-2,-8.073507929E-1,2.114785536E0
8.014425625E0,2.035411383E0,6.600395501E-2,2.031069533E0,2.876195311E0
8.024429625E0,2.290805484E0,-1.476492119E-1,4.420317278E0,4.980842789E0
8.034433625E0,3.054589842E0,-3.593084782E-1,5.671615580E0,6.451886932E0
8.044438625E0,5.351612670E0,-4.786255914E-1,7.015726152E0,8.836812438E0
8.054442625E0,7.619116123E0,-1.438966443E0,8.314080507E0,1.136861863E1
8.064446625E0,8.439374059E0,-1.997368521E0,8.550612075E0,1.217889496E1
8.074451625E0,7.996114182E0,-2.068320975E0,7.937272482E0,1.145495911E1
8.084455625E0,6.619514142E0,-1.514401957E0,6.620581259E0,9.483853487E0
8.094460625E0,4.403114769E0,1.245047629E-1,4.211878073E0,6.094492433E0
8.104464625E0,2.498808486E0,1.679646025E0,1.907700007E0,3.564347618E0
8.114468625E0,1.866115779E0,2.361400380E0,9.211224067E-1,3.147549260E0
8.124473625E0,2.280312655E0,1.665778184E0,7.704104233E-1,2.927144510E0
8.134477625E0,2.717253154E0,-4.560968542E-1,1.032252249E0,2.942283764E0
8.144481625E0,3.334924949E0,-2.710587913E0,1.084728962E0,4.432341161E0
8.154486625E0,3.799518977E0,-5.233925176E0,8.897677360E-1,6.528552966E0
8.164490625E0,3.057452931E0,-8.022992079E0,-4.227893597E-1,8.596230055E0
8.174494625E0,1.073877407E0,-9.251534772E0,-2.745969122E0,9.710018267E0
8.184499625E0,-2.413629465E0,-7.678594000E0,-4.675828615E0,9.308586695E0
8.194503625E0,-4.534222208E0,-5.591908675E0,-6.172057718E0,9.482769118E0
8.204508625E0,-5.996267611E0,-4.172300025E0,-7.341526576E0,1.035670436E1
8.214512625E0,-6.428782060E0,-3.314964309E0,-8.583887994E0,1.122503275E1
8.224516625E0,-6.543741828E0,-2.542737156E0,-7.869892092E0,1.054614958E1
8.234521625E0,-6.016082071E0,-1.459754464E0,-5.464680864E0,8.257533744E0
8.244525625E0,-5.293353937E0,-5.706935102E-1,-3.580714705E0,6.416136282E0
8.254529625E0,-4.703151777E0,-1.207069963E-1,-2.459240670E0,5.308678884E0
8.264534625E0,-4.117855723E0,-3.422012794E-1,-1.530376842E0,4.406346644E0
8.274538625E0,-3.442448228E0,-6.197732842E-1,-7.375218818E-1,3.574703799E0
8.284542625E0,-3.464934573E0,-1.304028493E0,2.412368220E-1,3.710048128E0
8.294547625E0,-2.372661533E0,-1.331451935E0,1.337737107E0,3.031802693E0
8.304551625E0,-2.478090632E0,-7.472355688E-1,1.620503193E0,3.053739474E0
8.314556625E0,-3.033772000E0,-5.279673207E-1,2.441671103E0,3.929921095E0
8.324560625E0,-2.921247598E0,2.865854877E-1,2.600505307E0,3.921536258E0
8.334564625E0,-2.347649483E0,1.517421459E0,3.716929979E0,4.650762782E0
8.344569625E0,-1.306086421E0,2.257549737E0,6.036240932E0,6.575606218E0
8.354573750E0,-8.497612327E-1,2.618124722E0,7.137683283E0,7.650045350E0
8.364577750E0,-1.717238067E0,2.537254806E0,6.322767947E0,7.025949263E0
8.374582750E0,-1.539742912E0,2.752581446E0,4.878141400E0,5.808939350E0
8.384586750E0,-3.272842429E0,1.036525978E0,1.237294221E0,3.649216444E0
8.394590750E0,-4.430667142E0,-1.127268918E0,-7.606895442E0,8.875043932E0
8.404595750E0,-1.787950200E0,-2.078874030E0,-8.042289060E0,8.496875689E0
8.414599750E0,2.083988589E-1,-1.828652961E0,-4.132309747E0,4.523647376E0
8.424603750E0,1.452401006E0,-9.009629613E-1,-1.614168904E0,2.350902846E0
8.434608750E0,1.876103700E0,-2.931472331E-1,1.777799141E-1,1.907172277E0
8.444612750E0,1.603456221E0,1.351209676E-1,1.071450813E0,1.933219173E0
8.454617750E0,1.966283261E0,8.206467766E-1,1.026505678E0,2.365046490E0
8.464621750E0,2.311215482E0,1.362590697E0,5.021781760E-1,2.729570174E0
8.474625750E0,2.161119503E0,1.495846987E0,1.541279268E-1,2.632821896E0
8.484630750E0,1.937712888E0,1.350173550E0,3.352085577E-1,2.385385635E0
8.494634750E0,1.496126484E0,1.152863935E0,9.730421734E-1,2.124688396E0
8.504638750E0,9.860247463E-1,1.045837669E0,2.102117881E0,2.546550769E0
8.514643750E0,7.942702791E-1,1.218774335E0,3.507391498E0,3.797113545E0
8.524647750E0,7.951257268E-1,1.517876957E0,4.393325361E0,4.715663591E0
8.534651750E0,7.574907079E-1,1.927472659E0,5.025725123E0,5.435701982E0
8.544656750E0,6.697237086E-1,2.310243090E0,5.476460080E0,5.981418560E0
8.554660750E0,6.501969320E-1,2.797077003E0,6.388838561E0,7.004545236E0
8.564665750E0,3.279577544E-1,2.944447888E0,7.577358817E0,8.135950854E0
8.574669750E0,2.697145164E-1,3.280145309E0,8.671322579E0,9.274908864E0
8.584673750E0,-1.864150822E-1,2.828801656E0,9.235464284E0,9.660779986E0
8.594678750E0,-1.787186846E-1,1.891142154E0,7.719708112E0,7.949984425E0
8.604682750E0,6.950997475E-1,1.373043180E0,6.037459491E0,6.230515897E0
8.614686750E0,1.842691541E0,1.017144213E0,4.777331893E0,5.220440066E0
8.624691750E0,2.960482999E0,9.305469489E-1,4.612288384E0,5.559098970E0
8.634695750E0,3.457589008E0,1.623254308E0,4.805748192E0,6.138818452E0
8.644699750E0,3.003997101E0,3.053593184E0,4.635424647E0,6.311544310E0
8.654704750E0,2.484703540E0,4.263623593E0,4.151586263E0,6.448868608E0
8.664708750E0,2.497879071E0,4.750292029E0,3.548053036E0,6.433766748E0
8.674713750E0,2.718587781E0,4.100650583E0,2.830626572E0,5.676134382E0
8.684717750E0,2.407827565E0,1.959135332E0,2.229019418E0,3.821566746E0
8.694721750E0,2.127400072E0,-1.081724955E0,2.125437162E0,3.195847787E0
8.704726750E0,1.224318080E0,-5.275601206E0,2.570238365E0,5.994751713E0
8.714730750E0,-8.669561398E-1,-8.792765155E0,3.385489916E0,9.461811349E0
8.724734750E0,-2.196580235E0,-1.110188383E1,4.034960039E0,1.201489458E1
8.734739750E0,-2.998410964E0,-1.381946150E1,2.648762963E0,1.438693608E1
8.744743750E0,-1.808994622E0,-1.582725736E1,1.312400244E-2,1.593030789E1
8.754747750E0,-1.312635595E0,-1.648223439E1,-2.418073495E0,1.671030048E1
8.764752750E0,-3.674524802E-1,-1.482862543E1,-3.844763562E0,1.532335996E1
8.774756750E0,-4.725339621E-2,-1.183118365E1,-4.516893985E0,1.266418061E1
8.784760750E0,-4.209977728E-1,-8.614543192E0,-5.514762851E0,1.023719702E1
8.794765750E0,1.436932781E-1,-5.514500311E0,-6.191651153E0,8.292581350E0
8.804769750E0,1.506712868E0,-3.100030017E0,-7.368392778E0,8.134714617E0
8.814774750E0,2.607466125E0,-1.094105850E0,-1.106252739E1,1.141820736E1
8.824778750E0,5.253202862E0,1.201964759E0,-1.329057734E1,1.434155869E1
8.834782750E0,6.827768574E0,2.176376935E0,-1.262704115E1,1.451885700E1
8.844787750E0,7.674945922E0,4.381221625E0,-1.253590528E1,1.533782315E1
8.854791750E0,5.682427667E0,5.182510609E0,-1.055076036E1,1.305629904E1
8.864795750E0,3.386778350E0,5.699309163E0,-9.236184661E0,1.136923479E1
8.874800750E0,5.612236521E-1,5.276313981E0,-7.146665776E0,8.901083806E0
8.884804750E0,1.919740301E-1,5.324031354E0,-4.369610516E0,6.890258337E0
8.894808750E0,3.702535889E-1,5.887286621E0,-7.462289706E-1,5.945930470E0
8.904813750E0,-1.716649252E0,4.754016121E0,2.744268167E0,5.751396501E0
8.914817750E0,-2.057893635E0,3.839298170E0,5.139458145E0,6.737148260E0
8.924821750E0,-2.739514381E0,2.092897992E0,7.396719614E0,8.160675346E0
8.934826750E0,-4.313400647E0,2.172275698E-1,8.523696756E0,9.555418324E0
8.944830750E0,-5.845466750E0,-1.030219756E0,7.905173607E0,9.885474396E0
8.954835750E0,-6.637541108E0,-1.523549926E0,6.314519280E0,9.287158342E0
8.964839750E0,-6.764563097E0,-1.490189806E0,3.188509207E0,7.625389860E0
8.974843750E0,-6.338350192E0,-1.431313607E0,-6.264695156E-1,6.528078267E0
8.984848750E0,-5.617819442E0,-1.331391124E0,-4.161569799E0,7.116962892E0
8.994852750E0,-4.862985417E0,-9.052343524E-1,-6.621836071E0,8.265397108E0
9.004856750E0,-4.191853114E0,-1.678560197E-1,-7.905136185E0,8.949356752E0
9.014861750E0,-3.291632456E0,7.664302236E-1,-8.201778299E0,8.870818833E0
9.024865750E0,-1.774617964E0,1.651294631E0,-7.897002708E0,8.260671561E0
9.034869750E0,-1.530675343E-1,2.304972995E0,-6.836256977E0,7.216005795E0
9.044874750E0,1.652425482E0,2.644271716E0,-4.539016340E0,5.506845941E0
9.054878750E0,3.711711047E0,3.011473351E0,-2.518098743E0,5.402461654E0
9.064882750E0,4.134186996E0,2.476558954E0,-2.063257286E0,5.242315995E0
9.074887750E0,3.017203330E0,1.440037068E0,-1.430175154E0,3.636292571E0
9.084891750E0,3.192654591E0,9.291225672E-1,2.786315203E-1,3.336757049E0
9.094896750E0,3.558044465E0,1.981089288E-1,3.313816500E0,4.866241606E0
9.104900750E0,4.528214487E0,-3.293052453E-1,5.023397931E0,6.771092611E0
9.114904750E0,6.274060056E0,-1.249050633E0,6.589143119E0,9.183722781E0
9.124909750E0,7.865335942E0,-2.240284663E0,7.642559949E0,1.119335104E1
9.134913750E0,8.058082974E0,-2.920742691E0,7.618586950E0,1.146761990E1
9.144917750E0,7.260036855E0,-2.782578247E0,6.539232455E0,1.015935224E1
9.154922750E0,5.427151680E0,-1.296880857E0,4.996308950E0,7.489925129E0
9.164926750E0,3.143929158E0,6.065562379E-1,2.810958293E0,4.260714441E0
9.174930750E0,2.550796373E0,1.700032343E0,1.706890396E0,3.508581897E0
9.184935750E0,2.854433803E0,1.302801747E0,1.967730593E0,3.703653388E0
9.194939750E0,3.546068783E0,-3.309564990E-1,2.327705800E0,4.254685689E0
9.204943750E0,4.592231850E0,-2.487728305E0,2.211047854E0,5.671518147E0
9.214948750E0,5.753868363E0,-5.198907371E0,2.134262218E0,8.043053786E0
9.224952750E0,5.640532951E0,-8.177808223E0,1.360238800E0,1.002708377E1
9.234957750E0,2.263604529E0,-9.220844491E0,-4.910453698E-1,9.507313193E0
9.244961750E0,-1.676466602E0,-7.643587305E0,-2.210670855E0,8.131545535E0
9.254965750E0,-3.009437643E0,-5.298374357E0,-4.021730713E0,7.300945396E0
9.264970750E0,-4.652269891E0,-3.773685978E0,-5.572632744E0,8.181598664E0
9.274974750E0,-6.406935693E0,-3.397488402E0,-7.802657298E0,1.065238064E1
9.284978750E0,-7.137793211E0,-2.973186952E0,-9.702093143E0,1.240639125E1
9.294983750E0,-7.316202285E0,-2.004112115E0,-8.977909638E0,1.175355873E1
9.304987750E0,-6.514125681E0,-5.791737270E-1,-6.814270277E0,9.444763364E0
9.314991750E0,-5.508406928E0,2.078749484E-1,-3.384580966E0,6.468473328E0
9.324996750E0,-5.106506746E0,-1.768607318E-1,-1.754567861E0,5.402425311E0
9.335000750E0,-4.244316964E0,-9.284489679E-1,-1.322248709E0,4.541429910E0
9.345004750E0,-3.802397853E0,-1.518164055E0,-7.802986497E-1,4.167963234E0
9.355010000E0,-3.093746014E0,-2.048214739E0,9.557961032E-2,3.711547316E0
9.365014000E0,-2.549435141E0,-2.166882811E0,6.931312823E-1,3.416933074E0
9.375019000E0,-2.115681960E0,-1.161671596E0,1.280748973E0,2.732381559E0
9.385023000E0,-1.945560144E0,-3.864465755E-1,2.219592391E0,2.976765965E0
9.395027000E0,-1.593874681E0,9.580452347E-1,2.348267388E0,2.995437680E0
9.405032000E0,-1.658747492E0,2.126793131E0,3.315878229E0,4.274311721E0
9.415036000E0,-2.133929366E0,2.120699163E0,4.610466977E0,5.505217999E0
9.425040000E0,-3.715819008E0,1.152889663E0,2.811252408E0,4.799958914E0
9.435045000E0,-5.172977893E0,-2.679778934E-2,-1.132400435E0,5.295540497E0
9.445049000E0,-4.763743841E0,-7.566794068E-1,-2.612215526E0,5.485388689E0
9.455053000E0,-2.948487144E0,-3.946958274E-1,-1.549991181E0,3.354375336E0
9.465058000E0,-1.538681643E0,2.504555422E-1,-1.504780948E-2,1.559004687E0
9.475062000E0,-3.959380683E-1,7.924210972E-1,1.390417596E0,1.648623438E0
9.485066000E0,4.536041862E-1,1.279880077E0,1.911654772E0,2.344839810E0
9.495071000E0,1.027869468E0,1.539632108E0,1.611921819E0,2.454643482E0
9.505075000E0,1.586042335E0,1.680451187E0,8.853181511E-1,2.474517066E0
9.515080000E0,2.449907929E0,1.644714174E0,-3.530192131E-1,2.971827071E0
9.525084000E0,3.196247997E0,1.477310729E0,-1.281800303E0,3.747193652E0
9.535088000E0,2.977859755E0,1.226796130E0,-1.043182522E0,3.385396171E0
9.545093000E0,2.596492656E0,1.180623007E0,-3.018315544E-1,2.868230654E0
9.555097000E0,2.256634648E0,1.282285037E0,4.415191243E-1,2.632792052E0
9.565101000E0,1.547451004E0,1.114954682E0,1.580912281E0,2.477299375E0
9.575106000E0,1.217296159E0,1.337435390E0,2.718078781E0,3.264735153E0
9.585110000E0,1.206825842E0,2.217542503E0,4.297450905E0,4.984175724E0
9.595114000E0,1.014436952E0,2.958895773E0,5.140187877E0,6.017115417E0
9.605119000E0,8.025245011E-1,3.554540522E0,5.286436096E0,6.420686139E0
9.615123000E0,1.064210498E0,4.399617550E0,6.679604223E0,8.068846952E0
9.625127000E0,1.228165255E0,4.692316301E0,8.433820374E0,9.729108298E0
9.635132000E0,9.451135325E-1,4.184003811E0,8.436182649E0,9.464053316E0
9.645136000E0,1.522381360E0,3.438530009E0,7.755857939E0,8.619423762E0
9.655140000E0,2.320435080E0,2.206828065E0,7.213136923E0,7.892011996E0
9.665145000E0,2.763397626E0,5.055268764E-1,6.092321577E0,6.708823001E0
9.675149000E0,3.396269258E0,-3.941298169E-1,4.935219580E0,6.003863380E0
9.685154000E0,3.875283104E0,-2.446650445E-2,4.461823153E0,5.909846326E0
9.695158000E0,3.457103105E0,1.609582933E0,4.342408977E0,5.779172503E0
9.705162000E0,2.973084919E0,3.295333452E0,3.897475626E0,5.906671884E0
9.715167000E0,2.488458037E0,4.218400642E0,3.174873208E0,5.836706886E0
9.725171000E0,2.349604500E0,4.327080501E0,2.145515331E0,5.370987153E0
9.735175000E0,2.126565675E0,3.472170210E0,1.118319755E0,4.222426626E0
9.745180000E0,1.782890312E0,5.237427074E-1,1.231579152E0,2.229302917E0
9.755184000E0,1.095191970E0,-3.935419378E0,2.148974544E0,4.615740756E0
9.765188000E0,-2.571538201E-1,-7.638784402E0,2.613584944E0,8.077622267E0
9.775193000E0,-1.607486706E0,-1.071883741E1,3.229020179E0,1.130946772E1
9.785197000E0,-2.598526902E0,-1.407777044E1,4.018451595E0,1.486889087E1
9.795201000E0,-2.639747433E0,-1.729181180E1,2.547362303E0,1.767665344E1
9.805206000E0,-1.480974302E0,-1.833649406E1,4.526027043E-1,1.840177026E1
9.815210000E0,-8.263864034E-1,-1.628765075E1,-2.196103687E0,1.645579998E1
9.825214000E0,-6.121046609E-1,-1.253285303E1,-4.347241700E0,1.327951760E1
9.835219000E0,-4.157753322E-1,-8.502684787E0,-6.035256261E0,1.043517301E1
9.845223000E0,1.603691863E0,-4.163385360E0,-7.085805616E0,8.373425015E0
9.855228000E0,2.803118054E0,-1.861002097E0,-9.689027540E0,1.025661027E1
9.865232000E0,4.228619529E0,1.777658808E-1,-1.211304751E1,1.283116299E1
9.875236000E0,6.223565256E0,2.045631439E0,-1.396291241E1,1.542336849E1
9.885241000E0,7.514992415E0,3.084880466E0,-1.365124880E1,1.588547111E1
9.895245000E0,6.831130139E0,4.296244040E0,-1.144442074E1,1.400345735E1
9.905249000E0,5.428456194E0,5.285955455E0,-8.962926732E0,1.173641842E1
9.915254000E0,3.305742080E0,5.540161986E0,-7.092924601E0,9.588060541E0
9.925258000E0,1.062349914E0,5.324796170E0,-5.271561365E0,7.567787049E0
9.935262000E0,-5.348395532E-1,4.567112796E0,-3.223044909E0,5.615388778E0
9.945267000E0,-1.306749787E0,4.541407852E0,-9.378746796E-1,4.817840719E0
9.955271000E0,-2.749233623E0,3.708519929E0,2.131197546E0,5.084624722E0
9.965275000E0,-4.215334362E0,2.809698803E0,5.034658499E0,7.142215157E0
9.975280000E0,-5.071408249E0,2.175014534E0,6.886851180E0,8.824884647E0
9.985284000E0,-5.836570212E0,1.069791958E0,7.749204977E0,9.760132399E0
9.995289000E0,-6.237064723E0,4.070866621E-1,7.299269918E0,9.609684555E0
1.000529300E1,-6.217398198E0,-4.300422460E-1,5.627666153E0,8.397118733E0
1.001529700E1,-5.782495746E0,-9.088912010E-1,2.755665852E0,6.469701273E0
1.002530200E1,-4.994577590E0,-1.144592464E0,-6.689042214E-1,5.167526494E0
1.003530600E1,-4.393665669E0,-1.216935970E0,-3.793872905E0,5.931163696E0
1.004531000E1,-3.925288200E0,-9.777421653E-1,-6.737738410E0,7.858815819E0
1.005531500E1,-3.515145783E0,-3.946999204E-1,-8.881177395E0,9.559673102E0
1.006531900E1,-2.465826097E0,8.085196513E-1,-9.460955139E0,9.810386053E0
1.007532300E1,-1.309897636E0,1.800001604E0,-8.266815709E0,8.561312957E0
1.008532800E1,-2.738715944E-1,2.527834942E0,-6.152558423E0,6.657246450E0
1.009533200E1,1.407435917E0,3.491341476E0,-3.285810091E0,4.996687815E0
1.010533600E1,2.800065515E0,3.620221710E0,-1.926930038E0,4.965826365E0
1.011534100E1,1.567153198E0,2.059372396E0,-2.523537823E0,3.614585309E0
1.012534500E1,2.158332428E0,1.377191779E0,-1.745526604E0,3.098696369E0
1.013534900E1,3.892298502E0,6.718082410E-1,1.522826040E0,4.233239078E0
1.014535400E1,6.469647081E0,8.816876149E-1,3.928730748E0,7.620277665E0
1.015535800E1,8.879247229E0,5.152753544E-1,4.997332798E0,1.020195448E1
1.016536300E1,1.013103319E1,-9.675446212E-1,7.018111816E0,1.236235696E1
1.017536700E1,1.061541536E1,-2.656984148E0,8.203041297E0,1.367612864E1
1.018537100E1,1.006237167E1,-3.471334643E0,8.409507067E0,1.356544496E1
1.019537600E1,8.007149048E0,-2.935953053E0,7.577193925E0,1.140824807E1
1.020538000E1,4.578801380E0,-1.463966798E0,5.044733251E0,6.968353783E0
1.021538400E1,2.033046184E0,-5.316522360E-2,2.366908750E0,3.120634608E0
1.022538900E1,1.460726564E0,9.405164516E-1,1.215860375E0,2.120521101E0
1.023539300E1,2.562033552E0,7.348225147E-1,1.145918905E0,2.901225635E0
1.024539700E1,3.857939093E0,-1.270815724E0,1.385073826E0,4.291514436E0
1.025540200E1,5.173007714E0,-4.085315090E0,1.721724343E0,6.812792593E0
1.026540600E1,5.510647581E0,-6.906645759E0,1.439263481E0,8.952121077E0
1.027541000E1,2.280921935E0,-8.865238470E0,-2.820623741E-1,9.158308642E0
1.028541500E1,-1.227325888E0,-7.751201216E0,-2.144493822E0,8.135496474E0
1.029541900E1,-4.017611642E0,-5.601027993E0,-2.910105436E0,7.482074013E0
1.030542300E1,-4.605687463E0,-4.808252555E0,-4.068482126E0,7.802832591E0
1.031542800E1,-6.181898582E0,-4.686531066E0,-7.450985284E0,1.075623657E1
1.032543200E1,-8.596223280E0,-5.286882824E0,-1.339313165E1,1.676967979E1
1.033543700E1,-9.250476426E0,-4.736693160E0,-1.354969787E1,1.707635466E1
1.034544100E1,-8.752679569E0,-2.529148226E0,-8.034719254E0,1.214753900E1
1.035544450E1,-7.748813798E0,-8.003236091E-1,-4.284632931E0,8.890596859E0
1.036544950E1,-6.375784067E0,-3.761923134E-2,-1.513516104E0,6.553073223E0
1.037545350E1,-5.446565021E0,-2.526657897E-1,1.034319532E0,5.549660117E0
1.038545750E1,-4.267573679E0,-1.201730286E0,1.858411195E0,4.807289565E0
1.039546250E1,-3.231719254E0,-2.494560776E0,9.801219821E-2,4.083680839E0
1.040546650E1,-1.373489322E0,-3.377393276E0,-5.684663057E-1,3.690042303E0
1.041547050E1,-1.232859400E0,-2.342715603E0,-2.446007252E-2,2.647424596E0
1.042547550E1,-1.290234619E0,-8.396782941E-1,2.268643659E-1,1.556030993E0
1.043547950E1,-9.210934630E-1,-2.081918675E-1,1.715318572E0,1.958079372E0
1.044548350E1,-8.708883923E-1,4.275197572E-1,4.400966502E0,4.506631324E0
1.045548850E1,-1.070100106E0,1.404866651E0,5.487608382E0,5.764773221E0
1.046549250E1,-2.100636489E0,1.840526317E0,5.535241554E0,6.199928213E0
1.047549650E1,-2.990659602E0,1.680823070E0,3.052641258E0,4.592148701E0
1.048550150E1,-3.165033221E0,1.094245014E0,-1.046532319E0,3.508566279E0
1.049550550E1,-2.289116516E0,1.100668180E-1,-4.047956060E0,4.651678986E0
1.050550950E1,-1.427997651E0,-5.693012881E-1,-3.218820881E0,3.567084119E0
1.051551450E1,-6.845566329E-1,-5.102923572E-2,-1.112903552E0,1.307584063E0
1.052551850E1,2.803742829E-1,6.997316194E-1,1.148648677E0,1.373909699E0
1.053552350E1,1.018082398E0,1.272904934E0,2.158877973E0,2.705093869E0
1.054552750E1,1.409442097E0,1.733305923E0,1.946341040E0,2.962957963E0
1.055553150E1,1.677537227E0,2.028582128E0,1.394851540E0,2.979074926E0
1.056553650E1,2.005305532E0,2.035968331E0,8.651896229E-1,2.985794769E0
1.057554050E1,2.701693128E0,1.748400511E0,1.865226710E-1,3.223482715E0
1.058554450E1,2.253999600E0,1.559659406E0,3.403313398E-2,2.741205923E0
1.059554950E1,1.553831486E0,1.516134487E0,7.213271409E-1,2.287655768E0
1.060555350E1,1.179431637E0,1.568247796E0,1.722227789E0,2.610848271E0
1.061555750E1,1.071045893E0,1.724559658E0,2.539566795E0,3.251252809E0
1.062556250E1,1.056460891E0,2.057415918E0,3.162666560E0,3.918102812E0
1.063556650E1,1.266270098E0,2.633737957E0,3.977277256E0,4.935458435E0
1.064557050E1,1.242175184E0,3.336240572E0,4.586624955E0,5.806085499E0
1.065557550E1,6.378642771E-1,3.600256392E0,4.468117096E0,5.773455405E0
1.066557950E1,4.150929621E-1,3.675152208E0,5.838779290E0,6.911612657E0
1.067558350E1,5.141003564E-1,3.616618656E0,7.403102435E0,8.255310736E0
1.068558850E1,3.890950719E-1,3.169518328E0,7.448175112E0,8.103860432E0
1.069559250E1,6.227308059E-1,2.587207569E0,6.258348588E0,6.800614951E0
1.070559750E1,1.398641705E0,1.941751560E0,5.145925165E0,5.675133791E0
1.071560150E1,2.414978125E0,1.246159769E0,4.481932898E0,5.241445985E0
1.072560550E1,3.441536062E0,8.040570563E-1,4.042248008E0,5.369399145E0
1.073561050E1,4.433027371E0,1.159670679E0,3.846155784E0,5.982431117E0
1.074561450E1,4.794392899E0,2.356333768E0,3.851684911E0,6.585893163E0
1.075561850E1,4.276258549E0,3.795117193E0,3.704186558E0,6.812510531E0
1.076562350E1,3.507549958E0,4.629185084E0,3.137574989E0,6.601260338E0
1.077562750E1,2.789824702E0,4.897088133E0,2.427220148E0,6.136447807E0
1.078563150E1,1.781295192E0,4.501704088E0,1.925448938E0,5.210154112E0
1.079563650E1,8.168224052E-1,2.453537296E0,1.874616753E0,3.193936768E0
1.080564050E1,4.608816308E-1,-2.043749805E0,3.149015651E0,3.782277715E0
1.081564450E1,-7.369292665E-1,-7.538791752E0,4.471794995E0,8.796214885E0
1.082564950E1,-1.974875160E0,-1.105946111E1,6.501445994E0,1.298000816E1
1.083565350E1,-3.202279108E0,-1.334515642E1,7.697259482E0,1.573517063E1
1.084565750E1,-3.337821367E0,-1.534846629E1,5.936201504E0,1.679151444E1
1.085566250E1,-2.008397247E0,-1.652785320E1,1.452741752E0,1.671269127E1
1.086566650E1,-1.007108052E0,-1.666468740E1,-2.967021064E0,1.695668856E1
1.087567050E1,-7.107834417E-1,-1.542750428E1,-5.906657277E0,1.653486321E1
1.088567550E1,-4.618051985E-1,-1.162963480E1,-7.247920255E0,1.371109105E1
1.089567950E1,1.150443188E0,-7.052311011E0,-9.020972627E0,1.150810833E1
1.090568350E1,1.881935129E0,-3.654467683E0,-1.098926528E1,1.173289245E1
1.091568850E1,3.914484884E0,-1.037900074E0,-1.212128740E1,1.277990754E1
1.092569250E1,5.588292757E0,9.388002938E-1,-1.111396417E1,1.247519786E1
1.093569750E1,7.401058248E0,2.445231326E0,-1.249429181E1,1.472624010E1
1.094570150E1,7.332594370E0,3.649726760E0,-1.134886203E1,1.399586064E1
1.095570550E1,6.238883207E0,4.604002880E0,-9.302955186E0,1.211055248E1
1.096571050E1,5.249598638E0,5.793170423E0,-6.894849586E0,1.042391770E1
1.097571450E1,3.866618700E0,6.107399792E0,-5.273357629E0,8.947590350E0
1.098571850E1,8.752205944E-1,5.406326237E0,-4.192557119E0,6.897239278E0
1.099572350E1,-1.350941289E0,5.188168375E0,-1.251242169E0,5.505246627E0
1.100572750E1,-2.043177655E0,5.032213778E0,1.256368423E0,5.574604206E0
1.101573150E1,-2.911193018E0,3.845161173E0,2.644180500E0,5.500181792E0
1.102573650E1,-4.153301252E0,2.452935033E0,4.853791255E0,6.842959236E0
1.103574050E1,-5.921218598E0,6.605687231E-1,7.333279079E0,9.448500557E0
1.104574450E1,-6.827913001E0,-6.420897675E-1,7.828185657E0,1.040736114E1
1.105574950E1,-7.131847762E0,-1.165336046E0,7.003479744E0,1.006329912E1
1.106575350E1,-7.818634815E0,-1.806823550E0,5.985047974E0,1.001081720E1
1.107575750E1,-7.178240740E0,-1.718065740E0,3.157009087E0,8.027801467E0
1.108576250E1,-6.122796680E0,-1.601444194E0,-1.869284678E-1,6.331524694E0
1.109576650E1,-5.110289310E0,-1.204617641E0,-2.868426483E0,5.982811294E0
1.110577050E1,-4.252926404E0,-5.596036810E-1,-4.758823117E0,6.406788333E0
1.111577550E1,-3.497709094E0,-7.633540034E-2,-6.454232066E0,7.341451325E0
1.112577950E1,-2.432774126E0,5.170833135E-1,-7.797337502E0,8.184389850E0
1.113578350E1,-8.331615722E-1,1.108408724E0,-8.648415527E0,8.758870888E0
1.114578850E1,1.205865437E0,1.689655874E0,-8.497241614E0,8.747123154E0
1.115579250E1,3.414454391E0,2.233297825E0,-7.097995892E0,8.187042423E0
1.116579750E1,3.447300540E0,1.354133869E0,-6.021058052E0,7.068995658E0
1.117580150E1,2.611688400E0,-1.146253073E-1,-4.929702732E0,5.579966334E0
1.118580550E1,1.831673048E0,-1.089511693E-1,-5.222165841E-1,1.907775320E0
1.119581050E1,2.014708439E0,-3.627565813E-1,2.803670908E0,3.471485704E0
1.120581450E1,4.699711567E0,-1.956063205E-1,4.566211156E0,6.555595699E0
1.121581850E1,7.376939653E0,-6.329090542E-1,6.512891918E0,9.860911401E0
1.122582350E1,9.828847915E0,-1.488727418E0,8.594217101E0,1.314089526E1
1.123582750E1,1.049301443E1,-2.153951694E0,9.164604217E0,1.409726322E1
1.124583150E1,8.888560674E0,-2.054637321E0,8.757961943E0,1.264634108E1
1.125583650E1,5.970339303E0,-1.025736696E0,7.351306044E0,9.525690931E0
1.126584050E1,3.592101573E0,4.075076616E-1,4.889439390E0,6.080779041E0
1.127584450E1,1.552683093E0,1.499473431E0,2.362776961E0,3.200306286E0
1.128584950E1,8.211741954E-1,2.133936675E0,1.144629448E0,2.556988338E0
1.129585350E1,1.430318703E0,2.190326053E0,9.959989268E-1,2.799170176E0
1.130585750E1,2.582797015E0,1.194224215E0,1.603507091E0,3.266228236E0
1.131586250E1,3.886100453E0,-4.843938696E-1,1.811919545E0,4.315027994E0
1.132586650E1,5.052822289E0,-2.686764602E0,2.034824177E0,6.073732505E0
1.133587050E1,5.614198261E0,-5.206404086E0,1.748192934E0,7.853791706E0
1.134587550E1,3.889474297E0,-7.450905762E0,1.682162082E-1,8.406682084E0
1.135587904E1,6.919065830E-1,-7.107128658E0,-2.297323375E0,7.501180385E0
1.136588304E1,-2.356580520E0,-5.805113361E0,-4.320070566E0,7.610244581E0
1.137588804E1,-5.034935657E0,-5.203487495E0,-6.378609442E0,9.649534579E0
1.138589204E1,-6.478038420E0,-5.370688042E0,-1.031860251E1,1.331475984E1
1.139589604E1,-8.455169728E0,-5.281158984E0,-1.282278488E1,1.624205490E1
1.140590104E1,-8.244998578E0,-3.989516063E0,-1.055133222E1,1.397236027E1
1.141590504E1,-6.764961877E0,-1.918180264E0,-5.808377277E0,9.120382191E0
1.142591004E1,-6.541140402E0,-1.204288443E0,-1.586663017E0,6.837713649E0
1.143591404E1,-6.797227982E0,-1.995378129E0,-8.505701950E-1,7.134936004E0
1.144591804E1,-5.711616383E0,-2.893081852E0,-3.332154246E-1,6.411202448E0
1.145592304E1,-6.271207784E0,-2.614428113E0,8.178295881E-1,6.843400227E0
1.146592704E1,-5.418394890E0,-2.348082762E0,6.703207093E-1,5.943216780E0
1.147593104E1,-4.651506245E0,-2.071022973E0,1.158401102E0,5.221832974E0
1.148593604E1,-3.814137601E0,-1.606057647E0,1.073801394E0,4.275525258E0
1.149594004E1,-2.776512346E0,-6.158919024E-1,8.995817028E-1,2.982882981E0
1.150594404E1,-2.076119699E0,6.149551785E-1,1.499198027E0,2.633635813E0
1.151594904E1,-1.671966877E0,1.314452325E0,2.664927590E0,3.409559680E0
1.152595304E1,-1.359582597E0,2.160894678E0,3.858522645E0,4.626675658E0
1.153595704E1,-8.851409805E-1,2.564075984E0,5.368198882E0,6.014608836E0
1.154596204E1,-1.892743122E0,1.981119109E0,5.181130666E0,5.861008823E0
1.155596604E1,-2.344868547E0,8.510330021E-1,1.553402300E0,2.938660304E0
1.156597004E1,-1.505878471E0,-6.383931577E-2,-2.021587104E0,2.521618497E0
1.157597504E1,-6.053248143E-1,-4.469325131E-1,-3.069575964E0,3.160453037E0
1.158597904E1,5.318478253E-1,-4.595110434E-1,-2.023636553E0,2.142222539E0
1.159598304E1,9.136406019E-1,-2.269871575E-1,-7.113167808E-1,1.179929609E0
1.160598804E1,1.803149745E0,3.634389514E-1,-7.064313591E-2,1.840768135E0
1.161599204E1,3.038822533E0,8.545904481E-1,8.745029949E-2,3.157913041E0
1.162599604E1,2.339459873E0,4.356427091E-1,2.432541114E-1,2.392076426E0
1.163600104E1,2.020765570E0,3.585407388E-1,-4.286242962E-1,2.096607674E0
1.164600504E1,1.978307768E0,5.260465103E-1,-2.804313298E-1,2.066172375E0
1.165600904E1,1.758581682E0,8.342971015E-1,2.545836765E-1,1.963026754E0
1.166601404E1,1.524050447E0,1.204972567E0,9.049741513E-1,2.143284131E0
1.167601804E1,1.467996114E0,1.417748652E0,1.715658442E0,2.666178486E0
1.168602304E1,1.248712371E0,1.383095713E0,2.441966826E0,3.071715858E0
1.169602704E1,1.053988103E0,1.510122964E0,2.931072382E0,3.461581661E0
1.170603104E1,9.542462987E-1,1.884901421E0,3.466956832E0,4.059954315E0
1.171603604E1,8.818542606E-1,2.570107387E0,4.296735206E0,5.083802941E0
1.172604004E1,7.974958956E-1,3.285830557E0,4.822169513E0,5.889482232E0
1.173604404E1,6.656420597E-1,3.756689292E0,5.120852305E0,6.385837620E0
1.174604904E1,5.447540921E-1,3.757282784E0,6.102236116E0,7.186878081E0
1.175605304E1,4.505332285E-1,3.487006935E0,7.331627240E0,8.131110351E0
1.176605704E1,2.185370538E-1,2.742645273E0,7.848443921E0,8.316726129E0
1.177606204E1,1.326528579E-1,1.786867003E0,6.759850241E0,6.993287192E0
1.178606604E1,3.922435051E-1,9.158569890E-1,5.760018464E0,5.845550590E0
1.179607004E1,9.752723014E-1,1.585770732E-1,4.636381252E0,4.740499326E0
1.180607504E1,1.810510805E0,3.494822323E-2,3.695503442E0,4.115327015E0
1.181607904E1,2.554090694E0,4.276367015E-1,3.605904218E0,4.439459162E0
1.182608304E1,2.891294651E0,1.339706449E0,3.890333837E0,5.028826453E0
1.183608804E1,2.955292134E0,2.536187105E0,3.968493569E0,5.560120307E0
1.184609204E1,2.692840151E0,3.591904230E0,3.808209693E0,5.886902848E0
1.185609604E1,2.480982080E0,3.919174644E0,3.363241260E0,5.729449689E0
1.186610104E1,2.134919884E0,2.913891508E0,2.826683210E0,4.586805490E0
1.187610504E1,1.757651683E0,6.737126791E-1,2.764893343E0,3.344826365E0
1.188610904E1,1.416611076E0,-2.274466901E0,3.352718611E0,4.291935310E0
1.189611404E1,5.469093758E-1,-4.421086187E0,3.594520859E0,5.724132523E0
1.190611804E1,-8.709208444E-1,-5.832444416E0,3.092407587E0,6.658745803E0
1.191612204E1,-2.035957806E0,-7.686350332E0,3.034903729E0,8.510919237E0
1.192612704E1,-3.578793310E0,-1.039841350E1,2.163813608E0,1.120789249E1
1.193613104E1,-3.104228902E0,-1.251615572E1,5.562193125E-1,1.290735337E1
1.194613504E1,-2.416734628E0,-1.367935754E1,-7.374473298E-1,1.391076049E1
1.195614004E1,-1.951804970E0,-1.288870873E1,-2.491772239E0,1.327167225E1
1.196614404E1,-1.849769595E0,-1.113114095E1,-3.305272549E0,1.175792384E1
1.197614804E1,-1.827755705E0,-8.755690885E0,-4.426878731E0,9.979983421E0
1.198615304E1,-1.271656261E0,-5.989069104E0,-5.695547065E0,8.362135777E0
1.199615704E1,1.583291513E-1,-3.857496459E0,-8.017253621E0,8.898410121E0
1.200616204E1,2.210313883E0,-1.397275211E0,-1.069326753E1,1.100835301E1
1.201616604E1,6.219902560E0,1.035333731E0,-1.185401819E1,1.342672153E1
1.202617004E1,9.162751234E0,2.439756578E0,-1.232447113E1,1.554995212E1
1.203617504E1,9.087686434E0,3.058517709E0,-1.259315771E1,1.582808252E1
1.204617904E1,6.604260510E0,3.050345641E0,-1.088103215E1,1.308883975E1
1.205618304E1,4.497112562E0,3.877125562E0,-9.391807721E0,1.111135349E1
1.206618804E1,2.786067281E0,4.038790550E0,-7.133592571E0,8.658068085E0
1.207619204E1,1.684983364E0,4.293707517E0,-4.652006474E0,6.551050100E0
1.208619604E1,5.209263960E-1,4.074897691E0,-1.639931152E0,4.423293986E0
1.209620104E1,-9.758456209E-1,4.029198777E0,2.035841446E0,4.618589379E0
1.210620504E1,-2.080099898E0,3.725495566E0,4.479063669E0,6.186125132E0
1.211620904E1,-2.898404280E0,2.567739850E0,6.297073528E0,7.392372442E0
1.212621404E1,-3.773435425E0,1.577206900E0,7.116837959E0,8.208275035E0
1.213621804E1,-5.163321801E0,3.509820431E-1,6.737898624E0,8.496020144E0
1.214622204E1,-5.957441515E0,-7.353762460E-1,6.081725253E0,8.545131343E0
1.215622704E1,-6.032215708E0,-1.355988021E0,4.410136398E0,7.594447506E0
1.216623104E1,-6.129622135E0,-1.728588974E0,2.019585602E0,6.681243400E0
1.217623504E1,-5.773386369E0,-1.833907853E0,-6.511649385E-1,6.092554797E0
1.218624004E1,-4.964274395E0,-1.463678530E0,-3.312120223E0,6.144633063E0
1.219624404E1,-4.069196656E0,-8.730571246E-1,-5.396788259E0,6.815123893E0
1.220624804E1,-3.277042776E0,-1.271365947E-1,-6.382843995E0,7.176062328E0
1.221625304E1,-2.510603490E0,5.665712231E-1,-6.531726385E0,7.020511548E0
1.222625704E1,-1.399053641E0,9.980302495E-1,-6.533862373E0,6.756091546E0
1.223626104E1,2.395019531E-3,1.599565483E0,-6.016990144E0,6.225976699E0
1.224626604E1,1.280971168E0,2.195204385E0,-5.114218054E0,5.710957514E0
1.225627004E1,2.279629700E0,2.473247091E0,-4.463233794E0,5.588749292E0
1.226627404E1,2.942071579E0,2.539756245E0,-4.138392313E0,5.677361879E0
1.227627904E1,1.865962874E0,1.180749891E0,-3.941562463E0,4.517953342E0
1.228628304E1,1.257370636E0,2.913726032E-2,-3.354465759E-1,1.301673654E0
1.229628704E1,1.906468876E0,2.585124207E-1,2.370073263E0,3.052654503E0
1.230629204E1,4.115694299E0,4.778210145E-1,3.540247588E0,5.449826187E0
1.231629604E1,6.703939165E0,-1.983194286E-1,5.041140722E0,8.390186571E0
1.232630004E1,8.221981598E0,-1.351210846E0,6.448765504E0,1.053628629E1
1.233630504E1,8.886856211E0,-2.542835389E0,6.831204398E0,1.149380610E1
1.234630904E1,8.772620913E0,-3.416850872E0,6.378557986E0,1.137188417E1
1.235631342E1,7.553904465E0,-3.159190391E0,5.520166848E0,9.874927778E0
1.236631842E1,5.051533563E0,-1.776435571E0,4.004110129E0,6.686300367E0
1.237632242E1,3.064853168E0,-1.191171384E-1,1.966463647E0,3.643417778E0
1.238632642E1,1.764300844E0,6.958695334E-1,6.369996201E-1,2.000689979E0
1.239633142E1,1.402225463E0,1.175119607E0,8.000546372E-1,1.996804889E0
1.240633542E1,1.715928583E0,7.253728294E-1,1.077308553E0,2.152015419E0
1.241633942E1,2.865165783E0,-7.409655994E-1,1.340299210E0,3.248785459E0
1.242634442E1,4.666261401E0,-2.827824587E0,1.566527253E0,5.676671119E0
1.243634842E1,5.058812177E0,-5.410211712E0,1.738485095E0,7.608173357E0
1.244635242E1,3.216644255E0,-7.362552579E0,7.212587285E-1,8.066857808E0
1.245635742E1,-3.412490603E-1,-6.583815721E0,-8.836367843E-1,6.651608402E0
1.246636142E1,-3.216074151E0,-4.395184191E0,-2.190082224E0,5.870028719E0
1.247636542E1,-4.618094670E0,-2.556381049E0,-3.523161439E0,6.346223205E0
1.248637042E1,-5.443821507E0,-1.436773737E0,-4.917924685E0,7.475660144E0
1.249637442E1,-6.918307446E0,-8.842615592E-1,-6.385823151E0,9.456407021E0
1.250637942E1,-7.266203914E0,-7.287466729E-1,-8.030543173E0,1.085441913E1
1.251638342E1,-7.162303569E0,-6.804054022E-1,-8.220304032E0,1.092405338E1
1.252638742E1,-7.387666955E0,-7.638521862E-1,-7.242309267E0,1.037362698E1
1.253639242E1,-6.787873607E0,-9.077919245E-1,-5.986278813E0,9.095869849E0
1.254639642E1,-5.192713416E0,-1.446728622E0,-4.121759616E0,6.785734938E0
1.255640042E1,-3.332802994E0,-2.396309427E0,-2.262985309E0,4.687320895E0
1.256640542E1,-1.730613281E0,-2.911894684E0,-9.052159336E-1,3.506218599E0
1.257640942E1,-1.691765257E0,-2.827992402E0,-9.376492694E-2,3.296726038E0
1.258641342E1,-1.910370431E0,-2.251825313E0,1.155834759E0,3.171149068E0
1.259641842E1,-9.348727190E-1,-9.201149315E-1,1.254886739E0,1.815306920E0
1.260642242E1,-8.815101519E-1,-2.104541552E-1,1.491417575E0,1.745186948E0
1.261642642E1,-1.486811577E0,9.835028422E-1,1.794162574E0,2.529210519E0
1.262643142E1,-1.470647534E0,1.845565447E0,2.498196575E0,3.436553814E0
1.263643542E1,-4.074214152E-1,2.272135032E0,4.107064978E0,4.711323864E0
1.264643942E1,-3.513211817E-2,2.436552889E0,5.369152563E0,5.896255040E0
1.265644442E1,7.291360974E-2,2.123737961E0,5.329255257E0,5.737293867E0
1.266644842E1,-1.268413103E-1,2.058128108E0,4.426589001E0,4.883305255E0
1.267645242E1,-1.823695691E0,2.334027225E-1,3.362910308E0,3.832689466E0
1.268645742E1,-3.483277873E0,-1.789575434E0,-4.241296000E0,5.772728708E0
1.269646142E1,-1.817058809E0,-2.309394075E0,-7.277804790E0,7.848658883E0
1.270646542E1,7.201898575E-2,-2.152130871E0,-4.433491055E0,4.928762213E0
1.271647042E1,1.457518489E0,-1.421688505E0,-2.268109955E0,3.047930629E0
1.272647442E1,2.050441066E0,-6.998427165E-1,-5.108134172E-1,2.225987139E0
1.273647842E1,2.325637347E0,2.191448718E-1,7.969602176E-1,2.468148929E0
1.274648342E1,2.402093785E0,1.223241608E0,1.504378075E0,3.086993355E0
1.275648742E1,2.197100345E0,1.984241522E0,1.452206878E0,3.297479213E0
1.276649142E1,2.208705898E0,2.434387665E0,1.128683944E0,3.475421197E0
1.277649642E1,2.025689510E0,2.585935215E0,1.249791475E0,3.514606331E0
1.278650042E1,1.618809547E0,2.586588934E0,1.791160029E0,3.538253936E0
1.279650442E1,1.232359756E0,2.526046278E0,2.542361180E0,3.789884000E0
1.280650942E1,1.052498233E0,2.471138000E0,3.225004311E0,4.197014219E0
1.281651342E1,1.066156451E0,2.415551444E0,4.232038103E0,4.988158465E0
1.282651742E1,1.102082037E0,2.381530005E0,4.766070156E0,5.440743948E0
1.283652242E1,8.740894505E-1,2.375748863E0,4.508564626E0,5.170625689E0
1.284652642E1,6.930587769E-1,2.567023566E0,5.069725420E0,5.724688314E0
1.285653042E1,5.621480969E-1,3.048510200E0,6.324013989E0,7.042909758E0
1.286653542E1,3.632652891E-1,2.773916767E0,7.103632607E0,7.634669090E0
1.287653942E1,-9.728597403E-3,1.719064445E0,6.134095255E0,6.370431839E0
1.288654342E1,3.750380731E-1,1.060991313E0,4.613247328E0,4.748516298E0
1.289654842E1,1.527872480E0,7.862978929E-1,3.724733673E0,4.101987278E0
1.290655242E1,2.518583770E0,6.606032217E-1,3.122842344E0,4.065932258E0
1.291655642E1,3.195114514E0,1.023974930E0,2.959281689E0,4.473771287E0
1.292656142E1,3.323195727E0,1.728280826E0,3.552700403E0,5.162583133E0
1.293656542E1,3.043217008E0,2.891114849E0,3.964871804E0,5.774073367E0
1.294656942E1,2.797258267E0,4.086517863E0,3.925479112E0,6.319309164E0
1.295657442E1,2.757494569E0,4.737993581E0,3.436941905E0,6.470311363E0
1.296657842E1,2.770092980E0,4.735261762E0,2.384507407E0,5.981805300E0
1.297658242E1,2.331553853E0,3.365177858E0,1.550679252E0,4.377804418E0
1.298658742E1,1.851336941E0,1.194416589E-1,2.030664321E0,2.750511292E0
1.299659142E1,1.294360999E0,-4.110769774E0,2.987799144E0,5.244115012E0
1.300659542E1,1.067084697E-1,-6.794656377E0,4.133603736E0,7.953956363E0
1.301660042E1,-1.204771423E0,-8.278441143E0,4.736247602E0,9.613329459E0
1.302660442E1,-2.523423510E0,-9.968826749E0,4.588141138E0,1.126038241E1
1.303660842E1,-3.259120183E0,-1.182348052E1,2.924741017E0,1.260835699E1
1.304661342E1,-2.322766949E0,-1.301676275E1,6.523538236E-1,1.323846382E1
1.305661742E1,-1.099731748E0,-1.304153039E1,-1.734297173E0,1.320222373E1
1.306662142E1,-1.797629973E0,-1.235613380E1,-3.417141479E0,1.294536102E1
1.307662642E1,-2.171346576E0,-1.011817633E1,-5.198633137E0,1.158093367E1
1.308663042E1,-1.445023281E0,-6.865671980E0,-7.007700849E0,9.916320649E0
1.309663442E1,3.227861845E-1,-3.231024604E0,-8.701753244E0,9.287853381E0
1.310663942E1,3.960035864E0,1.027648151E-1,-1.137854717E1,1.204839327E1
1.311664342E1,5.169120485E0,7.663366681E-1,-1.018610227E1,1.144830808E1
1.312664742E1,6.783403995E0,2.056791435E0,-1.059370816E1,1.274643532E1
1.313665242E1,7.757836636E0,3.159716055E0,-1.036711335E1,1.332834851E1
1.314665642E1,5.812601305E0,3.116583484E0,-8.911720326E0,1.108684742E1
1.315666042E1,4.040212300E0,3.190364821E0,-7.457948148E0,9.062159439E0
1.316666542E1,2.264299178E0,3.674645255E0,-6.105445653E0,7.477067282E0
1.317666942E1,5.766073841E-1,3.719894518E0,-4.500648373E0,5.867361168E0
1.318667342E1,-5.280781254E-1,3.547265416E0,-2.144896111E0,4.178820140E0
1.319667842E1,-1.576504650E0,3.944430522E0,3.135201019E-1,4.259365435E0
1.320668242E1,-2.514984516E0,4.067554758E0,3.183469200E0,5.744965184E0
1.321668642E1,-3.174357191E0,3.076095024E0,5.474341634E0,7.036143866E0
1.322669142E1,-3.486689431E0,1.628222687E0,6.681556023E0,7.710467120E0
1.323669542E1,-3.897016620E0,4.231162190E-2,6.592821018E0,7.658578052E0
1.324669942E1,-5.337501000E0,-1.220702747E0,5.510508417E0,7.768187378E0
1.325670442E1,-6.038106778E0,-1.515522283E0,3.964194111E0,7.380404881E0
1.326670842E1,-6.095764418E0,-1.683960101E0,1.443535457E0,6.486744952E0
1.327671242E1,-5.661768869E0,-1.639355786E0,-1.292096665E0,6.034287689E0
1.328671742E1,-5.160009938E0,-1.113230923E0,-3.842872280E0,6.529368500E0
1.329672142E1,-4.570341629E0,-4.070135719E-1,-5.499357777E0,7.162165776E0
1.330672542E1,-3.831864604E0,2.337933165E-1,-6.067526459E0,7.180022492E0
1.331673042E1,-2.799706496E0,9.340090853E-1,-5.996629554E0,6.683584027E0
1.332673442E1,-1.611592036E0,1.505374441E0,-5.692718182E0,6.104950564E0
1.333673942E1,-6.697868586E-2,2.201143987E0,-5.230397551E0,5.675084099E0
1.334674342E1,1.558003474E0,2.706973164E0,-4.425521007E0,5.416670077E0
1.335674779E1,2.885588645E0,2.358760362E0,-3.906114011E0,5.398897938E0
1.336675179E1,3.651274226E0,2.151919202E0,-4.001210787E0,5.828571651E0
1.337675679E1,3.412584451E0,2.012649634E0,-3.577825011E0,5.338288396E0
1.338676079E1,2.405015639E0,1.114834229E0,-2.390600790E0,3.569583690E0
1.339676579E1,3.348192573E0,6.141412461E-1,5.408539993E-1,3.446750067E0
1.340676979E1,4.551181473E0,-2.623622274E-1,2.749114340E0,5.323506024E0
1.341677379E1,6.865827516E0,-4.128069931E-1,4.446877086E0,8.190525802E0
1.342677779E1,8.803818147E0,-1.089207637E0,6.548023744E0,1.102588782E1
1.343678279E1,8.560637126E0,-2.131872607E0,7.797269089E0,1.177398803E1
1.344678679E1,7.314783751E0,-2.497422404E0,7.709159735E0,1.091669931E1
1.345679079E1,5.776694723E0,-1.276206272E0,6.495792906E0,8.786024690E0
1.346679579E1,3.303612524E0,5.409083784E-1,4.764983159E0,5.823358317E0
1.347679979E1,1.144255664E0,1.780566044E0,3.429752169E0,4.030252647E0
1.348680379E1,1.008770708E0,2.919817661E0,2.577649711E0,4.023335873E0
1.349680879E1,1.876815599E0,3.028705096E0,2.540231039E0,4.375873065E0
1.350681279E1,2.758579520E0,2.068717416E0,2.870659534E0,4.486651187E0
1.351681779E1,4.085569152E0,3.802192909E-1,3.003531078E0,5.085040899E0
1.352682179E1,6.206900107E0,-2.292524858E0,3.074898684E0,7.296319694E0
1.353682579E1,7.696397603E0,-5.975288386E0,2.483546961E0,1.005517841E1
1.354683079E1,6.813836414E0,-9.300042688E0,2.950253588E-1,1.153283142E1
1.355683479E1,3.567273126E0,-9.470825239E0,-2.248913107E0,1.036723581E1
1.356683879E1,-7.142069864E-1,-7.481701877E0,-2.643802185E0,7.967160384E0
1.357684379E1,-3.674917735E0,-5.676827204E0,-3.562625467E0,7.643538950E0
1.358684779E1,-7.575581263E0,-5.585673205E0,-9.606777681E0,1.344913953E1
1.359685179E1,-1.088691211E1,-6.422554191E0,-1.807795475E1,2.205870589E1
1.360685679E1,-1.046408825E1,-5.379227316E0,-1.526796768E1,1.927547837E1
1.361686079E1,-1.016778528E1,-2.875847184E0,-8.121218870E0,1.332698580E1
1.362686479E1,-9.031775358E0,-9.268725586E-1,-4.214282448E0,1.000960716E1
1.363686879E1,-7.428028530E0,1.083851588E-1,-2.252036982E0,7.762668727E0
1.364687379E1,-6.456327708E0,-7.148747385E-1,-1.459402754E0,6.657707546E0
1.365687779E1,-4.919094713E0,-2.250996763E0,-4.982181492E-1,5.432559300E0
1.366688279E1,-3.497209157E0,-3.029819575E0,2.202178359E-1,4.632361648E0
1.367688679E1,-2.854824982E0,-3.283278832E0,5.080084348E-1,4.380413010E0
1.368689079E1,-2.227997032E0,-2.890520187E0,1.387781379E0,3.904486507E0
1.369689579E1,-1.650907837E0,-2.154200785E0,2.382854399E0,3.611657902E0
1.370689979E1,-1.157665961E0,-1.051120629E0,2.554703482E0,2.995255404E0
1.371690379E1,-9.619058588E-1,5.647065461E-2,2.412019872E0,2.597362447E0
1.372690879E1,-1.128050983E0,1.009990144E0,2.311835141E0,2.763541357E0
1.373691279E1,-1.784403571E-1,2.041297483E0,2.926757721E0,3.572764635E0
1.374691679E1,-9.105868936E-3,2.314090558E0,4.106015403E0,4.713221883E0
1.375692179E1,-1.112781564E0,1.547693079E0,2.690702117E0,3.297501260E0
1.376692579E1,-8.615258306E-1,1.545391615E0,2.900727671E-1,1.792931736E0
1.377692979E1,-8.207952958E-1,1.170314366E0,-1.211249992E0,1.873624075E0
1.378693479E1,-6.412147316E-1,8.636191338E-1,-2.691566920E0,2.898538740E0
1.379693879E1,-1.324522984E-1,6.363337684E-1,-2.129601110E0,2.226581498E0
1.380694279E1,5.530012974E-1,3.949203604E-1,-9.727726167E-1,1.186616657E0
1.381694779E1,1.116195169E0,1.830845082E-1,-3.892232721E-1,1.196204977E0
1.382695179E1,1.629212036E0,3.510954791E-1,1.933147967E-1,1.677787384E0
1.383695579E1,2.453990455E0,6.207117623E-1,2.758195212E-1,2.546257775E0
1.384696079E1,3.064070810E0,1.103937358E0,2.359059155E-2,3.256956269E0
1.385696479E1,2.619997001E0,1.565721214E0,1.024577632E-1,3.053909756E0
1.386696879E1,2.239664274E0,1.921093932E0,4.517734230E-1,2.985095841E0
1.387697379E1,1.765683418E0,2.224236395E0,1.100628419E0,3.045693417E0
1.388697779E1,1.325501808E0,2.527104625E0,2.013410942E0,3.492425582E0
1.389698179E1,1.047741523E0,2.929762605E0,2.850673167E0,4.219906246E0
1.390698679E1,9.753801826E-1,3.290610071E0,3.856327600E0,5.162435830E0
1.391699079E1,1.032928771E0,3.825031548E0,5.234480077E0,6.564875465E0
1.392699479E1,9.989932859E-1,4.184444107E0,6.575923734E0,7.858138012E0
1.393699979E1,8.464534628E-1,4.136870576E0,7.455340290E0,8.568096665E0
1.394700379E1,5.110788077E-1,3.660697306E0,8.041499101E0,8.850288928E0
1.395700779E1,2.594105530E-1,2.956043501E0,7.826401087E0,8.370068159E0
1.396701279E1,3.185753122E-1,2.119493467E0,6.790369198E0,7.120593840E0
1.397701679E1,1.375131805E0,1.614396946E0,5.292110234E0,5.701201252E0
1.398702079E1,2.587864212E0,9.835537130E-1,4.169148960E0,5.004620079E0
1.399702479E1,3.608120897E0,1.498407483E-1,3.091703582E0,4.753905731E0
1.400702979E1,3.632549980E0,1.626180840E-1,2.849853387E0,4.619905662E0
1.401703379E1,3.363068475E0,1.059613125E0,3.216666766E0,4.772835072E0
1.402703879E1,3.357754233E0,2.443915118E0,3.543072377E0,5.458992257E0
1.403704279E1,3.297954174E0,3.712559770E0,3.544444134E0,6.101039748E0
1.404704679E1,3.127874750E0,4.459820482E0,2.905716516E0,6.173879466E0
1.405705079E1,2.888623643E0,4.227621117E0,1.998092991E0,5.496298978E0
1.406705579E1,2.560103678E0,2.553401307E0,1.693910308E0,3.992908866E0
1.407705979E1,1.988397430E0,6.680911660E-2,2.062966679E0,2.866011047E0
1.408706479E1,1.337751725E0,-3.480117161E0,3.480137041E0,5.100210677E0
1.409706879E1,1.592141274E-1,-7.243196290E0,4.777593264E0,8.678400718E0
1.410707279E1,-1.280047892E0,-9.956824754E0,5.168704748E0,1.129125283E1
1.411707779E1,-2.766097870E0,-1.270480678E1,2.880430816E0,1.331766851E1
1.412708179E1,-2.825385128E0,-1.486466299E1,-3.120062578E-1,1.513401318E1
1.413708579E1,-2.193157859E0,-1.559398620E1,-2.277367267E0,1.591127741E1
1.414708979E1,-1.151690399E0,-1.415673709E1,-4.484499241E0,1.489464095E1
1.415709479E1,-1.044968188E0,-1.183896512E1,-5.761386128E0,1.320782434E1
1.416709879E1,-5.370942396E-1,-8.544066117E0,-6.962403054E0,1.103469947E1
1.417710379E1,8.450884303E-1,-5.296750000E0,-8.323029086E0,9.901643711E0
1.418710779E1,2.808570875E0,-2.222640690E0,-8.870152470E0,9.565971296E0
1.419711179E1,4.729975586E0,-4.103827375E-1,-8.732364587E0,9.939581194E0
1.420711579E1,6.396589630E0,8.592804998E-1,-9.675798215E0,1.163081222E1
1.421712079E1,7.935463938E0,2.752516542E0,-1.036213737E1,1.333873405E1
1.422712479E1,8.257122195E0,3.778960751E0,-1.155992429E1,1.470008371E1
1.423712879E1,6.770304478E0,4.029151999E0,-1.181087977E1,1.419746349E1
1.424713379E1,4.385271406E0,3.581817198E0,-9.072669615E0,1.069454785E1
1.425713779E1,2.084490865E0,3.219449456E0,-6.748675627E0,7.762382346E0
1.426714179E1,5.259623104E-1,3.160854508E0,-4.963575068E0,5.908021244E0
1.427714679E1,-6.881479928E-1,3.278300512E0,-2.700637706E0,4.302818370E0
1.428715079E1,-2.095877440E0,3.005474693E0,-1.850281227E-1,3.668762159E0
1.429715479E1,-3.836039809E0,2.505230191E0,2.273490124E0,5.114698140E0
1.430715979E1,-4.400526792E0,2.215814651E0,4.308045767E0,6.544748196E0
1.431716379E1,-5.212783399E0,1.593744580E0,5.882698311E0,8.019929674E0
1.432716779E1,-5.653862264E0,1.319783816E0,5.845067385E0,8.238495042E0
1.433717279E1,-6.052119631E0,2.457754308E-1,5.080587208E0,7.905752587E0
1.434717679E1,-6.114148648E0,-5.835415971E-1,3.854654127E0,7.251323530E0
1.435718075E1,-5.466695815E0,-7.404416889E-1,2.105175390E0,5.904640586E0
1.436718575E1,-4.835920994E0,-7.709659088E-1,-1.974721670E-2,4.897030758E0
1.437718975E1,-4.261673546E0,-7.537891281E-1,-2.126970010E0,4.822246457E0
1.438719375E1,-3.752594779E0,-5.513526750E-1,-3.938175171E0,5.467648583E0
1.439719875E1,-3.302015942E0,-2.548000234E-1,-5.128679388E0,6.105045831E0
1.440720275E1,-2.531105582E0,2.828748447E-1,-5.717291690E0,6.258908684E0
1.441720675E1,-1.149725442E0,1.114931878E0,-6.170529256E0,6.374980234E0
1.442721175E1,8.569860524E-1,2.177543455E0,-6.244340413E0,6.668426185E0
1.443721575E1,3.286852358E0,3.209384059E0,-5.134499706E0,6.889603159E0
1.444721975E1,3.872137302E0,2.324788039E0,-4.976452391E0,6.720354538E0
1.445722475E1,2.339442624E0,1.548954324E0,-5.745910887E0,6.394352446E0
1.446722875E1,3.189475752E0,1.183775826E0,-2.141824276E0,4.020135819E0
1.447723275E1,4.845981421E0,6.744628769E-1,1.586132382E0,5.143369717E0
1.448723775E1,6.153616769E0,5.340361458E-1,2.436473367E0,6.639924428E0
1.449724175E1,8.127818037E0,1.630262196E-1,4.342992529E0,9.216810061E0
1.450724575E1,9.298247008E0,-7.260797578E-1,6.647733389E0,1.145325056E1
1.451725075E1,8.768766428E0,-1.423353208E0,7.824042320E0,1.183777163E1
1.452725475E1,7.810081508E0,-1.539903418E0,7.723555580E0,1.109152769E1
1.453725875E1,5.810493969E0,-9.446019012E-1,6.663292830E0,8.891208256E0
1.454726375E1,3.252103232E0,3.629717588E-2,4.830905253E0,5.823670533E0
1.455726775E1,1.739573846E0,8.239621478E-1,3.033071212E0,3.592290601E0
1.456727175E1,1.651190550E0,1.723216553E0,1.953650059E0,3.084259080E0
1.457727675E1,2.568011453E0,2.072767782E0,1.537718314E0,3.640827751E0
1.458728075E1,3.498990511E0,1.542373867E0,1.790015729E0,4.222085747E0
1.459728475E1,4.242701671E0,3.519374782E-1,1.972109134E0,4.691864437E0
1.460728975E1,4.974487141E0,-1.308316256E0,1.854161147E0,5.467643670E0
1.461729375E1,5.967723843E0,-3.479271069E0,1.307878300E0,7.030618798E0
1.462729775E1,5.539155681E0,-5.703628501E0,-3.537039220E-1,7.958563325E0
1.463730275E1,2.584617838E0,-6.618348207E0,-2.000237165E0,7.381309577E0
1.464730675E1,-1.509499651E-1,-6.101358449E0,-3.061978676E0,6.828255577E0
1.465731075E1,-2.466376320E0,-5.161020922E0,-3.337685127E0,6.622634756E0
1.466731575E1,-3.940272860E0,-4.785422101E0,-4.194351629E0,7.484557467E0
1.467731975E1,-6.587738618E0,-5.296956407E0,-8.914110083E0,1.228484456E1
1.468732375E1,-9.525702528E0,-6.311297464E0,-1.509951641E1,1.893586228E1
1.469732875E1,-9.132352145E0,-5.733273885E0,-1.280121801E1,1.673742715E1
1.470733275E1,-7.649852597E0,-3.612758324E0,-6.635228534E0,1.075167546E1
1.471733675E1,-7.464343833E0,-2.526541538E0,-3.060320991E0,8.453721403E0
1.472734175E1,-7.255800548E0,-2.808541054E0,-1.324218344E0,7.892280954E0
1.473734575E1,-6.640552424E0,-3.507575101E0,-3.797541448E-1,7.519589935E0
1.474734975E1,-6.142773693E0,-3.808240099E0,4.925206223E-1,7.244234801E0
1.475735475E1,-4.989730248E0,-3.761503304E0,6.524302760E-1,6.282673023E0
1.476735875E1,-4.399513762E0,-3.246156029E0,7.547485100E-1,5.519320213E0
1.477736275E1,-3.825232400E0,-2.249416260E0,1.242318149E0,4.608213407E0
1.478736775E1,-3.436529092E0,-1.148248728E0,1.412358103E0,3.888825369E0
1.479737175E1,-3.144137319E0,-2.039210612E-1,1.668906883E0,3.565449966E0
1.480737575E1,-2.536780889E0,9.059108752E-1,1.500833347E0,3.083574635E0
1.481738075E1,-2.163637022E0,1.558477099E0,1.932792164E0,3.293305570E0
1.482738475E1,-1.559243961E0,1.602815366E0,2.921663042E0,3.679181126E0
1.483738875E1,-1.215232676E0,1.610884523E0,2.655263897E0,3.334991120E0
1.484739375E1,-6.527673680E-1,1.839316528E0,1.956046102E0,2.763205906E0
1.485739775E1,4.599805748E-1,1.616371551E0,1.359495181E0,2.161588829E0
1.486740175E1,1.331288797E0,1.627698192E0,-4.199503903E-1,2.144315648E0
1.487740675E1,1.349951648E0,1.301917648E0,-1.829232274E0,2.619818644E0
1.488741075E1,1.633618498E0,1.021541319E0,-2.114320436E0,2.860525645E0
1.489741475E1,2.237302583E0,1.051265640E0,-1.409961330E0,2.845816798E0
1.490741975E1,2.890783896E0,1.014063900E0,-5.721531214E-1,3.116458940E0
1.491742375E1,3.517465666E0,1.021200426E0,-1.973737876E-1,3.668020097E0
1.492742775E1,3.554381185E0,1.012818443E0,2.591149762E-2,3.695957009E0
1.493743275E1,2.861127111E0,1.067974058E0,2.400527608E-1,3.063371062E0
1.494743675E1,1.800173220E0,9.555630916E-1,1.475217426E-1,2.043400868E0
1.495744075E1,9.594859886E-1,7.898097306E-1,1.032851442E-1,1.247028706E0
1.496744575E1,7.052572381E-1,9.200324857E-1,2.795132804E-1,1.192466025E0
1.497744975E1,7.328853321E-1,1.206104003E0,7.144665297E-1,1.581856567E0
1.498745375E1,7.802802309E-1,1.615776304E0,1.264781397E0,2.195277268E0
1.499745775E1,9.020441115E-1,2.119775888E0,2.081705836E0,3.104936808E0
1.500746275E1,9.596462023E-1,2.832715198E0,2.917044327E0,4.177839613E0
1.501746675E1,7.731325945E-1,3.182593287E0,3.954416982E0,5.134593236E0
1.502747075E1,5.361800274E-1,3.161525184E0,4.672977220E0,5.667402104E0
1.503747575E1,3.810832170E-1,2.942744009E0,5.326042212E0,6.096859221E0
1.504747975E1,3.241491705E-1,2.602079378E0,6.009687556E0,6.556846368E0
1.505748375E1,3.809010762E-1,2.242431176E0,6.230465555E0,6.632667958E0
1.506748875E1,4.613324511E-1,1.956815157E0,5.816373929E0,6.154035982E0
1.507749275E1,1.123926942E0,2.113563806E0,4.516109873E0,5.111321954E0
1.508749675E1,1.632043843E0,1.434938296E0,3.989050040E0,4.542591247E0
1.509750175E1,2.309901905E0,-3.285293198E-1,3.559070359E0,4.255650379E0
1.510750575E1,3.056044630E0,-1.043735595E0,2.407554792E0,4.028040820E0
1.511750975E1,3.174575292E0,-5.515894872E-1,2.515135374E0,4.087552470E0
1.512751475E1,3.558685320E0,8.827161402E-1,3.214240172E0,4.875937743E0
1.513751875E1,3.592621391E0,2.502673203E0,3.566130288E0,5.646909495E0
1.514752275E1,3.068838045E0,3.868115003E0,3.377645291E0,5.982354748E0
1.515752775E1,2.478867727E0,4.768996688E0,3.187378063E0,6.248799367E0
1.516753175E1,2.023321388E0,5.050564680E0,2.923345871E0,6.176405435E0
1.517753575E1,1.624640098E0,4.673147959E0,2.519414366E0,5.552046114E0
1.518754075E1,9.843848947E-1,3.437167608E0,2.028524825E0,4.110723507E0
1.519754475E1,4.033336267E-1,1.709911214E0,2.086671292E0,2.727759420E0
1.520754875E1,-6.268454915E-1,-1.177846164E0,2.988073964E0,3.272436839E0
1.521755375E1,-1.809297215E0,-3.993223783E0,4.407435862E0,6.216500902E0
1.522755775E1,-2.084815385E0,-6.509914516E0,6.434719323E0,9.387814174E0
1.523756175E1,-1.789331897E0,-8.310173398E0,6.302387477E0,1.058209707E1
1.524756675E1,-1.929202558E0,-1.047806778E1,3.100104861E0,1.109605232E1
1.525757075E1,-7.164321443E-1,-1.299667523E1,-6.541568126E-1,1.303283404E1
1.526757475E1,2.820802081E-1,-1.436828467E1,-3.934380328E0,1.489988329E1
1.527757975E1,5.182454476E-1,-1.389357028E1,-6.654670526E0,1.541377674E1
1.528758375E1,1.108588818E0,-1.171299505E1,-7.598614030E0,1.400579013E1
1.529758775E1,9.419902423E-1,-8.666999148E0,-7.987649168E0,1.182399083E1
1.530759275E1,1.464345698E0,-5.633095293E0,-8.560217881E0,1.035149270E1
1.531759675E1,2.970046998E0,-2.628087208E0,-9.118845661E0,9.943911089E0
1.532760075E1,5.198188748E0,2.254253662E-1,-9.844659956E0,1.113504883E1
1.533760575E1,7.904508194E0,2.139463463E0,-1.144530717E1,1.407315210E1
1.534760975E1,8.809889311E0,3.120798157E0,-1.066269244E1,1.417908816E1
1.535761350E1,7.819275670E0,4.096648164E0,-1.066794675E1,1.384661280E1
1.536761850E1,6.279672214E0,3.808481589E0,-9.976792996E0,1.238851136E1
1.537762250E1,4.117317779E0,3.493186272E0,-8.467712005E0,1.004274876E1
1.538762650E1,2.031619464E0,3.652020038E0,-5.899745868E0,7.229919040E0
1.539763150E1,6.828738043E-1,3.774391152E0,-3.794531302E0,5.395443726E0
1.540763550E1,-9.069636664E-1,3.217479529E0,-1.328774495E0,3.597276646E0
1.541763950E1,-2.376560164E0,2.325245292E0,1.550887413E0,3.668794849E0
1.542764450E1,-4.160528410E0,1.527729515E0,4.139565265E0,6.064647946E0
1.543764850E1,-4.682354985E0,1.683102314E0,5.175592768E0,7.179417950E0
1.544765250E1,-5.986191105E0,9.994867909E-1,6.223378730E0,8.692749887E0
1.545765750E1,-6.947942305E0,-2.941091001E-2,7.494517804E0,1.021971450E1
1.546766150E1,-6.431340802E0,-6.797358960E-1,6.749933948E0,9.348036890E0
1.547766550E1,-6.322113644E0,-1.148254575E0,4.847055847E0,8.048699266E0
1.548767050E1,-5.229006498E0,-1.029113463E0,2.303137554E0,5.805689113E0
1.549767450E1,-4.108381187E0,-9.629253209E-1,-2.333144295E-1,4.226163363E0
1.550767850E1,-3.226156505E0,-6.362279338E-1,-2.221396987E0,3.968309004E0
1.551768350E1,-2.476024518E0,-2.231999159E-1,-3.544852270E0,4.329722073E0
1.552768750E1,-1.755487628E0,1.388702023E-1,-4.698141298E0,5.017325323E0
1.553769150E1,-5.736054236E-1,6.487064767E-1,-5.888809236E0,5.952135541E0
1.554769550E1,1.010786828E0,1.353465532E0,-6.928802029E0,7.131749891E0
1.555770050E1,2.461825724E0,2.009392735E0,-7.163243802E0,7.836472856E0
1.556770450E1,4.031842011E0,3.464598066E0,-6.208753674E0,8.173604587E0
1.557770850E1,3.614600197E0,2.602175857E0,-5.889354782E0,7.383844088E0
1.558771350E1,1.774773207E0,1.130778417E0,-6.053533487E0,6.408880358E0
1.559771750E1,2.568704640E0,7.968328214E-1,-1.848219498E0,3.263296093E0
1.560772150E1,3.817381344E0,6.140950531E-1,1.480671124E0,4.140277772E0
1.561772650E1,5.297252276E0,1.602178019E-1,2.727373515E0,5.960295102E0
1.562773050E1,7.402404862E0,-4.029392320E-1,4.622381848E0,8.736382072E0
1.563773450E1,8.457438447E0,-8.316529906E-1,6.570419165E0,1.074198863E1
1.564773950E1,8.477855755E0,-1.658919400E0,7.490290852E0,1.143374430E1
1.565774350E1,7.834051584E0,-2.424138080E0,7.214680588E0,1.092247342E1
1.566774750E1,6.393518087E0,-1.808650221E0,5.855397077E0,8.856295167E0
1.567775250E1,4.210770026E0,-3.555440408E-1,3.877933647E0,5.735448121E0
1.568775650E1,1.956851117E0,5.773903263E-1,2.052314222E0,2.893896949E0
1.569776050E1,6.797215703E-1,1.508041940E0,1.059579649E0,1.964413638E0
1.570776550E1,5.810895672E-1,2.263246679E0,6.605772015E-1,2.428232455E0
1.571776950E1,1.267672845E0,2.110966473E0,9.288856088E-1,2.631729919E0
1.572777350E1,2.151604329E0,1.110317840E0,1.461913110E0,2.828320497E0
1.573777850E1,3.537973021E0,-6.242826569E-1,2.038301954E0,4.130575842E0
1.574778250E1,5.211687630E0,-3.003948569E0,2.395537595E0,6.474874156E0
1.575778650E1,5.704232519E0,-5.884680517E0,2.107561493E0,8.462242543E0
1.576779150E1,4.293656062E0,-7.657279730E0,5.061221230E-1,8.793496167E0
1.577779550E1,8.580753887E-1,-6.822840541E0,-1.733452396E0,7.091706680E0
1.578779950E1,-1.595855425E0,-4.686862019E0,-3.484281840E0,6.054225802E0
1.579780450E1,-4.024706069E0,-3.008383098E0,-4.449410392E0,6.711622802E0
1.580780850E1,-5.406419792E0,-1.640312390E0,-5.694418552E0,8.021620930E0
1.581781250E1,-5.925851347E0,-6.758094907E-1,-8.048916879E0,1.001785883E1
1.582781750E1,-5.716119908E0,-3.123576754E-1,-8.647105166E0,1.037034338E1
1.583782150E1,-5.584012595E0,7.955897033E-2,-6.511983261E0,8.578662617E0
1.584782550E1,-5.463855822E0,3.235012990E-1,-4.415497126E0,7.032424077E0
1.585783050E1,-5.410870108E0,-2.920093650E-1,-3.283064239E0,6.335715871E0
1.586783450E1,-4.668859319E0,-1.560791427E0,-2.591066732E0,5.563087634E0
1.587783850E1,-3.713227522E0,-3.048893777E0,-1.822916550E0,5.138758278E0
1.588784350E1,-3.120410779E0,-4.301563252E0,-8.468651068E-1,5.381225729E0
1.589784750E1,-2.782856282E0,-4.840716296E0,-1.426515967E-1,5.585442939E0
1.590785150E1,-2.758595015E0,-4.408687751E0,2.305802715E-1,5.205721987E0
1.591785650E1,-2.708728791E0,-3.116082378E0,-1.230429590E-2,4.128841538E0
1.592786050E1,-2.736672927E0,-1.805345959E0,-3.648191866E-1,3.298749123E0
1.593786450E1,-2.709029630E0,-6.878541702E-1,-4.513097388E-1,2.831195044E0
1.594786850E1,-2.377540450E0,1.896895230E-1,-5.686009379E-1,2.451935507E0
1.595787350E1,-2.184863876E0,7.053449464E-1,-3.803365275E-1,2.327186612E0
1.596787750E1,-1.997746836E0,1.172929240E0,-7.009057403E-3,2.316636474E0
1.597788150E1,-1.705414120E0,1.425495628E0,3.091457999E-1,2.244113685E0
1.598788650E1,-1.787285956E0,1.324651038E0,7.590013361E-1,2.350568972E0
1.599789050E1,-2.122388424E0,1.015861918E0,1.080433013E0,2.589178162E0
1.600789450E1,-1.390451510E0,7.710957170E-1,9.709903854E-1,1.862999285E0
1.601789950E1,-5.987659925E-1,5.903921950E-1,6.118257487E-1,1.039910768E0
1.602790350E1,-2.988011983E-1,3.315786427E-1,3.003790694E-1,5.380094216E-1
1.603790750E1,1.127764177E-1,1.192580563E-1,4.266426748E-1,4.571268712E-1
1.604791250E1,7.317135501E-1,5.208933592E-2,3.099315195E-1,7.963514080E-1
1.605791650E1,1.402007947E0,-2.697846830E-2,-2.532759467E-1,1.424957131E0
1.606792050E1,1.879973388E0,6.683367491E-2,-6.713552280E-1,1.997369400E0
1.607792550E1,2.202083049E0,3.044639343E-1,-6.217024268E-1,2.308328822E0
1.608792950E1,1.757907498E0,4.814521354E-1,-1.467172388E-1,1.828540642E0
1.609793350E1,1.462395944E0,8.244521445E-1,4.407992955E-1,1.735692154E0
1.610793850E1,1.311174960E0,1.131965986E0,1.038175405E0,2.019488782E0
1.611794250E1,1.180835845E0,1.361138833E0,1.439652906E0,2.306441568E0
1.612794650E1,1.174263575E0,1.634840566E0,1.498988696E0,2.509694350E0
1.613795150E1,1.464346282E0,2.116534776E0,1.595140311E0,3.027953451E0
1.614795550E1,1.611471876E0,2.601021032E0,2.184057253E0,3.759289574E0
1.615795950E1,1.667241157E0,2.847448427E0,2.772094190E0,4.309543110E0
1.616796450E1,1.605014211E0,3.065498700E0,3.118261635E0,4.657994045E0
1.617796850E1,1.429234337E0,3.107079420E0,3.908598200E0,5.193630060E0
1.618797250E1,1.262026189E0,2.852800384E0,4.689133662E0,5.631976086E0
1.619797750E1,9.470665026E-1,2.403200371E0,5.262537357E0,5.862303848E0
1.620798150E1,6.884035161E-1,2.032635418E0,5.227465757E0,5.650832185E0
1.621798550E1,6.305157888E-1,1.951242760E0,4.262965196E0,4.730514849E0
1.622799050E1,1.170334539E0,1.698019731E0,3.963668447E0,4.468066863E0
1.623799450E1,2.698692630E0,1.531861158E0,3.116996298E0,4.398318592E0
1.624799850E1,1.890569127E0,-9.343616724E-2,3.924583318E0,4.357216562E0
1.625800350E1,1.414587062E0,-8.875552958E-1,3.409416722E0,3.796436927E0
1.626800750E1,2.027151606E0,-2.267626244E-1,3.316605037E0,3.893665869E0
1.627801150E1,2.385483307E0,9.280519420E-1,3.590675730E0,4.409621663E0
1.628801550E1,2.412972822E0,2.117896008E0,3.519130368E0,4.763633056E0
1.629802050E1,2.506160483E0,2.821589116E0,3.570257252E0,5.195088291E0
1.630802450E1,2.291941598E0,3.013662549E0,3.459640796E0,5.128769120E0
1.631802850E1,1.873761013E0,2.547717229E0,3.091331699E0,4.422462559E0
1.632803350E1,2.080450731E0,1.551952191E0,2.797739493E0,3.816304117E0
1.633803750E1,2.094340792E0,2.367373896E-1,2.635509664E0,3.374643556E0
1.634804150E1,1.716845427E0,-9.405410099E-1,2.485295278E0,3.163679540E0
1.635804625E1,8.845445645E-1,-2.047014890E0,2.868310123E0,3.633165563E0
1.636805025E1,-2.448024541E-2,-3.306270669E0,2.434347904E0,4.105858586E0
1.637805425E1,-1.066050324E0,-5.018529539E0,1.998501711E0,5.506006822E0
1.638805925E1,-1.952427406E0,-6.928183393E0,2.267936146E-1,7.201606297E0
1.639806325E1,-2.530646575E0,-8.977038987E0,-1.191602324E0,9.402729240E0
1.640806725E1,-2.355482413E0,-1.002179434E1,-2.109881229E0,1.050886568E1
1.641807225E1,-1.470610112E0,-9.598476974E0,-3.183858332E0,1.021911974E1
1.642807625E1,-1.128588050E0,-8.616126618E0,-4.017034230E0,9.573291643E0
1.643808025E1,-1.140051809E0,-7.155366433E0,-4.441096821E0,8.498372072E0
1.644808525E1,-6.195160067E-1,-5.030703442E0,-5.054406885E0,7.158128677E0
1.645808925E1,1.012226704E0,-2.812842851E0,-5.764779267E0,6.493794561E0
1.646809325E1,2.508898734E0,-1.033199497E0,-6.666246843E0,7.197285671E0
1.647809825E1,4.077129866E0,2.866270030E-1,-7.519778945E0,8.558750982E0
1.648810225E1,5.348186202E0,1.190634609E0,-8.280518074E0,9.929133195E0
1.649810625E1,5.848981512E0,2.240765889E0,-9.820854771E0,1.164821037E1
1.650811125E1,6.543779250E0,2.766655110E0,-9.683557470E0,1.201027529E1
1.651811525E1,4.948105674E0,3.150583289E0,-7.971108565E0,9.896893279E0
1.652811925E1,2.506196736E0,3.340173994E0,-6.654655908E0,7.856349638E0
1.653812425E1,1.068672508E0,3.181940737E0,-4.574391410E0,5.673787497E0
1.654812825E1,-2.198822057E-1,2.608769177E0,-2.649533333E0,3.724788811E0
1.655813225E1,-1.163135154E0,2.046319656E0,-9.936761203E-1,2.554936351E0
1.656813725E1,-2.122782818E0,1.303030373E0,1.160437249E0,2.747855465E0
1.657814125E1,-3.113430958E0,8.998759639E-1,3.248837855E0,4.588918880E0
1.658814525E1,-3.272613510E0,8.046008474E-1,4.759777675E0,5.832054975E0
1.659815025E1,-3.615155390E0,3.077553320E-1,5.876172234E0,6.906045320E0
