"Time (s)","Linear Acceleration x (m/s^2)","Linear Acceleration y (m/s^2)","Linear Acceleration z (m/s^2)","Absolute acceleration (m/s^2)"
3.369333339E-3,-6.660709530E-2,2.585252845E-1,1.861648214E-1,3.254676153E-1
1.337333338E-2,-7.474415369E-2,1.702095240E-1,2.381758046E-1,3.021352090E-1
2.337833331E-2,-9.747366965E-2,5.178820431E-2,2.675270730E-1,2.894026074E-1
3.338233335E-2,-1.010143780E-1,4.868976474E-3,2.233004880E-1,2.451340846E-1
4.338633339E-2,-8.507961899E-2,3.630887032E-2,1.358635640E-1,1.643647884E-1
5.339133332E-2,-1.279671185E-1,3.962014854E-2,2.026703417E-1,2.429415712E-1
6.339533336E-2,-1.553874902E-1,4.805241823E-2,2.666681170E-1,3.123558734E-1
7.340033341E-2,-8.648178130E-2,1.474901676E-2,2.195173395E-1,2.363990151E-1
8.340433333E-2,-1.146777861E-2,-3.099609017E-3,1.799550784E-1,1.803467431E-1
9.340833337E-2,4.673321329E-2,-1.173887014E-2,1.572047317E-1,1.644236053E-1
1.034133333E-1,1.113238232E-1,-1.269196630E-2,1.446390653E-1,1.829604843E-1
1.134173333E-1,6.933767192E-2,-8.142774045E-2,7.791064024E-2,1.323187724E-1
1.234213334E-1,2.603406988E-2,-1.079279065E-1,2.271058559E-2,1.133224448E-1
1.334263333E-1,-3.574183658E-2,-1.014065069E-1,-5.705011368E-2,1.217188317E-1
1.434303334E-1,-1.403858006E-2,-5.221738994E-2,-9.824901044E-2,1.121454662E-1
1.534343334E-1,-3.730289698E-2,1.004960954E-2,-1.383544779E-1,1.436470060E-1
1.634393333E-1,-7.762792736E-2,6.212198853E-2,-1.755117792E-1,2.017166855E-1
1.734433334E-1,-1.075555851E-1,7.216984391E-2,-1.889697307E-1,2.290987765E-1
1.834483334E-1,-8.366693169E-2,1.829593778E-2,-1.336843067E-1,1.587652061E-1
1.934523333E-1,-2.308100671E-2,-1.442917407E-2,-1.487327009E-1,1.512030101E-1
2.034563334E-1,-4.819414012E-2,-4.423126280E-2,-2.822450995E-1,2.897263812E-1
2.134613333E-1,-7.118926585E-2,-9.949037433E-3,-2.935986382E-1,3.022698385E-1
2.234653333E-1,-8.400767818E-3,5.879375339E-3,-2.996241939E-1,2.997995956E-1
2.334693334E-1,7.671283811E-2,-7.128399074E-2,-2.477061814E-1,2.689323691E-1
2.434743333E-1,5.353900686E-2,-1.061550307E-1,-2.347393960E-1,2.631309557E-1
2.534783334E-1,-1.045415647E-1,-1.587589216E-1,-2.255347091E-1,2.949563340E-1
2.634823334E-1,-1.376183134E-1,-4.719229281E-2,-1.659375483E-1,2.206834444E-1
2.734873333E-1,-1.864835677E-1,4.231103718E-2,-3.165776110E-1,3.698482509E-1
2.834913334E-1,-2.568825093E-1,8.967289925E-3,-5.123763049E-1,5.732351295E-1
2.934953334E-1,-2.280329320E-1,1.589273214E-2,-5.129417306E-1,5.615699565E-1
3.035003333E-1,-2.979490397E-1,7.186695814E-2,-3.362055445E-1,4.549424778E-1
3.135043334E-1,-4.542240641E-1,1.950549281E-1,-9.774381101E-2,5.039045326E-1
3.235093333E-1,-5.050856309E-1,2.224286681E-1,-2.060874546E-1,5.891163263E-1
3.335133333E-1,-4.756147139E-1,2.952305961E-1,-1.534087193E-1,5.804349198E-1
3.435173334E-1,-2.919115703E-1,5.330558601E-1,-2.873924035E-1,6.722762144E-1
3.535223333E-1,-1.137267365E-1,4.773394963E-1,-8.112485468E-1,9.481091551E-1
3.635263334E-1,1.397778364E-1,7.118917814E-1,-8.889755845E-1,1.147434243E0
3.735303334E-1,2.553359208E-1,1.253205079E0,-7.907505476E-1,1.503664135E0
3.835353333E-1,8.007677051E-1,1.704327707E0,-9.276899993E-1,2.099183314E0
3.935393334E-1,7.623900899E-1,2.086720116E0,-1.363315752E0,2.606581925E0
4.035433334E-1,1.098131365E0,2.324607360E0,-1.951090733E0,3.227452079E0
4.135483333E-1,2.179628133E0,1.741211944E0,-2.252914649E0,3.585836339E0
4.235523334E-1,3.149789530E0,8.451691219E-1,-2.665418172E0,4.211880691E0
4.335563333E-1,3.320651603E0,-1.005878967E-1,-3.011117256E0,4.483711869E0
4.435613333E-1,3.547120990E0,-5.949749503E-1,-3.673541300E0,5.141105736E0
4.535653334E-1,3.950893742E0,-8.363301784E-1,-3.628566272E0,5.429134620E0
4.635693333E-1,4.070877438E0,-2.199951739E0,-4.835328087E0,6.692699640E0
4.735743334E-1,2.644241311E0,-3.663151675E0,-4.390500571E0,6.299776787E0
4.835783334E-1,1.051093147E0,-3.136523367E0,-2.332149099E0,4.047405966E0
4.935833333E-1,1.672549260E-1,-2.146279562E0,-8.624286407E-1,2.319110461E0
5.035868750E-1,2.534129177E-1,-5.554726231E-1,-2.708204588E0,2.776173631E0
5.135908750E-1,1.014232884E0,-5.244759482E-1,-1.976295741E0,2.282430331E0
5.235958750E-1,1.017973640E0,-4.461270592E-1,-5.043650347E-1,1.220526023E0
5.335998751E-1,1.865116197E0,2.086915120E-1,1.552087846E0,2.435402895E0
5.436038750E-1,2.087878449E0,3.096507069E-1,-1.050632971E0,2.357742484E0
5.536088750E-1,1.163398864E0,6.577933422E-1,-1.912160556E0,2.332926700E0
5.636128751E-1,1.320705337E0,4.187457177E-1,-2.316418920E0,2.699149343E0
5.736168750E-1,8.711851385E-1,1.211905318E0,-3.735058102E0,4.022230360E0
5.836218750E-1,1.027545094E0,2.682732947E0,-2.457380086E0,3.780426150E0
5.936258751E-1,4.230842055E-1,3.007857725E0,7.169621944E-2,3.038313461E0
6.036298750E-1,-3.746736453E-1,1.413748571E0,2.780811219E0,3.141970146E0
6.136348750E-1,-1.512531433E0,-1.078491007E0,9.218924850E-1,2.073832187E0
6.236388750E-1,8.833565564E-1,-2.373635387E0,3.125238533E0,4.022633421E0
6.336438750E-1,5.542211435E0,-4.173442863E0,6.203132746E0,9.306588461E0
6.436478751E-1,6.299862065E0,-1.818184544E0,4.677412333E0,8.054330711E0
6.536518750E-1,4.226263393E0,2.341571595E-1,3.663007541E0,5.597656303E0
6.636568750E-1,2.873384922E0,6.391016941E-1,1.616161051E0,3.358089997E0
6.736608751E-1,2.390478876E0,1.203257067E0,-1.012228459E0,2.861262532E0
6.836648750E-1,2.071887484E0,1.863885505E0,-2.928576790E0,4.042690804E0
6.936698750E-1,1.749873717E0,1.978243887E0,-3.545176206E0,4.420834902E0
7.036738751E-1,2.314010451E0,1.508497146E0,-3.244778425E0,4.261313769E0
7.136778750E-1,4.151624270E0,2.331835542E0,-1.606444148E0,5.025346145E0
7.236828750E-1,6.161113485E0,3.863199833E0,2.892190152E0,7.826135457E0
7.336868750E-1,3.671473140E0,2.241601164E0,3.696792753E0,5.671928020E0
7.436908750E-1,8.378128861E-1,1.027238846E-2,1.300501453E0,1.547042334E0
7.536958751E-1,-2.404078622E0,-1.146926380E0,-1.892960054E-1,2.670368349E0
7.636998750E-1,-3.124010033E0,-2.108918193E0,-2.938404205E0,4.779246165E0
7.737048750E-1,-3.414660505E0,-3.078511094E0,-4.973943350E0,6.773274642E0
7.837088751E-1,-3.424028329E0,-3.467993836E0,-4.772692128E0,6.821256585E0
7.937128750E-1,-2.519231349E0,-2.640627732E0,-3.803680440E0,5.271378026E0
8.037178750E-1,-1.981640096E0,-1.085677527E0,-3.622850618E0,4.269735327E0
8.137218750E-1,-1.645186629E0,-1.071214293E-1,-4.228140349E0,4.538202823E0
8.237258750E-1,-1.004201109E0,1.972112350E-1,-4.271506224E0,4.392388594E0
8.337308750E-1,-1.694564027E-1,-3.560118181E-1,-3.930603611E0,3.950329687E0
8.437348750E-1,-9.926122195E-1,-6.036865707E-1,-2.773101665E0,3.006627569E0
8.537388750E-1,-2.554174309E0,-6.824697617E-1,-1.830615286E0,3.215699567E0
8.637438751E-1,-3.162685272E0,-1.409431426E0,-1.278082643E0,3.690876632E0
8.737478750E-1,-3.548527830E0,-2.441395407E0,-1.169536101E0,4.463213638E0
8.837518750E-1,-3.856138151E0,-3.187772750E0,-1.407199690E0,5.197298097E0
8.937568751E-1,-3.856554472E0,-3.363330138E0,-1.715643824E0,5.397076592E0
9.037608750E-1,-3.754029393E0,-2.908054525E0,-1.919772461E0,5.122015629E0
9.137658750E-1,-3.201727130E0,-1.876303821E0,-1.904244010E0,4.171057168E0
9.237698750E-1,-2.284138196E0,-6.405480029E-1,-1.933768941E0,3.060563896E0
9.337738750E-1,-1.235175775E0,1.373546040E-1,-2.035996397E0,2.385331593E0
9.437788751E-1,-5.334449923E-1,7.490604848E-2,-1.688524730E0,1.772368539E0
9.537828750E-1,-1.961571282E-1,-3.637329201E-1,-5.785957298E-1,7.110219931E-1
9.637868750E-1,-1.132155436E-1,-9.651224121E-1,1.893704989E0,2.128473071E0
9.737918751E-1,-2.320378069E0,-2.460555417E0,6.864366297E0,7.652320694E0
9.837958750E-1,-2.355121640E0,-3.161401808E0,9.946840049E0,1.069956477E1
9.937998750E-1,1.306121212E0,-2.765886785E0,9.865716949E0,1.032901027E1
1.003804875E0,9.773311061E-1,-2.009807741E0,1.013607466E1,1.037952372E1
1.013808875E0,4.152273311E0,-2.273492828E-1,7.879086839E0,8.909156568E0
1.023812875E0,6.607057233E0,1.616742556E0,5.526524525E0,8.764104923E0
1.033817875E0,7.102704070E0,2.346413528E0,3.466800127E0,8.244559701E0
1.043821875E0,6.802610929E0,3.423340697E0,1.761203282E0,7.816432305E0
1.053825875E0,6.123729896E0,4.166796918E0,4.888506174E-1,7.423020902E0
1.063830875E0,7.294033737E0,3.459027716E0,7.652110791E-1,8.108843868E0
1.073834875E0,9.617103279E0,2.524575704E0,2.322412316E0,1.021057084E1
1.083839875E0,1.111582827E1,2.629346406E0,3.636482817E0,1.198745627E1
1.093843875E0,1.178894453E1,2.812101716E0,4.050648118E0,1.277868848E1
1.103847875E0,1.251622940E1,2.727158337E0,3.941551353E0,1.340258251E1
1.113852875E0,1.378923373E1,3.631804460E0,3.009580023E0,1.457362489E1
1.123856875E0,1.412635729E1,5.022985117E0,5.191279386E-1,1.500179468E1
1.133860875E0,1.191537186E1,4.615998150E0,-2.023260723E0,1.293743055E1
1.143865875E0,7.638145886E0,1.081944226E0,-2.163259876E0,8.011964127E0
1.153869875E0,4.490238283E0,1.449676203E0,-4.987547482E0,6.865816107E0
1.163873875E0,1.641728586E0,1.929825433E0,-5.930363644E0,6.448931066E0
1.173878875E0,-6.368787289E-3,3.419604472E-1,-3.623282143E0,3.639388822E0
1.183882875E0,-4.913771993E-1,-3.912698706E-1,-3.089630744E0,3.152833931E0
1.193886875E0,6.824940276E-1,-5.739940441E-1,-3.568103138E0,3.677856341E0
1.203891875E0,2.914294381E0,-9.686164159E-1,-1.614215244E0,3.469440928E0
1.213895875E0,3.155655749E0,-2.988411786E-1,8.488728945E-1,3.281471384E0
1.223899875E0,3.471005445E0,1.372750234E0,5.466789955E-1,3.772423614E0
1.233904875E0,3.328141009E0,9.055779494E-1,1.678367824E0,3.835819671E0
1.243908875E0,1.122858363E0,1.595595516E-1,-1.280119521E0,1.710256163E0
1.253912875E0,6.496315062E-2,-1.871426951E-1,-1.695139539E0,1.706675322E0
1.263917875E0,-1.063681617E0,-1.341664389E0,7.410410285E-2,1.713759999E0
1.273921875E0,-2.243526945E0,-2.522561338E0,9.768171358E-1,3.514384807E0
1.283926875E0,-2.885241321E0,-2.826984634E0,2.727153075E0,4.873789439E0
1.293930875E0,-1.935133681E0,-2.776774886E0,5.704220824E0,6.632748777E0
1.303934875E0,-1.232255675E0,-2.945471735E0,4.302778888E0,5.357999995E0
1.313939875E0,-1.957159558E0,-1.006159633E0,8.638924912E-1,2.364136413E0
1.323943875E0,-4.196323310E0,2.034357715E0,-6.284918336E0,7.826106255E0
1.333947875E0,-3.076009655E0,3.663898365E0,-9.107962239E0,1.028790371E1
1.343952875E0,-8.032904863E-3,2.926470038E0,-4.589976871E0,5.443544718E0
1.353956875E0,3.652445716E-1,1.809346039E0,-1.905047710E0,2.652610689E0
1.363960875E0,2.097226685E0,8.656522838E-1,1.038277804E0,2.495142169E0
1.373965875E0,2.981004095E-1,1.071025720E-1,5.202843132E0,5.212476520E0
1.383969875E0,-6.383095425E0,8.983553955E-1,4.967019662E-1,6.465111172E0
1.393973875E0,-3.645323807E-1,5.639197301E-1,2.638445551E0,2.722551054E0
1.403978875E0,-1.322870561E0,2.477186798E-1,1.996617739E0,2.407869070E0
1.413982875E0,-7.442841867E0,2.952829579E0,-1.264376887E1,1.496596100E1
1.423986875E0,-4.893445902E0,3.440288851E0,-3.240148015E0,6.802937552E0
1.433991875E0,-3.811712176E0,3.119952065E0,-2.561814281E0,5.552129592E0
1.443995875E0,-3.271886117E0,3.318863817E0,-1.778411637E0,4.988270617E0
1.454000875E0,-3.272933353E0,2.770360490E0,7.745221853E-2,4.288704796E0
1.464004875E0,-4.046873156E0,1.314020800E0,3.121398667E-1,4.266293977E0
1.474008875E0,-2.475041016E0,5.180022034E-1,4.007091039E-1,2.560219151E0
1.484013875E0,-6.095511818E-1,1.159257135E0,8.379761696E-2,1.312422107E0
1.494017875E0,1.467540032E-1,2.107572456E0,-6.924620685E-1,2.223263842E0
1.504021958E0,8.241264546E-1,2.548948653E0,-1.140376329E0,2.911491339E0
1.514026958E0,1.322261281E0,2.433822678E0,-7.941401786E-1,2.881410478E0
1.524030958E0,1.785668324E0,1.539478180E0,3.023735547E-1,2.376980058E0
1.534034958E0,3.110111201E0,4.269454144E-1,1.839020659E0,3.638278584E0
1.544039958E0,4.873063093E0,3.283416241E-1,3.747994774E0,6.156461399E0
1.554043958E0,2.422763400E0,-2.186145294E-1,6.094225430E-1,2.507782016E0
1.564047958E0,2.367327703E0,-2.351133254E-1,-6.918510345E-1,2.477534375E0
1.574052958E0,7.346223060E0,3.416718140E-1,7.830819243E-1,7.395738650E0
1.584056958E0,1.143689069E0,6.326552119E-1,-7.392842326E-1,1.501605301E0
1.594060958E0,2.080340511E0,1.810778315E0,-2.237577403E0,3.551547181E0
1.604065958E0,7.170335889E0,1.788203092E0,2.926610956E0,7.948360759E0
1.614069958E0,2.934895876E0,9.860501817E-1,1.764203780E0,3.563470744E0
1.624073958E0,-3.808174610E0,1.214467422E-1,-2.355139474E0,4.479243811E0
1.634078958E0,-8.869724454E0,-3.573494052E-1,-3.806870096E0,9.658776859E0
1.644082958E0,-1.132827749E1,-1.637511574E0,-2.959619073E0,1.182246422E1
1.654087958E0,-1.062572050E1,-1.126431158E0,-4.447780480E0,1.157400252E1
1.664091958E0,-5.117013608E0,1.513205324E0,-6.142792404E-1,5.371308742E0
1.674095958E0,-3.712904756E0,2.983472790E0,3.212822807E-1,4.773886668E0
1.684100958E0,-5.021816259E0,3.588433322E0,-1.925003380E0,6.465379359E0
1.694104958E0,-5.445398501E0,3.968684188E0,-1.994602788E0,7.027180039E0
1.704108958E0,-5.315479217E0,4.231534073E0,-1.662935268E0,6.994680380E0
1.714113958E0,-3.798781643E0,4.099365950E0,-1.482269168E0,5.782098671E0
1.724117958E0,-1.112817525E0,3.667567785E0,-1.569581254E0,4.141618236E0
1.734121958E0,-1.309735376E-1,3.909185845E0,-2.221729694E0,4.498329787E0
1.744126958E0,-1.035360044E0,3.479411109E0,-7.476299635E-1,3.706375946E0
1.754130958E0,1.151045451E0,-3.593758382E0,2.542637461E0,4.550275837E0
1.764134958E0,4.607933963E0,-5.905632845E0,2.763404350E0,7.984106607E0
1.774139958E0,2.697865541E0,3.924919533E0,3.579954860E-1,4.776152488E0
1.784143958E0,5.634622586E0,6.674902184E-1,-1.642120057E0,5.906866611E0
1.794147958E0,8.897680576E0,-4.161946360E0,3.879528183E-1,9.830616691E0
1.804152958E0,5.600167283E0,-1.236072445E0,-1.149190130E0,5.848964578E0
1.814156958E0,4.869531959E0,-1.876330572E-1,-2.830829471E0,5.635702544E0
1.824160958E0,4.501711689E0,-1.652774853E0,-2.205454115E0,5.278361555E0
1.834165958E0,2.761684976E0,-2.040050272E0,-7.460363048E-1,3.513584948E0
1.844169958E0,2.515700800E0,-3.481623988E0,4.741973488E-1,4.321495023E0
1.854173958E0,2.234497674E0,-4.721008881E0,1.379298531E0,5.402163377E0
1.864178958E0,5.445371604E-1,-6.187056996E0,5.050058895E-1,6.231470608E0
1.874182958E0,1.619871694E-1,-7.318822423E0,3.657843865E0,8.183594763E0
1.884187958E0,-1.109303348E0,-7.011026745E0,5.197368969E0,8.797595929E0
1.894191958E0,-3.329925579E0,-6.084933035E0,4.348833312E0,8.187012006E0
1.904195958E0,-3.450174154E0,-4.342300803E0,4.178317394E0,6.943890423E0
1.914200958E0,2.492463380E-1,-2.657191139E-1,4.986727118E0,5.000017773E0
1.924204958E0,1.816221780E0,3.271439682E0,4.435467414E0,5.802960479E0
1.934208958E0,3.614513074E0,6.248803008E0,6.651222423E-2,7.219187466E0
1.944213958E0,4.561591271E0,7.625862640E0,-1.031047649E0,8.945666838E0
1.954217958E0,9.188021731E0,1.066190190E1,-5.958511555E-1,1.408726141E1
1.964221958E0,9.492467539E0,1.058753701E1,2.147208319E-1,1.422142697E1
1.974226958E0,5.199006189E0,6.807832493E0,-2.347107629E-1,8.569208700E0
1.984230958E0,1.936080930E0,4.167194236E0,-2.232705503E0,5.108707374E0
1.994234958E0,1.918311827E0,3.719712085E0,-3.598595198E0,5.519607383E0
2.004239958E0,3.191278156E0,3.467911098E0,-2.805077748E0,5.484443894E0
2.014243958E0,2.483380315E0,3.965234331E0,-2.951242937E0,5.531735348E0
2.024247958E0,3.846868560E0,2.777944329E0,-3.172471172E0,5.707884524E0
2.034252958E0,3.270093361E0,3.600390294E0,-1.810257182E0,5.189735245E0
2.044256958E0,1.367937976E0,3.707748097E0,-2.176169944E-1,3.958030749E0
2.054260958E0,-1.746580857E0,3.427912635E-1,1.521529566E0,2.341602606E0
2.064265958E0,-2.050270620E0,-7.730311453E-2,3.499804151E0,4.056872500E0
2.074269958E0,9.260931247E-1,2.974263425E0,3.376001639E0,4.593612790E0
2.084273958E0,4.076397502E0,4.711182927E0,3.768675499E0,7.281152119E0
2.094278958E0,5.914302512E0,3.480408937E0,4.379910387E0,8.140997209E0
2.104282958E0,4.734496361E0,1.708185700E0,4.065379593E0,6.469981871E0
2.114286958E0,1.251190714E0,-1.567079523E0,3.046040336E0,3.646858670E0
2.124291958E0,-1.355471127E0,-2.210256872E0,1.359107218E0,2.927406676E0
2.134295958E0,1.351533612E0,-1.315097272E-1,1.679596032E0,2.159856649E0
2.144300958E0,1.003732454E0,-4.759189153E0,1.123764389E0,4.992014286E0
2.154304958E0,-3.109097294E0,-9.949816282E0,-9.480383098E-3,1.042427071E1
2.164308958E0,-5.895230649E0,-8.262400476E0,-1.354419798E-1,1.015083004E1
2.174313958E0,-4.445414112E0,-2.454040157E0,-3.033681661E-1,5.086850889E0
2.184317958E0,-5.219086112E0,2.258475936E0,-1.202289864E-1,5.688060162E0
2.194321958E0,-6.691966991E0,3.985180353E0,1.913597217E0,8.020345314E0
2.204326958E0,-4.809978068E0,2.814145610E0,5.141770134E0,7.582420764E0
2.214330958E0,-4.468698310E0,9.626259434E-1,1.971916322E0,4.978390028E0
2.224334958E0,-2.315301517E0,-8.604943818E-1,7.419708820E-1,2.579068143E0
2.234339958E0,-7.108787513E-1,-4.130484831E-1,2.227494172E0,2.374381590E0
2.244343958E0,-1.250997756E0,1.306194302E0,1.500893427E0,2.350280838E0
2.254347958E0,-1.406800910E0,2.211880644E0,1.145921098E0,2.860880973E0
2.264352958E0,-1.811065705E0,1.648799624E0,1.586661848E0,2.918217779E0
2.274356958E0,-2.070190914E0,3.671583652E-1,1.089361127E0,2.367953410E0
2.284360958E0,-8.944924325E-1,1.082033104E-1,9.400863889E-1,1.302147106E0
2.294365958E0,3.894958985E-1,4.620598447E-1,8.783292666E-1,1.066146639E0
2.304369958E0,-1.259689057E-1,1.983860868E-1,4.895005354E-1,5.429880098E-1
2.314373958E0,-1.370797264E0,6.844604462E-1,-1.876646322E-1,1.543628600E0
2.324378958E0,-1.609398746E0,2.055219119E0,-1.358281884E-1,2.613912632E0
2.334382958E0,-1.894590257E0,2.849646395E0,5.069535971E-1,3.459329237E0
2.344386958E0,-2.169946752E0,3.207997684E0,-1.141037357E-1,3.874653238E0
2.354391958E0,-2.039274931E0,2.848361762E0,-8.251663819E-1,3.598986875E0
2.364395958E0,-5.313130975E-1,2.121356390E0,-1.607413324E0,2.714078874E0
2.374400958E0,2.211982970E0,1.288261476E0,-9.446912174E-1,2.728539497E0
2.384404958E0,4.875577980E0,1.174904430E-1,2.211465199E-1,4.882004755E0
2.394408958E0,5.108060936E0,-9.937986195E-2,7.179769787E-1,5.159229964E0
2.404413958E0,4.728223468E0,-4.043905109E-1,-3.296850219E-1,4.756923487E0
2.414417958E0,4.331640159E0,-7.757805061E-1,-6.809667349E-2,4.401088391E0
2.424421958E0,4.517519637E0,-4.199242240E-1,-4.197809672E-1,4.556373128E0
2.434426958E0,5.327411630E0,1.115137115E0,-2.714338902E-1,5.449635016E0
2.444430958E0,5.226031435E0,2.331698864E0,2.408494440E-1,5.727672530E0
2.454434958E0,3.215714255E0,2.575089215E0,6.890068026E-1,4.176916687E0
2.464439958E0,1.305472755E0,2.206633353E0,5.147455966E-1,2.615043575E0
2.474443958E0,2.400013053E0,2.867731833E0,3.844661236E-2,3.739709436E0
2.484447958E0,2.272281797E0,1.596769930E0,-4.733113495E-1,2.817261508E0
2.494452958E0,7.296179080E-1,1.516767740E-1,-5.667295365E-1,9.362320775E-1
2.504457083E0,-1.661692150E0,-4.979535627E-1,-1.077367026E0,2.042032874E0
2.514461083E0,-3.064021693E0,-1.476277526E0,-4.220295725E0,5.420195594E0
2.524466083E0,-3.033282881E0,-2.706750970E0,-3.412542644E0,5.307801159E0
2.534470083E0,-2.725977200E0,-2.495264196E0,2.878655894E-1,3.706772410E0
2.544474083E0,-3.070702137E0,-1.869149607E0,2.920341572E0,4.631557704E0
2.554479083E0,-2.570979792E0,-2.189076503E0,3.824447411E0,5.101802723E0
2.564483083E0,-1.852765124E0,-1.838183922E0,1.934793373E0,3.248858897E0
2.574487083E0,-1.320681363E0,-1.047294796E-1,6.969928566E-1,1.496985828E0
2.584492083E0,-1.830124412E0,2.811992666E0,-1.305213139E0,3.600033257E0
2.594496083E0,-3.828814112E0,4.389818201E0,-1.120265708E0,5.931721217E0
2.604501083E0,-6.243646933E0,4.577065927E0,7.080159545E-1,7.773927329E0
2.614505083E0,-5.192369599E0,5.597492766E0,2.270906532E0,7.965528470E0
2.624509083E0,-3.590408219E0,5.632771357E0,3.477416332E0,7.530708379E0
2.634514083E0,-2.793861327E0,5.288961509E0,4.217698392E0,7.318999568E0
2.644518083E0,-1.026857315E0,4.985636612E0,4.339295919E0,6.688833788E0
2.654522083E0,-9.302510798E-1,4.085731412E0,3.119297762E0,5.223847889E0
2.664527083E0,-2.492840233E0,2.506391448E0,2.407589291E0,4.277000901E0
2.674531083E0,-3.742509209E0,2.190077546E0,1.957855377E0,4.757731866E0
2.684535083E0,-3.953517388E0,2.696023668E0,1.045464032E0,4.898146425E0
2.694540083E0,-4.223326044E0,3.305380722E0,7.029212755E-1,5.408892947E0
2.704544083E0,-4.418271337E0,2.712306994E0,4.135746595E-1,5.200843666E0
2.714548083E0,-9.022802805E0,-2.255474092E1,-3.052468180E0,2.448356327E1
2.724553083E0,-8.588500278E0,-5.145340210E1,-4.290868109E0,5.234144127E1
2.734557083E0,1.493432964E0,-1.528492694E1,-8.781290726E-1,1.538279702E1
2.744561083E0,4.742639486E0,1.107275183E1,1.430424246E0,1.213031640E1
2.754566083E0,4.937622201E0,1.399511186E1,1.387785764E0,1.490534194E1
2.764570083E0,3.821169170E0,-1.740642425E0,4.622275867E-1,4.224313461E0
2.774574083E0,3.177011242E0,-5.137970029E0,1.900373592E-1,6.043860575E0
2.784579083E0,9.516148324E-1,-7.394301206E-1,7.103284552E-1,1.398890348E0
2.794583083E0,-6.747648125E-1,-8.384199733E-1,1.193545353E0,1.607111108E0
2.804587083E0,-1.050026249E0,-1.637152555E0,6.781268153E-1,2.059776587E0
2.814592083E0,2.381657182E-1,-5.515187359E-1,1.371042701E-1,6.161926697E-1
2.824596083E0,7.965895041E-1,1.170334831E0,-1.231119707E0,1.876138105E0
2.834601083E0,7.375809386E-2,1.473975477E0,-2.884433820E0,3.240062102E0
2.844605083E0,-2.964313949E-1,4.087969726E-1,-3.178651679E0,3.218510996E0
2.854609083E0,-6.534412596E-1,-2.393464172E-1,-2.978842379E0,3.059047909E0
2.864614083E0,-4.801489738E-1,1.292933401E0,-2.375558974E0,2.746907399E0
2.874618083E0,-3.172910444E-1,1.275487649E0,-1.822662488E0,2.247140604E0
2.884622083E0,-1.845056009E-1,6.034718317E-1,-1.844733535E0,1.949682636E0
2.894627083E0,-4.287143433E-1,5.306143552E-1,-1.203232143E0,1.383154067E0
2.904631083E0,-4.284495375E-1,-1.200663169E0,-1.275475516E0,1.803329932E0
2.914635083E0,4.510245774E-1,-3.383452161E0,-4.782381841E0,5.875572123E0
2.924640083E0,1.754817976E0,-2.562424146E0,-7.488441378E0,8.106920371E0
2.934644083E0,3.566015390E0,-1.129605466E0,-8.511792995E0,9.297477844E0
2.944648083E0,4.728062085E0,-6.701762831E-1,-7.169020851E0,8.613859024E0
2.954653083E0,5.029221173E0,-1.679898625E0,-4.068175440E0,6.683201060E0
2.964657083E0,5.906035718E0,-2.609034641E0,-1.356717461E0,6.597651244E0
2.974661083E0,7.331383411E0,-2.889999785E0,-1.650573961E0,8.051439367E0
2.984666083E0,7.753921925E0,-2.775850441E0,-2.727320597E0,8.675651476E0
2.994670083E0,6.170473123E0,-3.099782095E0,-4.287288152E0,8.127990360E0
3.004674083E0,3.837851861E0,-3.387495511E0,-5.719022466E0,7.675379515E0
3.014679083E0,2.512196856E0,-2.603949902E0,-6.152110527E0,7.137237005E0
3.024683083E0,1.845273086E0,-1.646017519E0,-5.787999145E0,6.294071857E0
3.034687083E0,8.776313283E-1,-1.152207293E0,-3.743121120E0,4.013573733E0
3.044692083E0,-7.955257494E-2,-1.076998651E0,-1.634627873E0,1.959148537E0
3.054696083E0,-1.582487667E0,-1.953392782E0,-2.258836563E0,3.379697204E0
3.064701083E0,-2.515973280E0,-2.445719569E0,-2.184628965E0,4.133312167E0
3.074705083E0,-2.656600863E0,-3.316681051E0,-1.228002995E0,4.423335020E0
3.084709083E0,-1.671555964E0,-3.774092944E0,9.651713095E-1,4.239036748E0
3.094714083E0,-7.674064893E-1,-3.254922760E0,3.198417606E0,4.627451791E0
3.104718083E0,-9.227485174E-1,-4.115796041E0,4.551781397E0,6.205639029E0
3.114722083E0,-1.539560772E0,-4.967751149E0,5.485620328E0,7.559155325E0
3.124727083E0,-2.094598216E0,-5.304737881E0,5.791950109E0,8.128608229E0
3.134731083E0,-2.878490418E0,-6.009687556E0,5.131502423E0,8.410372687E0
3.144735083E0,-3.532093645E0,-5.189900905E0,3.989200898E0,7.438042802E0
3.154740083E0,-4.638077529E0,-5.976825619E0,3.139747814E0,8.190984311E0
3.164744083E0,-6.035956757E0,-9.380944764E0,-7.560274422E-1,1.118062951E1
3.174748083E0,-4.288335680E0,-8.653063479E0,-7.076772838E0,1.197272084E1
3.184753083E0,-1.628699089E0,-4.824475070E0,-8.267799211E0,9.710032142E0
3.194757083E0,-7.594332992E-1,-1.243795740E0,-3.560113503E0,3.846839603E0
3.204761083E0,-2.220608417E-1,-7.049186844E-1,4.032250147E-1,8.419096041E-1
3.214766083E0,-1.254347625E-1,6.187307256E-1,2.087628773E0,2.180998736E0
3.224770083E0,4.278955869E-3,2.899926018E0,2.992928614E0,4.167398578E0
3.234774083E0,-8.143322222E-1,3.642399030E0,4.171544857E0,5.597498919E0
3.244779083E0,-1.694070960E0,4.319622377E0,6.044982519E0,7.620421744E0
3.254783083E0,-1.530251127E0,4.996601311E0,6.937515550E0,8.685436959E0
3.264787083E0,-2.235218782E0,5.162600255E0,6.688394927E0,8.739752347E0
3.274792083E0,-2.378759448E0,5.132142693E0,6.464027907E0,8.589589159E0
3.284796083E0,-1.786520702E0,5.145679582E0,5.823643187E0,7.973988623E0
3.294801083E0,-6.890239788E-1,4.867467307E0,4.101827043E0,6.402497725E0
3.304805083E0,-2.065536238E-2,4.247320971E0,2.710957457E0,5.038794737E0
3.314809083E0,-1.995790284E-1,3.800085572E0,2.884796348E0,4.775199693E0
3.324814083E0,-1.370815829E0,3.790635302E0,3.046951332E0,5.052916430E0
3.334818083E0,-2.726766281E0,4.511880582E0,3.453170852E0,6.302119459E0
3.344822083E0,-3.654020371E0,5.118745553E0,4.777979765E0,7.898260032E0
3.354827083E0,-3.244661773E0,5.338679214E0,5.349921071E0,8.225021656E0
3.364831083E0,-2.356574235E0,5.086461906E0,4.563592772E0,7.228548667E0
3.374835083E0,-1.591973897E0,4.613677683E0,3.612199330E0,6.071934342E0
3.384840083E0,-7.293202847E-1,4.011063053E0,2.585680861E0,4.827657860E0
3.394844083E0,4.160998161E-1,3.580354224E0,1.211345155E0,3.802556050E0
3.404848083E0,9.964270891E-1,3.292458376E0,9.303504825E-2,3.441192325E0
3.414853083E0,1.330240245E0,3.383029407E0,-7.385743806E-1,3.709436507E0
3.424857083E0,1.986653791E0,3.866896443E0,-1.604876802E0,4.634146192E0
3.434861083E0,2.103880817E0,3.952211412E0,-2.219383499E0,4.997194478E0
3.444866083E0,1.528157385E0,3.348998612E0,-2.895756076E0,4.683637470E0
3.454870083E0,1.338626322E0,2.706646305E0,-4.024664554E0,5.031478850E0
3.464874083E0,1.116846110E0,1.618691141E0,-4.825249826E0,5.210618209E0
3.474879083E0,1.563485239E0,8.343976736E-3,-6.184663146E0,6.379233021E0
3.484883083E0,2.328685939E0,-2.757757401E0,-7.144561363E0,8.004546281E0
3.494888083E0,3.014733174E0,-6.416025774E0,-6.596869045E0,9.683629694E0
3.504892083E0,2.521913174E0,-1.052021685E1,-6.496419142E0,1.261897263E1
3.514896083E0,1.715632275E0,-1.332312996E1,-6.964361286E0,1.513114384E1
3.524901083E0,5.727762153E-1,-1.213340517E1,-7.252629018E0,1.414737507E1
3.534905083E0,-6.146059535E-1,-7.451434350E0,-6.955882823E0,1.021204780E1
3.544909083E0,-2.373074346E0,-2.460636985E0,-5.809494095E0,6.740655596E0
3.554914083E0,-3.912728088E0,1.768071129E0,-4.606905438E0,6.297546691E0
3.564918083E0,-4.792635226E0,4.264488981E0,-3.608922551E0,7.360675285E0
3.574922083E0,-4.887818249E0,3.351069111E0,-2.418153455E0,6.400616967E0
3.584927083E0,-4.071610971E0,7.340740710E-1,1.048475933E-1,4.138583533E0
3.594931083E0,-4.062213326E0,-1.407379199E0,3.407168175E0,5.485534458E0
3.604935083E0,-4.829476193E0,-3.151798925E0,6.677469989E0,8.823054019E0
3.614940083E0,-6.008126934E0,-4.341285726E0,7.938017417E0,1.086077675E1
3.624944083E0,-7.138194330E0,-5.295553075E0,7.481781399E0,1.161782052E1
3.634948083E0,-7.327959867E0,-5.877681985E0,5.489229230E0,1.088015528E1
3.644953083E0,-5.732149465E0,-5.023135391E0,3.190092341E0,8.262331135E0
3.654957083E0,-3.329757764E0,-1.852482119E0,2.675334173E0,4.655790986E0
3.664961083E0,-1.938197768E0,1.400697001E0,3.298683321E0,4.074294336E0
3.674966083E0,-7.182903895E-1,3.293461758E0,3.305784180E0,4.721338844E0
3.684970083E0,1.822225920E-1,4.250014198E0,3.128299258E0,5.280348663E0
3.694975083E0,6.677299543E-1,4.605540698E0,3.900034660E0,6.071831582E0
3.704979083E0,1.104871378E0,4.524198326E0,4.627628262E0,6.565367819E0
3.714983083E0,1.653732774E0,4.033907540E0,5.287890884E0,6.853395664E0
3.724988083E0,2.049602868E0,2.737627777E0,6.585584503E0,7.420606512E0
3.734992083E0,1.907791224E0,1.420206821E-1,8.621245855E0,8.830952232E0
3.744996083E0,2.027429934E0,-2.235353706E0,7.378611957E0,7.971900196E0
3.755001083E0,2.222003344E0,-3.160169799E0,5.370603257E0,6.615689788E0
3.765005083E0,2.569682002E0,-2.778519110E0,4.113705661E0,5.589812904E0
3.775009083E0,2.498516418E0,-4.827490479E-1,2.021314623E0,3.249822109E0
3.785014083E0,1.057231408E0,1.575598916E0,-2.703748863E-2,1.897625152E0
3.795018083E0,-2.751556977E-1,2.516876090E0,-2.112883190E0,3.297673617E0
3.805022083E0,-6.256224002E-1,2.547071697E0,-3.358069983E0,4.260940228E0
3.815027083E0,-8.433353620E-1,2.268876963E0,-3.734782113E0,4.450574642E0
3.825031083E0,-8.976924674E-1,1.969163892E0,-2.958914484E0,3.665874128E0
3.835035083E0,-5.028907324E-1,1.288114711E0,-1.477428258E0,2.023594044E0
3.845040083E0,5.759905028E-1,8.341304559E-1,-4.809417101E-1,1.121981999E0
3.855044083E0,1.515034333E0,7.463076156E-1,-8.210069650E-1,1.877859559E0
3.865048083E0,2.021070356E0,6.704756606E-1,-1.351234819E0,2.521923578E0
3.875053083E0,2.177085910E0,6.236511576E-1,-1.305701382E0,2.614096388E0
3.885057083E0,1.822337675E0,6.250544894E-1,-1.083535253E0,2.210352090E0
3.895061083E0,1.206822041E0,5.503890538E-1,-1.300064666E0,1.857287184E0
3.905066083E0,9.134695709E-1,5.380625385E-1,-1.880909673E0,2.159110731E0
3.915070083E0,5.821039130E-1,8.250988466E-1,-2.097219815E0,2.327652041E0
3.925074083E0,5.479427615E-2,8.888352513E-1,-1.674593446E0,1.896653296E0
3.935079083E0,-4.881030143E-1,5.499627918E-1,-1.958738306E0,2.092213989E0
3.945083083E0,-7.920078452E-1,1.207765782E-1,-2.652408117E0,2.770763835E0
3.955088083E0,-2.639001913E-1,1.350683427E-1,-3.419163446E0,3.431991468E0
3.965092083E0,1.053702613E0,3.040481973E-1,-4.560448725E0,4.690461286E0
3.975096083E0,2.842144710E0,-2.409064543E-1,-5.509650046E0,6.204197458E0
3.985101083E0,4.504961572E0,-1.072020916E0,-6.123867306E0,7.677607595E0
3.995105083E0,4.728857014E0,-1.824479218E0,-6.295377835E0,8.082239489E0
4.005109083E0,3.615736896E0,-2.668099120E0,-6.106953650E0,7.582030671E0
4.015114083E0,3.044538771E0,-3.339884557E0,-5.280226938E0,6.950168466E0
4.025118083E0,3.419620698E0,-3.839901602E0,-4.630355111E0,6.919453627E0
4.035122083E0,3.978435005E0,-3.997724385E0,-4.254340846E0,7.064641631E0
4.045127083E0,4.409384154E0,-3.938063489E0,-4.245124757E0,7.278193242E0
4.055131083E0,4.460447304E0,-3.832432954E0,-4.744950598E0,7.556301256E0
4.065135083E0,3.456805189E0,-3.350594902E0,-4.738119296E0,6.754684506E0
4.075140083E0,2.611425567E0,-2.267825049E0,-4.450357056E0,5.636333194E0
4.085144083E0,1.950725720E0,-1.393026624E0,-3.891562630E0,4.570570392E0
4.095148083E0,1.601048045E0,-1.122640847E0,-3.043177539E0,3.617265106E0
4.105153083E0,1.369047192E0,-1.802446325E0,-3.060876476E0,3.806844858E0
4.115157083E0,9.747214206E-1,-2.982747735E0,-3.513887755E0,4.711079818E0
4.125161083E0,9.353087752E-1,-3.559340501E0,-2.507882488E0,4.453446068E0
4.135166083E0,8.718660468E-1,-3.893581381E0,-9.753915115E-1,4.107494975E0
4.145170083E0,6.914399021E-1,-3.938864558E0,1.070780722E0,4.139965519E0
4.155174083E0,8.877890565E-2,-4.197761725E0,4.217911230E0,5.951458674E0
4.165179083E0,-6.596971225E-1,-5.897564272E0,5.797154131E0,8.295990637E0
4.175183083E0,-1.717952597E0,-8.160267161E0,6.264345492E0,1.042992549E1
4.185188083E0,-3.966668068E0,-1.002540441E1,6.918121505E0,1.281029251E1
4.195192083E0,-6.389305168E0,-1.151780563E1,6.772091972E0,1.481027673E1
4.205196083E0,-7.509511819E0,-1.162245910E1,4.031435337E0,1.441273028E1
4.215201083E0,-6.258248600E0,-9.511153486E0,-6.483028726E-1,1.140385956E1
4.225205083E0,-3.933796191E0,-6.061211466E0,-4.457821319E0,8.490300809E0
4.235209083E0,-2.611641622E0,-3.059954955E0,-4.411505816E0,5.970375185E0
4.245214083E0,-3.265181407E0,-1.022699068E0,-8.237111561E-1,3.519349808E0
4.255218083E0,-3.191125836E0,3.768588960E-2,3.574914267E0,4.792151536E0
4.265222083E0,-2.192506333E-1,1.318712021E0,5.513022135E0,5.672784616E0
4.275227083E0,2.531845255E0,1.940226606E0,4.627760994E0,5.620577505E0
4.285231083E0,2.903541936E0,4.469005288E0,5.569243698E0,7.708374628E0
4.295235083E0,2.461825724E0,5.161333748E0,6.336279109E0,8.535126531E0
4.305240083E0,1.096735927E0,4.885044622E0,6.455528394E0,8.169475963E0
4.315244083E0,1.161728314E0,4.958930039E0,5.326645644E0,7.369786539E0
4.325248083E0,1.650001227E0,5.338521924E0,5.669174368E0,7.960016231E0
4.335253083E0,6.426008141E-1,5.196829855E0,5.873636881E0,7.868899959E0
4.345257083E0,2.728740228E-1,4.771467136E0,6.772337555E0,8.288903113E0
4.355261083E0,5.948027498E-1,4.752963622E0,6.601314098E0,8.156089831E0
4.365266083E0,6.271219917E-1,5.236900240E0,5.594883154E0,7.689026181E0
4.375270083E0,-3.614752736E-1,5.572915750E0,5.547435923E0,7.871600831E0
4.385274083E0,-1.934850968E0,5.981461877E0,5.907037931E0,8.626391573E0
4.395279083E0,-2.507533409E0,6.748913609E0,5.605442056E0,9.124502142E0
4.405283083E0,-3.207086104E0,7.166155130E0,5.580686114E0,9.632405626E0
4.415288083E0,-3.720896438E0,7.454762585E0,5.252750872E0,9.849362783E0
4.425292083E0,-3.703971965E0,7.636369502E0,4.250919055E0,9.492305321E0
4.435296083E0,-3.480874960E0,7.541434693E0,3.260503050E0,8.923038040E0
4.445301083E0,-2.671775557E0,7.127335466E0,2.338118522E0,7.962668754E0
4.455305083E0,-1.576430098E0,6.250108691E0,1.312885271E0,6.578195668E0
4.465309083E0,-5.217057202E-1,4.994481695E0,-1.985667658E-1,5.025579869E0
4.475314083E0,3.265723298E-1,3.620000685E0,-2.404645218E0,4.358138716E0
4.485318083E0,5.723896778E-1,1.955225299E0,-4.114942932E0,4.591654522E0
4.495322083E0,8.677140851E-1,-3.259980601E-1,-6.414707812E0,6.481333102E0
4.505327125E0,2.007462277E0,-3.887783867E0,-1.062258054E1,1.148842833E1
4.515331125E0,3.703441915E0,-8.646730360E0,-1.363357735E1,1.656369099E1
4.525335125E0,5.198854162E0,-1.387927384E1,-1.225455831E1,1.923113430E1
4.535340125E0,5.540903998E0,-1.696055768E1,-6.542985198E0,1.900454654E1
4.545344125E0,3.105384897E0,-1.437124336E1,-2.716573707E0,1.495178330E1
4.555348125E0,-1.729228148E-1,-7.869652941E0,-3.627889164E0,8.667347893E0
4.565353125E0,-1.953581939E0,-1.987352825E0,-5.084294343E0,5.797939514E0
4.575357125E0,-2.267030266E0,2.495782260E0,-5.955548186E0,6.843749668E0
4.585361125E0,-2.392552591E0,5.240724319E0,-4.733467836E0,7.456220023E0
4.595366125E0,-2.778926076E0,4.429533659E0,-2.893520393E0,5.976257930E0
4.605370125E0,-3.280304061E0,8.141025728E-1,1.553374234E-1,3.383384023E0
4.615374125E0,-4.498283467E0,-2.758437433E0,3.497231376E0,6.330415351E0
4.625379125E0,-7.142130675E0,-6.650343001E0,6.111694572E0,1.151476891E1
4.635383125E0,-9.150117155E0,-1.072808069E1,7.319440473E0,1.588680484E1
4.645387125E0,-8.769134218E0,-1.305663141E1,6.020559869E0,1.684103559E1
4.655392125E0,-5.132061417E0,-9.935450842E0,3.424097034E0,1.169511344E1
4.665396125E0,-8.068318525E-1,-2.839779804E0,3.840155371E0,4.843771284E0
4.675401125E0,-5.058853108E-1,1.904883696E0,4.799023894E0,5.187979585E0
4.685405125E0,-2.426505326E-1,4.579552748E0,4.663826036E0,6.540829912E0
4.695409125E0,2.919221318E-1,5.352083956E0,5.669241611E0,7.801943453E0
4.705414125E0,5.939447805E-1,5.284966691E0,6.364659154E0,8.294126204E0
4.715418125E0,1.135265497E0,5.254070004E0,6.117283925E0,8.143417095E0
4.725422125E0,1.397854962E0,4.664412804E0,5.874614536E0,7.630323796E0
4.735427125E0,1.149162648E0,3.221375529E0,6.319190036E0,7.185401715E0
4.745431125E0,1.070575558E0,1.255762067E0,7.538188319E0,7.716693173E0
4.755435125E0,1.301660663E0,-1.375232377E0,7.902965698E0,8.126650688E0
4.765440125E0,2.159731374E0,-3.262500166E0,7.463097206E0,8.426515701E0
4.775444125E0,3.414128408E0,-3.437790921E0,6.965337771E0,8.484728014E0
4.785448125E0,3.725475685E0,-2.249451343E0,5.989118221E0,7.403292341E0
4.795453125E0,1.729832677E0,-2.895821857E-1,3.636726061E0,4.037568003E0
4.805457125E0,-3.994825408E-1,7.382431358E-1,1.091854087E0,1.377219872E0
4.815461125E0,-1.165075260E0,1.505997754E0,-1.698298059E0,2.551400771E0
4.825466125E0,-2.276767050E0,1.590542645E0,-4.738947262E0,5.492823978E0
4.835470125E0,-3.303464590E0,1.372804613E0,-5.957495894E0,6.949045123E0
4.845474125E0,-3.603771446E0,1.618496429E0,-4.819176323E0,6.231465298E0
4.855479125E0,-2.551557973E0,1.381802893E0,-2.614961379E0,3.906129841E0
4.865483125E0,-1.564433511E0,8.006007671E-2,-9.283822366E-1,1.820921581E0
4.875487125E0,-4.976085039E-1,3.957454026E-2,-6.730075780E-1,8.379257530E-1
4.885492125E0,2.590499077E-1,4.422389531E-1,-1.397518455E0,1.488536186E0
4.895496125E0,5.979829407E-1,4.971250123E-1,-2.299446791E0,2.427379744E0
4.905500125E0,4.426323611E-1,3.327311289E-1,-2.321988831E0,2.387104007E0
4.915505125E0,1.005844542E0,8.846433824E-1,-1.356270441E0,1.906249371E0
4.925509125E0,1.779126313E0,1.234959428E0,-6.983271182E-2,2.166862209E0
4.935513125E0,2.068566119E0,8.579906040E-1,1.809277627E-1,2.246741757E0
4.945518125E0,1.767818090E0,6.514757180E-1,-9.695971401E-1,2.118895945E0
4.955522125E0,1.356861595E0,3.744749862E-1,-2.628223448E0,2.981419695E0
4.965527125E0,1.141793840E0,2.423010153E-1,-3.916646600E0,4.086872098E0
4.975531125E0,9.162630782E-1,-1.047394198E-1,-5.084232363E0,5.167197218E0
4.985535125E0,1.068344480E0,-7.606233537E-1,-5.405563760E0,5.562376055E0
4.995540125E0,1.542631583E0,-1.217969173E0,-5.406363074E0,5.752557935E0
5.005544125E0,2.226716200E0,-1.003673397E0,-5.101847684E0,5.656365893E0
5.015548125E0,3.081917974E0,-8.521252620E-1,-4.977807190E0,5.916324897E0
5.025553125E0,4.070625423E0,-8.133722556E-1,-5.168863792E0,6.629382978E0
5.035557125E0,4.254748981E0,-8.080337477E-1,-5.320207275E0,6.860059248E0
5.045561125E0,3.521209053E0,-9.057676184E-1,-5.137599900E0,6.293986090E0
5.055566125E0,3.534631337E0,-1.074952126E0,-4.824723284E0,6.076766865E0
5.065570125E0,4.224293174E0,-1.228902297E0,-4.097422335E0,6.011965025E0
5.075574125E0,5.003937228E0,-1.342239463E0,-3.515121517E0,6.260756650E0
5.085579125E0,5.555925495E0,-1.296745786E0,-3.337089880E0,6.609540575E0
5.095583125E0,5.042392611E0,-1.303834950E0,-3.214241049E0,6.120216854E0
5.105587125E0,4.000211205E0,-1.469569016E0,-3.297486981E0,5.388389664E0
5.115592125E0,2.649200919E0,-1.655436214E0,-2.972124513E0,4.311874151E0
5.125596125E0,1.026177869E0,-2.763699927E0,-2.854353404E0,4.103463374E0
5.135600125E0,5.658606768E-1,-3.988215058E0,-2.644050107E0,4.818408308E0
5.145605125E0,1.145354210E0,-4.507533762E0,-1.409295770E0,4.859610216E0
5.155609125E0,1.622961655E0,-5.083151212E0,7.724271280E-1,5.391574394E0
5.165613125E0,1.098028674E0,-6.264788126E0,3.047348943E0,7.052628788E0
5.175618125E0,-1.555944377E0,-7.926804796E0,5.776888851E0,9.931145049E0
5.185622125E0,-4.494909623E0,-9.599773301E0,6.833181342E0,1.261159099E1
5.195626125E0,-6.746948360E0,-1.128150094E1,5.880193949E0,1.440035612E1
5.205631125E0,-8.300328441E0,-1.199815674E1,4.897237236E0,1.538941681E1
5.215635125E0,-9.103909534E0,-1.080960607E1,3.458550875E0,1.454958166E1
5.225640125E0,-8.304222102E0,-8.487265095E0,3.333826549E-1,1.187875909E1
5.235644125E0,-7.160285110E0,-5.634236670E0,-1.413755003E0,9.220249938E0
5.245648125E0,-6.256853455E0,-2.560373527E0,-1.338344632E0,6.891653946E0
5.255653125E0,-5.141278968E0,2.326332289E-1,-1.717911959E-3,5.146539672E0
5.265657125E0,-4.530629387E0,1.711079487E0,1.083372116E0,4.962669724E0
5.275661125E0,-1.821415277E0,2.411067215E0,3.986412069E0,5.002227495E0
5.285666125E0,2.789412180E0,3.305771901E0,6.183652747E0,7.546291107E0
5.295670125E0,3.662623964E0,3.248056959E0,3.838769581E0,6.220999936E0
5.305674125E0,2.101903581E0,2.873684299E0,1.275562786E0,3.781946659E0
5.315679125E0,1.770088126E0,2.873073265E0,3.902908859E0,5.159501868E0
5.325683125E0,1.717233682E0,3.528356690E0,5.623212329E0,6.857018984E0
5.335687125E0,2.140898516E0,4.170528903E0,6.370675939E0,7.909631452E0
5.345692125E0,1.752925232E0,3.786308362E0,6.887296153E0,8.052560226E0
5.355696125E0,1.839459492E0,3.474961671E0,5.956795982E0,7.137393657E0
5.365700125E0,1.923664806E0,3.450814424E0,5.045238451E0,6.408044749E0
5.375705125E0,1.719618761E0,3.206392624E0,5.334241177E0,6.456947520E0
5.385709125E0,1.160585403E0,3.296037456E0,5.443656031E0,6.468710256E0
5.395713125E0,-4.860976752E-2,3.666315311E0,5.105923194E0,6.286070516E0
5.405718125E0,-1.399278905E0,4.390842633E0,5.101485157E0,6.874782272E0
5.415722125E0,-2.502933989E0,5.192094195E0,5.429482380E0,7.918446792E0
5.425726125E0,-3.413252496E0,5.827553805E0,5.271607558E0,8.567410472E0
5.435731125E0,-3.898516431E0,6.326418949E0,4.620862741E0,8.750678805E0
5.445735125E0,-4.037849440E0,6.557401509E0,3.649839612E0,8.522034489E0
5.455739125E0,-3.785169617E0,6.416866604E0,2.484096307E0,7.853306342E0
5.465744125E0,-3.196681860E0,6.073874781E0,1.603624328E0,7.048570122E0
5.475748125E0,-2.511693995E0,5.795698174E0,8.082769918E-1,6.368048033E0
5.485752125E0,-1.621857993E0,5.470649117E0,-3.544465184E-2,5.706109133E0
5.495757125E0,-8.628110486E-1,5.010818231E0,-8.261294183E-1,5.151235975E0
5.505761125E0,4.355163362E-2,4.153196002E0,-1.959103465E0,4.592278319E0
5.515766125E0,8.318532577E-1,2.781012363E0,-3.388285177E0,4.461668527E0
5.525770125E0,7.566797722E-1,7.733726227E-1,-5.173763759E0,5.285688312E0
5.535774125E0,1.085161803E0,-1.632191777E0,-7.765586536E0,8.009117329E0
5.545779125E0,1.946228773E0,-4.981697928E0,-9.607784572E0,1.099611955E1
5.555783125E0,2.790138405E0,-9.183824015E0,-8.927321867E0,1.310818720E1
5.565787125E0,3.371214231E0,-1.306632960E1,-6.840385112E0,1.512894322E1
5.575792125E0,3.217205587E0,-1.301088630E1,-5.136369646E0,1.435325285E1
5.585796125E0,8.993443789E-1,-8.560061175E0,-4.720622965E0,9.816707636E0
5.595800125E0,-8.424858347E-1,-3.492559451E0,-4.847168991E0,6.033473388E0
5.605805125E0,-9.877546450E-1,1.272747644E0,-5.470497090E0,5.702796175E0
5.615809125E0,-1.296185623E0,4.958433026E0,-5.703092312E0,7.667556140E0
5.625813125E0,-1.494830449E0,4.996006649E0,-4.619561444E0,6.966702839E0
5.635818125E0,-1.211825869E0,1.308646039E0,-9.083822009E-1,2.001558047E0
5.645822125E0,-1.763132863E0,-2.815498071E0,1.857359866E0,3.805975900E0
5.655826125E0,-3.758693717E0,-6.675571983E0,4.085828768E0,8.682455671E0
5.665831125E0,-6.094626549E0,-1.057423810E1,6.338572387E0,1.375269007E1
5.675835125E0,-7.219662416E0,-1.271741806E1,7.457749343E0,1.641567156E1
5.685839125E0,-5.139533574E0,-8.801760512E0,6.661970190E0,1.217652004E1
5.695844125E0,-2.748834550E0,-2.633852563E0,5.371035951E0,6.583410810E0
5.705848125E0,-2.257800290E0,4.699173331E-1,4.777473981E0,5.304973335E0
5.715852125E0,-2.192527676E0,1.921277534E0,4.358107289E0,5.243241756E0
5.725857125E0,-1.856304882E0,2.662527893E0,4.633586867E0,5.657300580E0
5.735861125E0,-1.312224535E0,3.119905288E0,5.368340385E0,6.346244616E0
5.745865125E0,-1.838267391E-1,3.766987993E0,6.530832345E0,7.541602080E0
5.755870125E0,6.412060339E-1,3.875108272E0,6.571960491E0,7.656257179E0
5.765874125E0,7.628077273E-1,3.150597907E0,6.535449307E0,7.295220384E0
5.775878125E0,1.706151746E-1,1.263259367E0,6.612041985E0,6.733797812E0
5.785883125E0,1.320015950E0,-7.994406796E-1,6.769173042E0,6.942856125E0
5.795887125E0,3.022647673E0,-2.239315780E0,5.919681365E0,7.013812200E0
5.805891125E0,-2.471847560E0,-2.734888356E0,6.935456160E0,7.854310716E0
5.815896125E0,-1.483117745E0,-1.119931832E0,5.411516225E0,5.721747409E0
5.825900125E0,-1.340418786E0,3.434093142E-1,3.559359212E0,3.818859840E0
5.835905125E0,-2.221348748E0,8.790587068E-1,2.013551714E0,3.124343927E0
5.845909125E0,-2.498253878E0,7.130539155E-1,7.805799007E-1,2.712751980E0
5.855913125E0,-2.840444047E0,7.262452340E-1,-4.075813365E-1,2.960013019E0
5.865918125E0,-2.811767548E0,8.888276500E-1,-1.336465922E0,3.237621425E0
5.875922125E0,-2.476424175E0,1.230914324E0,-2.030523403E0,3.430867537E0
5.885926125E0,-2.137724062E0,1.042924587E0,-2.523310951E0,3.467658290E0
5.895931125E0,-1.276643790E0,7.006227350E-1,-3.067374487E0,3.395508478E0
5.905935125E0,1.996414840E-2,5.026079464E-1,-4.111811748E0,4.142464142E0
5.915939125E0,8.610523523E-1,8.691277957E-1,-4.280452464E0,4.451861136E0
5.925944125E0,1.475942334E0,1.474857822E0,-2.729727604E0,3.435844024E0
5.935948125E0,1.742576391E0,1.398322447E0,-1.123648395E0,2.500892613E0
5.945952125E0,2.057861183E0,7.648239934E-1,-7.757823334E-1,2.328430076E0
5.955957125E0,2.951431802E0,9.120030892E-1,-7.423578946E-1,3.177073269E0
5.965961125E0,2.898803353E0,9.506473374E-1,-8.779349450E-1,3.174517445E0
5.975965125E0,2.196463583E0,7.893612492E-1,-5.604509425E-1,2.400343457E0
5.985970125E0,1.516116653E0,5.934789401E-1,-5.297466284E-1,1.712150241E0
5.995974125E0,9.157738124E-1,6.359940451E-1,-5.815864344E-1,1.257526493E0
6.005978125E0,1.382888520E-1,4.492304689E-1,-1.111067014E0,1.206400320E0
6.015983125E0,-5.090224881E-1,2.983834147E-1,-2.371555240E0,2.443851634E0
6.025987125E0,-8.248812570E-1,5.312657350E-1,-3.902959438E0,4.024396196E0
6.035991125E0,-4.165290748E-1,5.552568609E-1,-5.523465847E0,5.566909521E0
6.045996125E0,1.048011153E0,-4.009435773E-2,-6.872831896E0,6.952391905E0
6.056000125E0,2.873555368E0,-7.840817982E-1,-6.155037643E0,6.837879284E0
6.066004125E0,4.649536318E0,-1.496899486E0,-4.610105911E0,6.716544689E0
6.076009125E0,5.523913159E0,-1.355934227E0,-3.795800440E0,6.838148521E0
6.086013125E0,4.888498280E0,-1.210411647E0,-3.489953932E0,6.127176367E0
6.096017125E0,4.010195326E0,-1.499088099E0,-3.315171885E0,5.414729569E0
6.106022125E0,4.117519800E0,-2.087726714E0,-3.386317004E0,5.725357193E0
6.116026125E0,4.653286137E0,-2.353602533E0,-3.250247326E0,6.144641929E0
6.126030125E0,4.671577105E0,-2.562341115E0,-3.421816912E0,6.332302553E0
6.136035125E0,4.176118841E0,-2.674277873E0,-4.076934276E0,6.419744840E0
6.146039125E0,2.616416751E0,-2.628474294E0,-4.454177334E0,5.796051195E0
6.156043125E0,9.939956707E-1,-1.825608900E0,-4.956854278E0,5.375060891E0
6.166048125E0,-1.023381145E-1,-8.628408694E-1,-5.490361835E0,5.558690542E0
6.176052125E0,-2.731118583E-1,-3.987181270E-1,-4.541373938E0,4.567016912E0
6.186057125E0,-7.507252602E-1,-3.048288006E-1,-3.396596702E0,3.491901798E0
6.196061125E0,-1.808347920E0,-1.429072369E0,-3.826781620E0,4.467284141E0
6.206065125E0,-7.035134523E-1,-2.550899869E0,-4.341857584E0,5.084658159E0
6.216070125E0,6.835216758E-1,-2.681978656E0,-2.808465625E0,3.943055992E0
6.226074125E0,2.011851636E0,-2.748743919E0,-8.156538391E-1,3.502632056E0
6.236078125E0,3.350124494E0,-3.266118423E0,1.236126532E0,4.839304958E0
6.246083125E0,3.521107312E0,-4.930122562E0,3.926447411E0,7.219507909E0
6.256087125E0,1.215946256E0,-7.055404188E0,6.593035026E0,9.732695639E0
6.266091125E0,-1.535653370E0,-8.501693684E0,7.642662860E0,1.153461410E1
6.276096125E0,-5.150210005E0,-9.928703156E0,6.795076207E0,1.308727894E1
6.286100125E0,-7.676570864E0,-1.179744521E1,3.816564195E0,1.458340207E1
6.296104125E0,-7.318278047E0,-1.123793099E1,-6.648414297E-1,1.342722237E1
6.306109125E0,-6.463272446E0,-8.602555230E0,-2.938953259E0,1.115416037E1
6.316113125E0,-6.112569900E0,-5.239224508E0,-2.304154823E0,8.373894773E0
6.326117125E0,-5.746541802E0,-2.514733670E0,-1.506232081E0,6.450997070E0
6.336122125E0,-4.731852835E0,-6.490894693E-1,1.077349776E0,4.896164921E0
6.346126125E0,-1.323425608E0,3.011953408E-1,1.559038578E0,2.067069244E0
6.356130125E0,1.177957992E0,1.719680741E0,3.373148490E0,3.965226049E0
6.366135125E0,2.861718849E0,2.823725104E0,4.339218443E0,5.915376145E0
6.376139125E0,3.181490502E0,3.068984225E0,6.921551481E0,8.212698759E0
6.386143125E0,2.943280199E0,3.029535985E0,3.462826067E0,5.461881634E0
6.396148125E0,1.250726006E0,2.975891290E0,4.308734569E0,5.383812599E0
6.406152125E0,3.052206006E-1,2.967523339E0,6.229187354E0,6.906672822E0
6.416156125E0,7.841699450E-1,3.595699657E0,6.877518439E0,7.800271688E0
6.426161125E0,1.698944322E0,3.359032434E0,6.220202522E0,7.270517872E0
6.436165125E0,1.331982277E0,2.579547717E0,5.199567522E0,5.955144467E0
6.446169125E0,9.382548948E-1,2.503347387E0,5.193112780E0,5.840846749E0
6.456174125E0,4.411909493E-1,3.002970330E0,4.745585021E0,5.633210226E0
6.466178125E0,-1.421477421E0,3.299832884E0,4.505893910E0,5.763035229E0
6.476182125E0,-3.175789467E0,3.961468139E0,4.455619258E0,6.755102629E0
6.486187125E0,-3.954049777E0,5.023513121E0,4.629173974E0,7.892999772E0
6.496191125E0,-4.512287548E0,5.879098181E0,4.813965284E0,8.837352324E0
6.506194833E0,-4.803054672E0,6.348812615E0,4.866499593E0,9.330572013E0
6.516199833E0,-4.466525777E0,6.312031290E0,4.543521328E0,8.968566082E0
6.526203833E0,-3.696476711E0,5.718369332E0,3.917776574E0,7.855740651E0
6.536207833E0,-2.585176247E0,5.162579790E0,3.245141830E0,6.623164788E0
6.546212833E0,-1.607060591E0,4.765782473E0,2.509406857E0,5.620716066E0
6.556216833E0,-9.309081607E-1,4.393558665E0,1.303337352E0,4.676391344E0
6.566221833E0,-3.649417223E-1,4.053025011E0,-1.969324690E-1,4.074184164E0
6.576225833E0,2.342243111E-1,3.596615916E0,-1.512526170E0,3.908739246E0
6.586229833E0,7.806551836E-1,2.922005104E0,-2.482732736E0,3.912990951E0
6.596234833E0,8.567259244E-1,1.861928295E0,-3.741952846E0,4.266493571E0
6.606238833E0,7.166255410E-1,1.488397050E-1,-5.689821471E0,5.736704088E0
6.616242833E0,1.335775512E0,-2.778370591E0,-9.491201617E0,9.979305962E0
6.626247833E0,1.997873136E0,-6.527831554E0,-1.164034105E1,1.349450339E1
6.636251833E0,2.965756018E0,-1.073035642E1,-1.052622545E1,1.532115139E1
6.646255833E0,3.991989728E0,-1.355551819E1,-7.047159614E0,1.579083639E1
6.656260833E0,2.932884726E0,-1.213152588E1,-4.489038142E0,1.326375499E1
6.666264833E0,1.056919751E0,-7.284782272E0,-4.724588839E0,8.746820668E0
6.676268833E0,-2.960333822E-1,-2.745313942E0,-5.271116391E0,5.950550598E0
6.686273833E0,-1.173638946E0,1.615917807E0,-4.807098022E0,5.205459646E0
6.696277833E0,-2.197872616E0,4.682133960E0,-3.807453064E0,6.422594592E0
6.706281833E0,-2.605669276E0,4.711954760E0,-2.742251463E0,6.042513808E0
6.716286833E0,-2.065044049E0,2.259507970E0,-1.090781708E0,3.249551957E0
6.726290833E0,-1.759606846E0,-6.184851426E-1,1.755529728E0,2.561371654E0
6.736294833E0,-2.806711460E0,-4.006246701E0,4.887936948E0,6.915169518E0
6.746299833E0,-4.492837370E0,-7.745758628E0,6.439228696E0,1.102932593E1
6.756303833E0,-5.492665054E0,-1.047358881E1,6.026492454E0,1.327343374E1
6.766307833E0,-3.999788744E0,-8.404644522E0,4.083848609E0,1.016435827E1
6.776312833E0,-1.125816616E0,-2.177508371E0,3.589949798E0,4.347038683E0
6.786316833E0,-6.416366082E-1,1.398296134E0,5.121666237E0,5.347746690E0
6.796320833E0,-1.336003261E0,3.078026360E0,5.924493624E0,6.808727905E0
6.806325833E0,-8.729438348E-1,4.372444954E0,6.317752790E0,7.732677811E0
6.816329833E0,-5.136931344E-1,4.684988571E0,6.461720595E0,7.997926706E0
6.826333833E0,1.326472300E-1,4.683146698E0,6.721519403E0,8.193185057E0
6.836338833E0,3.727857256E-1,3.992015163E0,6.676368374E0,7.787749927E0
6.846342833E0,6.731558780E-1,2.571615384E0,5.332277098E0,5.958147662E0
6.856346833E0,1.117361981E0,8.607417190E-1,4.679235203E0,4.887188986E0
6.866351833E0,1.052143234E0,-1.353558503E0,4.370794577E0,4.694994275E0
6.876355833E0,1.754632912E0,-2.524557577E0,4.348906403E0,5.325890960E0
6.886359833E0,2.443207459E0,-2.226574112E0,4.668894110E0,5.720617726E0
6.896364833E0,2.631414566E0,-1.208639941E0,3.371375906E0,4.444246689E0
6.906368833E0,1.635292117E0,-1.140902871E-1,1.853073857E0,2.474081571E0
6.916372833E0,5.968373981E-1,6.323231632E-1,8.724010670E-1,1.231718752E0
6.926377833E0,1.466211800E-1,1.042174389E0,-1.538250411E-1,1.063619937E0
6.936381833E0,-8.094212919E-1,9.446545261E-1,-5.675097378E-1,1.367334013E0
6.946386833E0,-2.330940041E0,5.481665272E-1,-4.386382377E-1,2.434372921E0
6.956390833E0,-2.917686351E0,9.605455041E-1,-3.465141857E-1,3.091215520E0
6.966394833E0,-2.737220518E0,8.752194250E-1,-4.984295261E-1,2.916644853E0
6.976398833E0,-2.527175376E0,3.427959412E-1,-3.160893685E-1,2.569832081E0
6.986403833E0,-1.468490497E0,-4.040016711E-2,-1.009326485E0,1.782368218E0
6.996407833E0,-4.448977186E-1,-5.837743163E-2,-2.115801535E0,2.162858766E0
7.006412833E0,6.541412444E-1,7.027382576E-1,-2.931651841E0,3.084854023E0
7.016416833E0,1.333525065E0,1.176726422E0,-3.285265716E0,3.735765650E0
7.026420833E0,1.517831933E0,9.818217677E-1,-3.127804291E0,3.612609506E0
7.036425833E0,1.882513126E0,9.076907676E-1,-2.237337667E0,3.061607100E0
7.046429833E0,2.393806819E0,9.866240859E-1,-1.402032505E0,2.944390144E0
7.056433833E0,2.235419341E0,9.485288912E-1,-1.143256960E0,2.683997609E0
7.066438833E0,1.878016032E0,8.043137491E-1,-1.131765427E0,2.335542294E0
7.076442833E0,1.928561265E0,7.378010863E-1,-1.389679093E0,2.488957006E0
7.086446833E0,1.532382876E0,5.999944925E-1,-1.846183352E0,2.473172788E0
7.096451833E0,8.458723958E-1,3.576478690E-1,-2.551124986E0,2.711392779E0
7.106455833E0,2.843600009E-1,9.311047733E-2,-3.795055212E0,3.806832573E0
7.116459833E0,3.341382614E-1,4.514693677E-2,-5.264472785E0,5.275259266E0
7.126464833E0,1.152944261E0,4.157539898E-1,-6.271317712E0,6.389957566E0
7.136468833E0,2.291988375E0,6.183652747E-1,-6.205486250E0,6.644068477E0
7.146472833E0,3.427837498E0,6.051751256E-2,-4.988347966E0,6.052879291E0
7.156477833E0,4.281360537E0,-5.992138892E-1,-3.760568919E0,5.729832801E0
7.166481833E0,4.440133784E0,-1.154666632E0,-3.445230041E0,5.737390791E0
7.176485833E0,4.499871863E0,-1.710286020E0,-3.588775092E0,6.004434338E0
7.186490833E0,5.045167115E0,-2.389541860E0,-3.866105314E0,6.790463299E0
7.196494833E0,5.553894757E0,-2.529845799E0,-3.461929396E0,7.016467907E0
7.206498833E0,5.760782695E0,-2.288663356E0,-2.644164420E0,6.739154450E0
7.216503833E0,5.555905614E0,-2.561586825E0,-2.531451737E0,6.621031804E0
7.226507833E0,4.312730849E0,-2.623028782E0,-2.253296472E0,5.527863272E0
7.236511833E0,2.477422003E0,-2.760078161E0,-2.107537227E0,4.265836893E0
7.246516833E0,5.701332007E-1,-2.934006515E0,-2.313828603E0,3.779847735E0
7.256520833E0,-1.665144857E-1,-2.431464642E0,-2.791520394E0,3.705716326E0
7.266524833E0,2.905723021E-1,-2.157003940E0,-3.590383953E0,4.198565850E0
7.276529833E0,9.390433187E-1,-2.334837064E0,-3.476138130E0,4.291480254E0
7.286533833E0,1.323408212E0,-2.841003041E0,-2.155132831E0,3.803591079E0
7.296537833E0,1.598528918E0,-3.811557809E0,1.006814522E-1,4.134417056E0
7.306542833E0,5.821675745E-1,-5.190932938E0,3.163971659E0,6.106997668E0
7.316546833E0,-2.266581054E0,-6.031274307E0,5.488094870E0,8.463618891E0
7.326550833E0,-4.933397003E0,-6.912157345E0,5.992938792E0,1.039382704E1
7.336555833E0,-6.100149245E0,-8.522927263E0,4.282616519E0,1.132223097E1
7.346559833E0,-6.775649418E0,-1.011612045E1,2.758426323E0,1.248415931E1
7.356563833E0,-7.264763744E0,-1.041126919E1,1.811320059E0,1.282389171E1
7.366568833E0,-6.611889372E0,-8.099181883E0,1.045781536E0,1.050749672E1
7.376572833E0,-5.205911751E0,-5.050438380E0,2.947756827E-1,7.259155439E0
7.386577833E0,-3.460824565E0,-2.869036347E0,-4.636491179E-1,4.519252896E0
7.396581833E0,-2.282226741E0,-1.703512605E0,-7.840997784E-1,2.953866374E0
7.406585833E0,-1.507677513E0,-1.773156452E0,2.689217801E-1,2.342966967E0
7.416590833E0,2.371861999E-1,-5.211295867E-1,2.971428695E0,3.026090188E0
7.426594833E0,1.307583893E0,9.022031558E-1,4.284431202E0,4.569474466E0
7.436598833E0,1.369323327E0,2.288350530E0,4.994933685E0,5.662239578E0
7.446603833E0,1.591383767E0,2.699474695E0,5.473191487E0,6.306781348E0
7.456607833E0,1.008895253E0,2.766000221E0,5.605538535E0,6.331720866E0
7.466611833E0,-2.418089721E-1,3.445780556E0,5.582666566E0,6.564909840E0
7.476616833E0,-1.552117265E-1,4.120037611E0,6.656825809E0,7.830206284E0
7.486620833E0,1.952140600E0,4.545748824E0,7.926061031E0,9.343293250E0
7.496624833E0,2.791020457E0,3.198088993E0,6.298430666E0,7.595248334E0
7.506629500E0,9.653076227E-1,1.508072346E0,3.739131272E0,4.145745250E0
7.516633500E0,6.104132076E-1,2.131836939E0,4.872051817E0,5.352963845E0
7.526637500E0,-7.884968480E-2,3.186836611E0,5.389958711E0,6.262092283E0
7.536642500E0,-1.118928888E0,4.068466923E0,4.666093878E0,6.291013992E0
7.546646500E0,-2.662684306E0,4.535052513E0,4.824474485E0,7.136675911E0
7.556650500E0,-3.624654777E0,5.196831025E0,5.034590671E0,8.092729958E0
7.566655500E0,-3.838147145E0,6.087425703E0,4.989032090E0,8.756629854E0
7.576659500E0,-4.059696684E0,6.486405201E0,4.701572151E0,8.981056190E0
7.586663500E0,-3.612646642E0,6.377624186E0,4.017524226E0,8.358576848E0
7.596668500E0,-2.969319604E0,6.065290484E0,3.268881233E0,7.502678993E0
7.606672500E0,-2.327539593E0,5.869247376E0,2.501264901E0,6.791305576E0
7.616676500E0,-1.474338443E0,5.508979955E0,1.492463788E0,5.894911547E0
7.626681500E0,-7.783442178E-1,4.839262678E0,3.841562212E-1,4.916488482E0
7.636685500E0,-1.600233432E-2,4.168972959E0,-9.031723318E-1,4.265713524E0
7.646689500E0,3.447476687E-1,3.168386307E0,-1.711270984E0,3.617453679E0
7.656694500E0,2.732616201E-1,2.120595667E0,-2.426832770E0,3.234364727E0
7.666698500E0,-4.768297653E-1,8.565767473E-1,-3.698347820E0,3.826077227E0
7.676702500E0,-9.230536690E-1,-1.414601680E0,-6.568304812E0,6.782016963E0
7.686707500E0,-1.181694509E-1,-4.950806503E0,-9.662415107E0,1.085756486E1
7.696711500E0,9.789525390E-1,-9.695768210E0,-1.118393780E1,1.483397230E1
7.706715500E0,3.369629928E0,-1.399702975E1,-9.063622802E0,1.701236332E1
7.716720500E0,4.993354352E0,-1.484324113E1,-4.826041246E0,1.638737530E1
7.726724500E0,4.092403670E0,-1.010556740E1,-4.094468322E0,1.164624107E1
7.736728500E0,2.282289891E0,-3.299442290E0,-5.655435750E0,6.933910880E0
7.746733500E0,5.483350366E-1,1.987969122E0,-5.961808215E0,6.308395179E0
7.756737500E0,-3.966074649E-1,5.775847462E0,-5.140129405E0,7.742005017E0
7.766741500E0,-8.676511545E-1,6.631711434E0,-3.741716326E0,7.663736434E0
7.776746500E0,-2.928241745E-1,4.208444003E0,-1.511293577E0,4.481155566E0
7.786750500E0,1.857449548E-1,5.122231078E-1,1.403832278E0,1.505861470E0
7.796754500E0,-9.702441345E-1,-2.994762594E0,3.917161155E0,5.025348564E0
7.806759500E0,-3.462614982E0,-6.916154501E0,5.485157229E0,9.482080227E0
7.816763500E0,-5.705665087E0,-1.116774336E1,6.537829124E0,1.414271245E1
7.826767500E0,-6.343430838E0,-1.303948737E1,6.406173801E0,1.585264673E1
7.836772500E0,-4.104862332E0,-9.058284879E0,4.798730364E0,1.104220235E1
7.846776500E0,-2.062510889E0,-3.104895485E0,3.726945967E0,5.271096032E0
7.856780500E0,-1.526194621E0,1.166816561E0,2.860804929E0,3.446002866E0
7.866785500E0,-1.453762384E0,4.065685987E0,3.354842612E0,5.467924338E0
7.876789500E0,-1.762940051E0,5.458436623E0,6.482374130E0,8.655845560E0
7.886794500E0,-1.747917531E0,5.878410548E0,7.550023084E0,9.726961233E0
7.896798500E0,2.467356898E-2,6.494980143E0,6.419016041E0,9.131765589E0
7.906802500E0,6.823672161E-1,6.281439242E0,6.480010686E0,9.050560340E0
7.916807500E0,3.462006653E-1,5.166828961E0,6.176615038E0,8.060182984E0
7.926811500E0,2.190315089E-1,2.974670976E0,5.148743523E0,5.950311091E0
7.936815500E0,6.040413870E-1,-9.348411441E-2,4.758798559E0,4.797892141E0
7.946820500E0,1.606854184E0,-2.659073943E0,4.923299446E0,5.821643414E0
7.956824500E0,3.043323720E0,-3.794651754E0,4.880572672E0,6.890659679E0
7.966828500E0,3.291606144E0,-2.996866422E0,4.157704790E0,6.091172997E0
7.976833500E0,1.788344302E0,-2.190294478E0,3.112668189E0,4.205266757E0
7.986837500E0,9.250226457E-1,-1.709528806E0,1.898137178E0,2.716814381E0
7.996841500E0,-5.722962320E-3,-2.589918923E-1,4.379728246E-1,5.088514004E-1
8.006846500E0,-1.356877382E0,4.645431572E-1,-5.560947669E-1,1.538232091E0
8.016850500E0,-2.349571024E0,7.101197827E-1,-1.268539402E0,2.762959703E0
8.026854500E0,-2.493592185E0,1.146772306E0,-2.022650712E0,3.409428781E0
8.036859500E0,-2.335387141E0,1.062339681E0,-2.744603505E0,3.757052980E0
8.046863500E0,-1.476202828E0,3.924171674E-1,-3.471591920E0,3.792771610E0
8.056867500E0,-6.817413448E-1,1.677829295E-1,-4.278258589E0,4.335483702E0
8.066872500E0,-1.106310652E-1,-4.982061625E-2,-4.309348235E0,4.311055965E0
8.076876500E0,1.060767292E0,-7.291419446E-2,-3.618605540E0,3.771584519E0
8.086880500E0,2.420746842E0,2.969432455E-1,-2.718023232E0,3.651827057E0
8.096885500E0,3.015152127E0,5.833626723E-1,-1.832835620E0,3.576414513E0
8.106889500E0,2.740107289E0,5.936122566E-1,-9.103489119E-1,2.947761626E0
8.116893500E0,2.570720176E0,6.417260706E-1,-2.297997413E-1,2.659553062E0
8.126898500E0,2.356096225E0,7.092152184E-1,4.981177233E-2,2.461027602E0
8.136902500E0,1.911272948E0,6.579637885E-1,-2.336880666E-1,2.034819585E0
8.146906500E0,9.936286117E-1,4.080146152E-1,-1.036054693E0,1.492374977E0
8.156911500E0,7.580726886E-2,4.703172827E-1,-2.222158295E0,2.272648802E0
8.166915500E0,-6.997965235E-1,7.008607167E-1,-3.827454634E0,3.953521202E0
8.176919500E0,-1.240620994E0,7.955131048E-1,-5.713295703E0,5.900316037E0
8.186924500E0,-9.401757051E-1,7.277128851E-1,-7.083280789E0,7.182364731E0
8.196928500E0,3.666018565E-1,8.530040985E-1,-7.117456010E0,7.177756820E0
8.206932500E0,1.897491646E0,9.501386297E-1,-6.157379453E0,6.512799681E0
8.216937500E0,3.542262830E0,2.274596125E-1,-4.970034487E0,6.107422258E0
8.226941500E0,4.742285437E0,-5.808010072E-1,-4.042856119E0,6.258696875E0
8.236945500E0,4.929686944E0,-9.853622568E-1,-3.860755697E0,6.338626562E0
8.246950500E0,4.409915081E0,-1.464798272E0,-3.864840562E0,6.044003439E0
8.256954500E0,4.553575907E0,-2.060472257E0,-3.798836022E0,6.277878192E0
8.266958500E0,5.177941010E0,-2.027967001E0,-3.181656563E0,6.406766871E0
8.276963500E0,5.827413472E0,-1.761862555E0,-2.482652337E0,6.574684028E0
8.286967500E0,4.886306744E0,-2.225228083E0,-1.629793249E0,5.611048000E0
8.296971500E0,2.652777661E0,-2.940384073E0,-1.140489034E0,4.121140989E0
8.306976500E0,1.374811378E0,-3.118688482E0,-1.344393138E0,3.663839118E0
8.316980500E0,2.429068599E-2,-3.023484702E0,-1.640636326E0,3.440019961E0
8.326984500E0,-1.104721470E0,-2.799061548E0,-2.669808261E0,4.022813845E0
8.336989500E0,-1.465781482E0,-2.533763434E0,-4.008900168E0,4.963844583E0
8.346993500E0,-8.894450428E-1,-2.486571726E0,-3.684741642E0,4.533373181E0
8.356997500E0,2.595580490E-1,-3.558400269E0,-2.330784944E0,4.261706384E0
8.367002500E0,3.979532016E-1,-4.738470713E0,9.486663008E-1,4.848859578E0
8.377006500E0,-1.588078043E0,-5.509782777E0,4.968734651E0,7.587359366E0
8.387010500E0,-4.233655443E0,-6.941566501E0,6.212185990E0,1.023232323E1
8.397015500E0,-5.765368082E0,-8.388661743E0,5.104095354E0,1.138687421E1
8.407019500E0,-6.239997101E0,-9.351557243E0,3.501748935E0,1.177503428E1
8.417023500E0,-6.723947752E0,-9.526334612E0,2.201738502E0,1.186634640E1
8.427028500E0,-6.544025418E0,-7.826971775E0,6.556471217E-1,1.022328856E1
8.437032500E0,-5.348915935E0,-4.897650635E0,1.080752563E-1,7.253245044E0
8.447037500E0,-3.578404470E0,-2.262409358E0,3.248024507E-1,4.246053614E0
8.457041500E0,-1.433823378E0,-1.407983217E0,1.321039505E-1,2.013881246E0
8.467045500E0,1.178342300E0,-1.661668176E0,3.025042400E-1,2.059402952E0
8.477050500E0,2.760231943E0,-6.715527177E-1,4.278875470E-1,2.872795013E0
8.487054500E0,2.798946943E0,9.803318971E-1,2.565165613E0,3.921126017E0
8.497058500E0,2.818768419E0,1.965704094E0,5.316948037E0,6.330828099E0
8.507063458E0,2.469375064E0,1.427702951E0,5.815636010E0,6.477481851E0
8.517067458E0,2.332885264E0,1.910615137E0,5.307400703E0,6.104203968E0
8.527071458E0,1.069537311E0,2.161677035E0,4.991928216E0,5.544015240E0
8.537076458E0,5.307816587E-1,2.954735479E0,5.866938311E0,6.590383605E0
8.547080458E0,7.028128827E-1,3.670741069E0,6.530646404E0,7.524468645E0
8.557084458E0,-2.546630890E-1,3.443238772E0,5.810723180E0,6.759086506E0
8.567089458E0,-1.026097762E0,2.927900852E0,4.571602873E0,5.524946411E0
8.577093458E0,-1.276068716E0,3.045501807E0,4.768923597E0,5.800522813E0
8.587097458E0,-1.183785546E0,3.856298364E0,5.520106037E0,6.836955167E0
8.597102458E0,-1.020353969E0,4.391143765E0,5.644162318E0,7.223561037E0
8.607106458E0,-1.455164400E0,4.645709900E0,5.787095751E0,7.562446769E0
8.617110458E0,-2.187252464E0,5.091771178E0,5.509349499E0,7.814290689E0
8.627115458E0,-2.954877566E0,5.569716153E0,5.181700185E0,8.161069554E0
8.637119458E0,-3.522227346E0,5.971898171E0,4.705125212E0,8.379012859E0
8.647123458E0,-3.647548380E0,6.209820791E0,4.102956725E0,8.288590793E0
8.657128458E0,-3.234121290E0,6.159549939E0,3.326060570E0,7.711178566E0
8.667132458E0,-2.417002723E0,5.741813158E0,2.413022524E0,6.680793232E0
8.677136458E0,-1.580892839E0,5.145109479E0,1.409409937E0,5.563974307E0
8.687141458E0,-8.033866730E-1,4.411157030E0,2.283758712E-1,4.489531382E0
8.697145458E0,-1.430004562E-1,3.547705711E0,-1.206831397E0,3.750080928E0
8.707149458E0,4.212329771E-1,2.393921424E0,-2.488537560E0,3.478665864E0
8.717154458E0,8.380323029E-1,9.914223111E-1,-3.965472020E0,4.172551340E0
8.727158458E0,4.461486573E-1,-6.136337078E-1,-5.390433505E0,5.443562098E0
8.737162458E0,4.133433290E-3,-2.735122245E0,-7.623983345E0,8.099755109E0
8.747167458E0,8.648783317E-1,-5.682711257E0,-1.079352740E1,1.222871438E1
8.757171458E0,1.902051889E0,-9.814859036E0,-1.166419769E1,1.536238156E1
8.767175458E0,3.392753912E0,-1.298388269E1,-8.564319702E0,1.591978520E1
8.777180458E0,3.824743280E0,-1.219261642E1,-3.370951399E0,1.321559191E1
8.787184458E0,2.829145473E0,-7.443887349E0,-2.378290063E0,8.310943784E0
8.797188458E0,1.054096569E0,-2.273842419E0,-3.946427054E0,4.675015018E0
8.807193458E0,-6.128331143E-1,2.084337668E0,-4.880475900E0,5.342197390E0
8.817197458E0,-1.727974286E0,4.984287075E0,-4.242875333E0,6.769859959E0
8.827201458E0,-2.925877715E0,4.561341594E0,-3.032811010E0,6.210035440E0
8.837206458E0,-3.208774779E0,1.729318122E0,-1.199643999E0,3.837436967E0
8.847210458E0,-3.744424464E0,-1.700044622E0,1.391820051E0,4.341431715E0
8.857214458E0,-5.273774536E0,-5.940414423E0,3.810367901E0,8.810228425E0
8.867219458E0,-6.145662802E0,-9.668657010E0,5.649883819E0,1.277392997E1
8.877223458E0,-5.328766429E0,-9.936276469E0,6.544221300E0,1.303657064E1
8.887227458E0,-9.398228256E-1,-5.158009021E0,5.695555251E0,7.741296637E0
8.897232458E0,1.956413892E0,-1.530818599E0,4.367175443E0,5.024259373E0
8.907236458E0,2.659897231E0,3.523222250E-1,4.297850854E0,5.066626708E0
8.917240458E0,2.414331569E0,2.265493180E0,5.866267051E0,6.736063047E0
8.927245458E0,1.895281983E0,3.169908337E0,7.750779047E0,8.585743328E0
8.937249458E0,1.954458875E0,3.558157024E0,6.494771397E0,7.659141362E0
8.947253458E0,2.642129881E0,3.980907208E0,5.648975161E0,7.398607496E0
8.957258458E0,2.934874826E0,3.784844804E0,5.767991728E0,7.497217418E0
8.967262458E0,2.193876190E0,2.467358944E0,6.128197753E0,6.961017210E0
8.977267458E0,2.040084478E0,5.346518576E-1,6.341856183E0,6.683332786E0
8.987271458E0,2.360201993E0,-9.489376116E-1,6.492781005E0,6.973323542E0
8.997275458E0,1.162587197E0,-2.515775059E0,5.863018337E0,6.485037946E0
9.007279458E0,-2.032776482E-1,-3.738208582E0,3.857630360E0,5.375577848E0
9.017284458E0,-1.138446894E0,-3.193200721E0,1.506150366E0,3.709593118E0
9.027288458E0,-2.047943282E0,-2.167879177E0,-5.117401278E-1,3.025830426E0
9.037293458E0,-2.917770551E0,-8.896819282E-1,-2.290044469E0,3.814344320E0
9.047297458E0,-3.707227694E0,3.380620354E-1,-3.391642356E0,5.035976667E0
9.057301458E0,-4.479545187E0,1.263639436E0,-2.669487834E0,5.365563810E0
9.067306458E0,-4.513152936E0,1.802535787E0,-9.114207065E-1,4.944529542E0
9.077310458E0,-3.820964517E0,2.438547374E0,3.517772645E-1,4.546430510E0
9.087314458E0,-2.897285708E0,2.456865531E0,4.155329651E-1,3.821402930E0
9.097319458E0,-1.844645242E0,2.091038577E0,2.636538957E-1,2.800834121E0
9.107323458E0,-1.025052280E0,1.926005593E0,1.500050551E-1,2.186945641E0
9.117327458E0,2.236213265E-2,1.679443712E0,-1.378416771E-1,1.685239322E0
9.127332458E0,7.470237534E-1,1.170045394E0,-7.290536517E-1,1.567982761E0
9.137336458E0,1.418676166E0,7.455772984E-1,-1.372435654E0,2.110001705E0
9.147340458E0,2.295574180E0,8.091815561E-1,-1.506820457E0,2.862681173E0
9.157345458E0,2.782124503E0,1.138992001E0,-1.179602156E0,3.229393252E0
9.167349458E0,2.737698236E0,1.061469031E0,-9.845278591E-1,3.096934491E0
9.177353458E0,2.634409510E0,7.391769361E-1,-9.658845967E-1,2.901625245E0
9.187358458E0,2.520909792E0,6.978178257E-1,-7.596410215E-1,2.723782366E0
9.197362458E0,1.910931471E0,6.900427830E-1,-1.018486003E0,2.272692647E0
9.207366458E0,9.972967163E-1,4.121965438E-1,-1.580550484E0,1.913804213E0
9.217371458E0,3.069520707E-1,1.254169285E-1,-2.174897151E0,2.200028772E0
9.227375458E0,-1.357582045E-1,-1.188668776E-1,-2.761134753E0,2.767024530E0
9.237379458E0,-3.775737181E-2,-1.683781761E-1,-3.430985346E0,3.435322005E0
9.247384458E0,5.808173063E-1,-3.822441816E-2,-4.229315640E0,4.269182665E0
9.257388458E0,1.537318949E0,2.108786631E-1,-4.910819734E0,5.150142699E0
9.267392458E0,2.435900486E0,6.292130291E-2,-5.125981482E0,5.675672332E0
9.277397458E0,3.101072283E0,-5.444512063E-1,-5.228704782E0,6.103476888E0
9.287401458E0,3.381096318E0,-1.084438648E0,-4.954183854E0,6.095224127E0
9.297405458E0,3.261127240E0,-1.558627372E0,-4.202105037E0,5.542739116E0
9.307410458E0,3.573046374E0,-1.758303940E0,-3.426200570E0,5.253298343E0
9.317414458E0,4.197493630E0,-1.912132489E0,-3.120685891E0,5.569011031E0
9.327418458E0,4.723404778E0,-2.164825761E0,-2.952073826E0,5.975931989E0
9.337423458E0,5.248535029E0,-2.181719536E0,-2.626575703E0,6.261463089E0
9.347427458E0,4.735144233E0,-2.386546331E0,-2.436644836E0,5.835617564E0
9.357431458E0,2.939352624E0,-2.768220409E0,-2.317650489E0,4.655571058E0
9.367436458E0,8.998860504E-1,-2.656580105E0,-2.804794158E0,3.966621110E0
9.377440458E0,-8.993847247E-1,-2.123150901E0,-3.111152006E0,3.872457803E0
9.387444458E0,-9.838695357E-1,-2.062733960E0,-3.338693479E0,4.045954128E0
9.397449458E0,-9.705720171E-3,-2.418679120E0,-3.818355197E0,4.519949037E0
9.407453458E0,8.690026653E-1,-2.825095691E0,-3.542904562E0,4.613946687E0
9.417457458E0,2.121490291E0,-3.299996606E0,-2.005623620E0,4.406044117E0
9.427462458E0,3.382547012E0,-4.288547934E0,5.044936734E-1,5.485233043E0
9.437466458E0,2.581419118E0,-5.314729604E0,4.223254416E0,7.262640930E0
9.447470458E0,-8.922371614E-1,-6.306385219E0,6.282706919E0,8.946451135E0
9.457475458E0,-4.868697854E0,-7.486424673E0,5.816197343E0,1.065734135E1
9.467479458E0,-7.000395337E0,-8.693147312E0,4.512325555E0,1.203899610E1
9.477483458E0,-8.067971200E0,-9.357306225E0,2.134545954E0,1.253824651E1
9.487488458E0,-7.598627479E0,-8.345872403E0,2.017179765E-2,1.128685663E1
9.497492458E0,-6.643470184E0,-5.928929906E0,2.122657688E-1,8.906905337E0
9.507497208E0,-5.736010966E0,-3.636169406E0,1.190972725E0,6.895068222E0
9.517502208E0,-3.746318378E0,-1.543164411E0,1.542621935E0,4.335428493E0
9.527506208E0,-9.520585629E-1,-5.357447022E-1,1.247793481E0,1.658440974E0
9.537510208E0,1.799654279E0,-3.676799369E-1,1.263749363E0,2.229575411E0
9.547515208E0,2.012296609E0,1.791206807E-1,-2.660000727E-2,2.020428029E0
9.557519208E0,1.194939183E0,1.658066291E0,1.202592165E0,2.371348012E0
9.567523208E0,1.097680253E0,2.413510181E0,4.759283293E0,5.448000624E0
9.577528208E0,4.076531842E-1,2.074256483E0,5.511125883E0,5.902645981E0
9.587532208E0,-3.324665790E-1,2.108283770E0,5.006626947E0,5.442582831E0
9.597536208E0,6.660109460E-1,2.643081808E0,5.744459023E0,6.358322223E0
9.607541208E0,1.283934390E0,3.099037160E0,5.974083860E0,6.851437572E0
9.617545208E0,1.215320896E0,2.584356467E0,5.835901875E0,6.497203546E0
9.627550208E0,9.656343359E-1,2.130190364E0,5.246620651E0,5.744317967E0
9.637554208E0,1.130787992E0,2.074829510E0,4.403419117E0,4.997369198E0
9.647558208E0,1.102235088E0,2.308462613E0,3.391129555E0,4.247785480E0
9.657563208E0,4.115446889E-1,2.661319274E0,3.378350758E0,4.320329056E0
9.667567208E0,-6.382676619E-1,3.350408961E0,3.891871363E0,5.174870869E0
9.677571208E0,-1.294689759E0,4.250113601E0,3.990157503E0,5.971686872E0
9.687576208E0,-2.219288043E0,4.865080474E0,3.942393937E0,6.643547049E0
9.697580208E0,-2.963834039E0,5.345331591E0,3.764979474E0,7.178575936E0
9.707584208E0,-3.257401102E0,5.743688360E0,3.667520422E0,7.553232683E0
9.717589208E0,-3.045011811E0,5.931986831E0,3.438513052E0,7.502262105E0
9.727593208E0,-2.504363633E0,5.720219391E0,2.997061134E0,6.926407621E0
9.737597208E0,-1.664637538E0,5.324173442E0,2.638301125E0,6.170775785E0
9.747602208E0,-6.373968653E-1,4.949431822E0,2.125479262E0,5.424095521E0
9.757606208E0,2.105194613E-1,4.621929858E0,1.514502821E0,4.868292602E0
9.767610208E0,7.202690873E-1,4.350878668E0,8.312825695E-1,4.487757063E0
9.777615208E0,1.090049636E0,4.178417966E0,3.463890553E-3,4.318263182E0
9.787619208E0,1.322912076E0,3.806222225E0,-1.123331695E0,4.183216237E0
9.797623208E0,1.585706120E0,3.101990588E0,-2.235185307E0,4.139186256E0
9.807628208E0,1.618361212E0,2.010083292E0,-2.894287548E0,3.877683363E0
9.817632208E0,1.891432761E0,3.531957990E-1,-4.028499158E0,4.464422765E0
9.827636208E0,2.484848259E0,-1.835360886E0,-5.971086577E0,6.722863628E0
9.837641208E0,2.592043509E0,-4.646891622E0,-7.759694881E0,9.408780790E0
9.847645208E0,2.488880206E0,-7.538070790E0,-8.431325952E0,1.158034081E1
9.857649208E0,2.545138607E0,-9.483540595E0,-7.247110416E0,1.220392896E1
9.867654208E0,1.288718436E0,-9.211676642E0,-5.565527208E0,1.083932077E1
9.877658208E0,-4.069276909E-1,-6.710622532E0,-5.181538217E0,8.488014091E0
9.887662208E0,-1.610384148E0,-3.755912781E0,-5.223455737E0,6.632096784E0
9.897667208E0,-2.471370719E0,-7.505947942E-1,-5.312142795E0,5.906769579E0
9.907671208E0,-2.805459279E0,1.996765673E0,-4.635307703E0,5.774404941E0
9.917675208E0,-2.865228056E0,3.608938923E0,-3.498298493E0,5.785504672E0
9.927680208E0,-2.944948702E0,2.439943104E0,-2.015877298E0,4.323170883E0
9.937684208E0,-2.340308742E0,-1.676631786E0,-1.634825948E-1,2.883550886E0
9.947688208E0,-1.724085741E0,-5.952407647E0,1.749963179E0,6.439409877E0
9.957693208E0,-2.075703669E0,-9.202721631E0,4.145958903E0,1.030473708E1
9.967697208E0,-3.487335548E0,-1.161808304E1,5.163683159E0,1.318351192E1
9.977701208E0,-4.775917452E0,-1.105251111E1,4.563360053E0,1.287601042E1
9.987706208E0,-2.715771177E0,-5.015824032E0,3.399893654E0,6.640269623E0
9.997710208E0,-1.624673281E0,5.178814584E-1,4.825775783E0,5.118190733E0
1.000771421E1,-2.472814104E0,3.333000630E0,5.565845296E0,6.942790265E0
1.001771921E1,-2.305234950E0,4.992332259E0,5.223895447E0,7.584627427E0
1.002772321E1,-1.142739701E0,5.585129414E0,5.799686560E0,8.132397481E0
1.003772721E1,-1.776335145E-1,4.921080428E0,6.599007372E0,8.233801342E0
1.004773221E1,3.795057844E-1,4.053578158E0,6.388488312E0,7.575506811E0
1.005773621E1,9.958628328E-1,3.313533495E0,6.697903669E0,7.538777126E0
1.006774021E1,1.450226426E0,1.262589276E0,7.106198366E0,7.361748677E0
1.007774521E1,1.838689122E0,-1.479404032E0,7.750053992E0,8.101404252E0
1.008774921E1,2.525126511E0,-3.048718361E0,7.401676884E0,8.393793435E0
1.009775321E1,3.450294314E0,-3.755718069E0,6.333643184E0,8.131727064E0
1.010775821E1,4.092195801E0,-2.915977795E0,5.003603936E0,7.091194915E0
1.011776221E1,2.861823807E0,-8.855456078E-1,3.406360967E0,4.536245316E0
1.012776621E1,6.561670853E-1,9.841624081E-2,1.356011264E0,1.509638217E0
1.013777121E1,-3.993714803E-1,3.875230479E-1,-1.171041759E0,1.296537888E0
1.014777521E1,-7.021042733E-1,4.409630907E-1,-3.936034505E0,4.022408046E0
1.015777921E1,-1.437229381E0,8.817846787E-1,-5.734942095E0,5.977686287E0
1.016778421E1,-2.694016319E0,9.541077197E-1,-5.174687619E0,5.911466605E0
1.017778821E1,-3.297876990E0,9.252827007E-1,-3.025204368E0,4.569901770E0
1.018779221E1,-2.465377908E0,8.603388458E-1,-8.059790361E-1,2.732740998E0
1.019779721E1,-1.449805280E0,1.631408250E-1,9.139069426E-1,1.721562134E0
1.020780121E1,3.451012060E-2,4.349679404E-1,1.292242261E0,1.363920129E0
1.021780521E1,1.230098345E0,2.435920805E-1,5.178931163E-1,1.356721165E0
1.022781021E1,1.643613728E0,2.438932121E-1,-2.597327528E-1,1.681788063E0
1.023781421E1,1.507165150E0,1.006658401E0,3.493126631E-3,1.812434862E0
1.024781821E1,1.891535964E0,1.345166579E0,3.247976267E-1,2.343688317E0
1.025782321E1,2.198671491E0,1.564216141E0,-7.529218398E-2,2.699369811E0
1.026782721E1,1.306798904E0,1.093450377E0,-8.436527196E-1,1.901343476E0
1.027783121E1,4.855811468E-1,9.550485367E-1,-1.100466524E0,1.535881938E0
1.028783621E1,4.611231573E-1,1.370735283E0,-9.605905277E-1,1.736169331E0
1.029784021E1,2.828046415E-1,1.555800244E0,-1.033628683E0,1.889148252E0
1.030784421E1,-4.271866120E-2,1.198688564E0,-1.469347406E0,1.896750104E0
1.031784921E1,1.883073508E-1,3.929369849E-1,-2.232472199E0,2.274596942E0
1.032785321E1,1.048539156E-1,-5.409335214E-1,-2.704109198E0,2.759675701E0
1.033785721E1,-1.046846753E-1,-1.245237663E0,-3.025630630E0,3.273532714E0
1.034786221E1,1.351286421E-1,-1.411858166E0,-3.423619024E0,3.705775284E0
1.035786621E1,7.470138131E-1,-1.061054463E0,-3.835647168E0,4.049204293E0
1.036787121E1,1.613828889E0,-4.149213463E-1,-4.387970481E0,4.693707314E0
1.037787521E1,2.548870300E0,-6.395275176E-2,-4.821894109E0,5.454492878E0
1.038787921E1,3.326870117E0,-2.519600308E-1,-5.070807740E0,6.069978564E0
1.039788421E1,4.109086653E0,-6.348082298E-1,-5.248925623E0,6.696177627E0
1.040788821E1,4.409891108E0,-1.213462139E0,-5.066636336E0,6.825718549E0
1.041789221E1,4.437155505E0,-2.004217950E0,-4.511992849E0,6.638020641E0
1.042789721E1,4.907300879E0,-2.426391013E0,-3.610533459E0,6.557814203E0
1.043790121E1,5.705844596E0,-2.623822834E0,-2.791478879E0,6.872660558E0
1.044790521E1,6.105097743E0,-2.717724440E0,-2.033820794E0,6.985318290E0
1.045791021E1,6.044469134E0,-2.906894730E0,-2.286644313E0,7.086210997E0
1.046791421E1,5.057016497E0,-3.445517431E0,-2.754585872E0,6.710644496E0
1.047791821E1,2.607543016E0,-3.560918080E0,-2.517525131E0,5.081077734E0
1.048792321E1,4.100897920E-1,-2.646507692E0,-2.438454842E0,3.621910907E0
1.049792721E1,-8.507353058E-1,-1.860467661E0,-2.819481779E0,3.483470681E0
1.050793058E1,-7.458091405E-1,-1.510763234E0,-2.815827854E0,3.281390457E0
1.051793558E1,-1.997921960E-1,-1.651517994E0,-2.573328618E0,3.064220747E0
1.052793958E1,4.838594341E-1,-2.252724615E0,-1.377226862E0,2.684332687E0
1.053794358E1,3.226656588E-1,-3.537694108E0,-4.722216843E-1,3.583627499E0
1.054794858E1,-5.621444789E-1,-4.457130763E0,1.181724622E0,4.645265777E0
1.055795258E1,-1.852784420E0,-4.731064045E0,4.040850524E0,6.491860293E0
1.056795658E1,-3.721092027E0,-6.047242468E0,4.091453497E0,8.194855646E0
1.057796158E1,-4.824367773E0,-7.479848310E0,3.742043771E0,9.655337733E0
1.058796558E1,-5.298893005E0,-8.525197152E0,3.008083720E0,1.047882728E1
1.059796958E1,-5.443084758E0,-7.699993640E0,2.744200047E0,9.820779380E0
1.060797458E1,-5.169292393E0,-5.951167452E0,2.212122280E0,8.187274447E0
1.061797858E1,-3.884892418E0,-4.786287489E0,1.461134115E0,6.335286097E0
1.062798258E1,-2.026478738E0,-2.936527834E0,2.067288795E0,4.123529405E0
1.063798758E1,-5.687988296E-1,-1.604867738E0,7.742685623E-1,1.870461006E0
1.064799158E1,4.441207698E-1,5.062636256E-2,-6.305469252E-1,7.729137802E-1
1.065799558E1,1.680542403E0,1.170800269E0,3.123316553E-1,2.071846303E0
1.066800058E1,1.236000086E0,2.076129931E0,1.574359014E0,2.883854713E0
1.067800458E1,1.135765288E0,2.549220548E0,3.470174555E0,4.453156143E0
1.068800858E1,1.636560232E0,3.203329268E0,5.777254887E0,6.805609584E0
1.069801358E1,2.715169499E0,3.197217758E0,6.898119349E0,8.073313902E0
1.070801758E1,3.042738121E0,2.720518824E0,5.684256091E0,6.997874338E0
1.071802158E1,2.033002330E0,2.592118061E0,4.722683524E0,5.758117243E0
1.072802658E1,1.169694999E0,3.153289381E0,4.300960404E0,5.459824237E0
1.073803058E1,2.637351354E-1,2.891916502E0,4.111864958E0,5.033902135E0
1.074803458E1,-6.188179953E-1,2.006083796E0,3.759110624E0,4.305603394E0
1.075803958E1,-6.235067314E-1,2.130396186E0,4.045549346E0,4.614522517E0
1.076804358E1,-7.665172740E-1,2.357451755E0,4.529951987E0,5.163873789E0
1.077804758E1,1.526202131E-1,2.586495379E0,5.138956454E0,5.755182422E0
1.078805258E1,-8.535456969E-1,2.650390828E0,4.757579707E0,5.512501833E0
1.079805658E1,-2.610002063E0,3.249766100E0,3.768530488E0,5.619155854E0
1.080806058E1,-3.468181532E0,4.509315993E0,3.580127937E0,6.721571982E0
1.081806558E1,-3.667718935E0,5.443375949E0,3.938329245E0,7.654602613E0
1.082806958E1,-3.320748374E0,5.707989939E0,3.808055327E0,7.622978702E0
1.083807358E1,-2.568628919E0,5.566844001E0,3.335636555E0,6.979547111E0
1.084807858E1,-1.725760822E0,5.144517741E0,2.853626010E0,6.130864100E0
1.085808258E1,-1.081396342E0,4.862555062E0,2.130782102E0,5.417941689E0
1.086808658E1,-4.985754507E-1,4.806942778E0,1.070973095E0,4.949975730E0
1.087809158E1,-1.115541943E-1,4.658832806E0,9.837647974E-3,4.660178562E0
1.088809558E1,-1.006344095E-1,4.249054670E0,-7.504231784E-1,4.315985151E0
1.089809958E1,-3.243627766E-1,3.469110947E0,-1.282688787E0,3.712846953E0
1.090810458E1,-8.470549951E-1,2.476297583E0,-1.987528242E0,3.286308019E0
1.091810858E1,-1.163658334E0,1.348417631E0,-2.782208996E0,3.303485692E0
1.092811258E1,-1.521297286E0,-5.265674973E-1,-4.601664871E0,4.875134700E0
1.093811758E1,-6.975532392E-1,-3.191969882E0,-7.298723788E0,7.996663128E0
1.094812158E1,6.840548687E-1,-6.317079191E0,-9.026331600E0,1.103848190E1
1.095812558E1,2.197059706E0,-9.473442453E0,-9.265127209E0,1.343189359E1
1.096813058E1,3.571424357E0,-1.204074084E1,-7.848417023E0,1.480986704E1
1.097813458E1,4.135875087E0,-1.185394452E1,-5.852750627E0,1.385193681E1
1.098813858E1,2.724215434E0,-7.869350055E0,-6.280829962E0,1.043057261E1
1.099814358E1,9.947066921E-1,-2.810047882E0,-6.710179313E0,7.342500726E0
1.100814758E1,5.072492469E-2,1.182364308E0,-5.516985962E0,5.642489919E0
1.101815158E1,-6.497924508E-1,2.932848181E0,-3.355158654E0,4.503434054E0
1.102815658E1,-4.523957860E-1,1.897503925E0,-9.394040188E-1,2.165101153E0
1.103816058E1,-6.689835973E-1,-8.976154304E-1,1.712587484E0,2.046022582E0
1.104816458E1,-2.921105803E0,-4.390904614E0,4.411075169E0,6.875353561E0
1.105816958E1,-5.885748804E0,-7.708375624E0,6.890862955E0,1.189727221E1
1.106817358E1,-7.458769682E0,-9.522990004E0,7.885050999E0,1.443934254E1
1.107817758E1,-6.077239269E0,-6.319215179E0,4.930604957E0,1.005863723E1
1.108818258E1,-3.142252469E0,-5.303009444E-1,6.613972735E-1,3.254599211E0
1.109818658E1,-2.399947857E0,1.431152224E0,8.272123227E-1,2.914142521E0
1.110819058E1,-1.959553408E0,2.679261455E0,4.081990071E0,5.261267380E0
1.111819558E1,-5.367780880E-1,4.129105473E0,6.289929399E0,7.543265511E0
1.112819958E1,4.845673492E-1,4.861556357E0,7.444071536E0,8.904141551E0
1.113820358E1,7.141277567E-1,4.468807068E0,7.834754419E0,9.047850124E0
1.114820858E1,1.289985966E0,3.950995776E0,7.413014635E0,8.498659741E0
1.115821258E1,1.260564093E0,2.684089501E0,8.185780317E0,8.706340085E0
1.116821758E1,2.015700054E-1,-8.645751536E-2,8.533329459E0,8.536147669E0
1.117822158E1,3.512104500E-2,-2.499926766E0,7.750236425E0,8.143526998E0
1.118822558E1,1.133741201E0,-4.167491274E0,6.687570469E0,7.960964227E0
1.119823058E1,1.716322685E0,-4.043203443E0,6.010586858E0,7.444488701E0
1.120823458E1,6.163726167E-1,-2.402713882E0,3.776060532E0,4.517917922E0
1.121823858E1,1.454131635E-1,-7.156810695E-1,1.487114171E0,1.656759771E0
1.122824358E1,2.267333152E-1,6.543782759E-1,1.992777872E-1,7.206459329E-1
1.123824758E1,-3.575448118E-2,1.414534437E0,-7.309042954E-1,1.592610168E0
1.124825158E1,-5.183333385E-1,1.349460774E0,-1.365759888E0,1.988721675E0
1.125825658E1,-1.740979371E0,7.671459228E-1,-1.738611102E0,2.577264170E0
1.126826058E1,-2.161147716E0,1.384223056E-1,-2.595718192E0,3.380454572E0
1.127826458E1,-1.288208705E0,7.468747956E-1,-3.346131138E0,3.662498767E0
1.128826958E1,-6.570080611E-1,1.260848560E0,-3.583163812E0,3.854926923E0
1.129827358E1,-2.203054345E-1,8.359197038E-1,-4.038396447E0,4.129884030E0
1.130827758E1,8.084204679E-1,7.768949854E-1,-3.990233517E0,4.144764528E0
1.131828258E1,1.721489285E0,1.357042274E0,-2.920114115E0,3.651322437E0
1.132828658E1,1.846172534E0,1.426131805E0,-1.435413675E0,2.739090610E0
1.133829058E1,1.362475653E0,1.530966534E0,-7.822136859E-1,2.193640053E0
1.134829558E1,1.434509110E0,1.874272352E0,2.759231631E-2,2.360397122E0
1.135829958E1,1.935455424E0,1.552987733E0,7.869415983E-1,2.603274030E0
1.136830358E1,1.289603997E0,5.743322325E-1,6.383276689E-1,1.549321850E0
1.137830858E1,6.456105222E-1,4.332897896E-1,5.048404133E-1,9.270473726E-1
1.138831258E1,3.506189311E-1,6.465044153E-1,3.554478541E-2,7.363185625E-1
1.139831658E1,-8.522163324E-2,5.586441529E-1,-1.038136302E0,1.181978425E0
1.140832158E1,-5.403334874E-1,6.529416150E-1,-2.182342849E0,2.341135054E0
1.141832558E1,-1.003237195E0,6.358537120E-1,-3.512667441E0,3.708048997E0
1.142832958E1,-9.359326731E-1,5.256173247E-1,-5.148693822E0,5.259400309E0
1.143833458E1,-7.478084497E-2,5.724482596E-1,-6.384436192E0,6.410484746E0
1.144833858E1,1.075022731E0,9.098934138E-1,-6.333102316E0,6.487816647E0
1.145834258E1,2.449761895E0,8.930885160E-1,-5.398047749E0,5.994819425E0
1.146834758E1,3.694681031E0,1.116052204E-1,-4.182608666E0,5.581875930E0
1.147835158E1,4.343454459E0,-7.152448672E-1,-3.586255234E0,5.677886795E0
1.148835558E1,4.273104561E0,-1.076418607E0,-3.570670651E0,5.671665408E0
1.149836058E1,4.082127481E0,-1.559861135E0,-3.315757191E0,5.485542569E0
1.150836458E1,4.254161044E0,-2.308146279E0,-2.782435575E0,5.582774683E0
1.151836871E1,4.526474648E0,-2.771086714E0,-2.501695549E0,5.867399333E0
1.152837371E1,5.066425252E0,-2.840070995E0,-2.359394785E0,6.269083812E0
1.153837771E1,5.306593203E0,-3.155797836E0,-2.071228649E0,6.512217711E0
1.154838171E1,3.535705763E0,-4.319408369E0,-2.089586713E0,5.960274871E0
1.155838671E1,1.449476667E0,-5.118123994E0,-2.622247594E0,5.930628826E0
1.156839071E1,-4.234568924E-1,-4.730427868E0,-2.238141659E0,5.250289672E0
1.157839471E1,-1.430681523E0,-3.813238884E0,-2.235569469E0,4.646010251E0
1.158839971E1,-1.458710736E0,-3.101423993E0,-2.708967649E0,4.368658092E0
1.159840371E1,-9.856629498E-1,-2.772742646E0,-2.492608391E0,3.856517836E0
1.160840771E1,-5.821297504E-1,-2.948454984E0,-1.529983032E0,3.372404175E0
1.161841271E1,-1.045390796E0,-3.532156795E0,3.629425228E-1,3.701445774E0
1.162841671E1,-3.216262431E0,-4.357003042E0,2.265917687E0,5.870451644E0
1.163842071E1,-5.747754514E0,-4.693687474E0,3.812259475E0,8.342703780E0
1.164842571E1,-6.633940977E0,-5.705724728E0,3.687380490E0,9.495327400E0
1.165842971E1,-6.140428374E0,-7.141297447E0,2.675773591E0,9.790952669E0
1.166843371E1,-5.676298615E0,-7.327302639E0,2.342521036E0,9.560184870E0
1.167843871E1,-4.821107658E0,-6.370264295E0,1.979249754E0,8.230478469E0
1.168844271E1,-4.145602515E0,-5.274104903E0,1.866683836E0,6.963239999E0
1.169844671E1,-2.595444542E0,-3.712037614E0,1.573844897E0,4.795054054E0
1.170845171E1,4.652712635E-2,-2.292977432E0,7.121654311E-1,2.401476604E0
1.171845571E1,2.500286955E0,-7.401534212E-1,-2.418395238E-1,2.618730283E0
1.172845971E1,2.859471472E0,1.717473418E-1,-3.797626233E-1,2.889687509E0
1.173846471E1,2.114430363E0,4.740945840E-1,2.101325291E0,3.018468058E0
1.174846871E1,1.328968330E0,1.284854888E0,3.740304516E0,4.172156131E0
1.175847271E1,3.362204914E-1,2.163070427E0,5.218753991E0,5.659267718E0
1.176847771E1,-7.925094632E-1,2.769463527E0,4.841865566E0,5.633973876E0
1.177848171E1,-1.625564251E0,3.054465589E0,4.846922823E0,5.955239711E0
1.178848571E1,-1.635503786E0,2.979058726E0,4.845644037E0,5.918608761E0
1.179849071E1,-1.259790506E0,3.440681784E0,5.417794966E0,6.540479000E0
1.180849471E1,-3.883344587E-1,3.382667465E0,5.494375364E0,6.463853608E0
1.181849871E1,-1.380406651E-1,2.789142916E0,4.740060571E0,5.501504126E0
1.182850371E1,2.258864374E-1,2.493011849E0,4.273784884E0,4.952915303E0
1.183850771E1,8.202843223E-1,2.651168507E0,4.194750994E0,5.029661691E0
1.184851171E1,3.627614418E-2,2.897380140E0,3.949265585E0,4.898247268E0
1.185851671E1,-1.086540357E0,3.634426351E0,3.484046490E0,5.150553833E0
1.186852071E1,-2.435192680E0,4.634397876E0,3.435763691E0,6.261970872E0
1.187852471E1,-3.177731912E0,5.523466431E0,3.390779307E0,7.218313226E0
1.188852971E1,-3.486024310E0,6.006786752E0,3.402922220E0,7.733933812E0
1.189853371E1,-3.275744110E0,6.062777935E0,3.330493929E0,7.653754998E0
1.190853771E1,-2.619320478E0,5.697454426E0,2.960094744E0,6.934261864E0
1.191854271E1,-1.964119791E0,5.183035689E0,2.400495156E0,6.040198879E0
1.192854671E1,-8.943504913E-1,4.626156226E0,1.768573697E0,5.032796156E0
1.193855071E1,1.071885261E-1,4.068389155E0,9.717198256E-1,4.184198743E0
1.194855571E1,4.996263050E-1,3.756999194E0,3.145533049E-1,3.803105727E0
1.195855971E1,7.613935782E-1,3.666465000E0,-4.040864557E-1,3.766426906E0
1.196856371E1,5.858378718E-1,3.353630192E0,-1.154678619E0,3.594902528E0
1.197856871E1,5.504867754E-1,2.867058234E0,-2.318202613E0,3.727884381E0
1.198857271E1,1.292115705E-1,1.668156831E0,-3.313766799E0,3.712208674E0
1.199857671E1,2.029997227E-1,-1.404378408E-1,-4.640848232E0,4.647408309E0
1.200858171E1,9.233414251E-1,-2.999340963E0,-6.706670984E0,7.404595957E0
1.201858571E1,2.012426125E0,-6.870694739E0,-8.852023762E0,1.138484211E1
1.202858971E1,3.193136109E0,-1.087752850E1,-9.906038178E0,1.505477788E1
1.203859471E1,3.504856438E0,-1.306122732E1,-8.064305581E0,1.574524380E1
1.204859871E1,2.400111140E0,-1.119338807E1,-6.467891747E0,1.314861566E1
1.205860271E1,1.321130576E0,-6.940409337E0,-6.078682362E0,9.320142006E0
1.206860771E1,4.606551243E-1,-1.959907749E0,-5.783651741E0,6.124056579E0
1.207861171E1,7.273917999E-2,2.831232344E0,-4.650212548E0,5.444781384E0
1.208861671E1,-1.181420055E-1,6.161611667E0,-3.210673955E0,6.948945468E0
1.209862071E1,-2.754877282E-1,6.076676767E0,-1.274277568E0,6.214955940E0
1.210862471E1,-7.682392059E-1,2.974887908E0,1.875437410E0,3.599640957E0
1.211862971E1,-2.376247045E0,-6.325763476E-1,4.177833537E0,4.847782578E0
1.212863371E1,-4.875707496E0,-4.234306238E0,4.271877230E0,7.742790710E0
1.213863771E1,-7.023653222E0,-8.777313888E0,3.840268807E0,1.187941952E1
1.214864271E1,-8.171354651E0,-1.351733119E1,4.761551720E0,1.649732263E1
1.215864671E1,-6.654971657E0,-1.381486559E1,5.025182501E0,1.613665449E1
1.216865071E1,-2.098848411E0,-7.678535528E0,4.515952875E0,9.151989012E0
1.217865571E1,-1.511326175E-1,-2.045047887E0,4.417473192E0,4.870229084E0
1.218865971E1,-1.717843619E-1,1.365718957E0,3.834729448E0,4.074291113E0
1.219866371E1,-7.646842450E-2,4.275572378E0,4.730535165E0,6.376858907E0
1.220866871E1,-5.488040929E-1,5.349476098E0,6.678653466E0,8.574525792E0
1.221867271E1,-1.699224623E-1,6.080021374E0,6.581296155E0,8.961528477E0
1.222867671E1,8.792885023E-1,6.909763495E0,6.352726157E0,9.427359622E0
1.223868171E1,1.672186732E0,6.790734649E0,6.926065532E0,9.842797839E0
1.224868571E1,1.304744777E0,5.148253527E0,7.417335727E0,9.122704785E0
1.225868971E1,7.050859147E-1,1.705603570E0,8.004681523E0,8.214691471E0
1.226869471E1,9.359545270E-1,-1.786506815E0,8.822653198E0,9.050239054E0
1.227869871E1,8.529280847E-1,-4.012517256E0,8.512972963E0,9.449787813E0
1.228870271E1,-2.792636774E-1,-4.545323732E0,6.512605405E0,7.946822333E0
1.229870771E1,-1.874320738E0,-3.253335825E0,3.715426075E0,5.282202490E0
1.230871171E1,-2.548155186E0,-1.504765161E0,1.718045275E0,3.421855141E0
1.231871571E1,-2.826881723E0,-2.471074265E-1,-6.743710756E-1,2.916693111E0
1.232872071E1,-3.078424263E0,5.467614412E-1,-4.066948986E0,5.129884801E0
1.233872471E1,-3.296125749E0,1.060446353E0,-7.214857174E0,8.002696762E0
1.234872871E1,-2.923408144E0,1.571298873E0,-8.358093084E0,8.992942529E0
1.235873371E1,-1.533037325E0,2.173089631E0,-7.641680528E0,8.091217663E0
1.236873771E1,-1.885845089E-1,2.368104798E0,-5.841953158E0,6.306496742E0
1.237874171E1,1.166647942E0,1.761192464E0,-2.669258623E0,3.404086943E0
1.238874671E1,3.269027705E0,3.791714698E-1,1.235597359E0,3.515254468E0
1.239875071E1,4.275824685E0,-2.360573584E-1,2.403218497E0,4.910586417E0
1.240875471E1,4.723865831E0,1.848240548E-1,2.731605145E0,5.459920785E0
1.241875971E1,4.629335942E0,8.399975520E-1,2.662611508E0,5.406093524E0
1.242876371E1,4.084665172E0,1.345782291E0,2.809964851E0,5.137267952E0
1.243876771E1,2.860737102E0,8.515627599E-1,2.127489535E0,3.665404155E0
1.244877271E1,1.327280823E0,4.943154252E-1,9.785490811E-1,1.721505280E0
1.245877671E1,-9.800870815E-2,2.303440440E-1,-4.651869357E-2,2.546135784E-1
1.246878071E1,-9.679181852E-1,-1.671993774E-1,-4.822326656E-1,1.094243843E0
1.247878571E1,-1.452450415E0,-3.867588168E-1,-7.788432777E-1,1.692864862E0
1.248878971E1,-2.152606980E0,-6.935154444E-1,-1.205149738E0,2.562628801E0
1.249879371E1,-2.114178641E0,-1.102364457E0,-1.927418865E0,3.065925994E0
1.250879871E1,-1.631391732E0,-1.392292213E0,-2.559470717E0,3.339282399E0
1.251880338E1,-9.496557958E-1,-1.347837587E0,-2.936537189E0,3.367753399E0
1.252880737E1,-3.485675085E-2,-8.321342164E-1,-2.700630689E0,2.826140207E0
1.253881238E1,5.420116383E-1,-2.929952055E-1,-2.068498292E0,2.158311374E0
1.254881637E1,1.109421023E0,-3.192082733E-1,-2.076770348E0,2.376064815E0
1.255882038E1,1.709322545E0,-6.394620287E-1,-2.406193122E0,3.020010031E0
1.256882538E1,2.568909000E0,-1.097601315E0,-2.777776514E0,3.939551302E0
1.257882937E1,3.408523852E0,-1.486206098E0,-3.023967097E0,4.792830105E0
1.258883338E1,3.745997950E0,-1.618204653E0,-3.327683757E0,5.265412247E0
1.259883838E1,3.560899076E0,-1.510146353E0,-3.790007896E0,5.415228905E0
1.260884237E1,3.320551031E0,-1.392365888E0,-4.166158694E0,5.506507076E0
1.261884638E1,3.535870654E0,-1.384633530E0,-4.205996359E0,5.666568333E0
1.262885137E1,3.835177344E0,-1.458572157E0,-3.962583788E0,5.704216710E0
1.263885538E1,4.114450012E0,-1.640582532E0,-3.968704069E0,5.947337381E0
1.264885938E1,4.201879334E0,-1.460649673E0,-4.081521417E0,6.037226556E0
1.265886437E1,3.700055500E0,-1.152385633E0,-4.271895064E0,5.767797741E0
1.266886838E1,2.561828022E0,-8.444402665E-1,-3.521511354E0,4.435885977E0
1.267887238E1,2.430009270E-1,-1.171833472E0,-3.090466311E0,3.314094923E0
1.268887737E1,-1.352264368E0,-1.417058680E0,-3.107232617E0,3.673087089E0
1.269888138E1,-1.966680725E0,-1.840529240E0,-3.212456771E0,4.192285709E0
1.270888538E1,-1.879073501E0,-2.330252847E0,-3.782376110E0,4.823625669E0
1.271889037E1,-9.106486548E-1,-2.317617014E0,-4.243115069E0,4.919822668E0
1.272889438E1,4.330447912E-1,-2.088960477E0,-3.726496024E0,4.293955785E0
1.273889838E1,1.274061221E0,-2.009500324E0,-2.298583742E0,3.308294238E0
1.274890338E1,1.971699098E0,-1.853442816E0,-2.264942372E-1,2.715538114E0
1.275890738E1,2.159672463E0,-1.635129418E0,2.384680485E0,3.608951978E0
1.276891137E1,1.032444841E0,-2.329595035E0,3.972643923E0,4.719624467E0
1.277891638E1,-8.006044216E-2,-3.442786197E0,5.495298640E0,6.485174910E0
1.278892038E1,-1.199041298E0,-4.503367621E0,6.401487257E0,7.918147452E0
1.279892437E1,-2.990491495E0,-5.495316766E0,4.718829331E0,7.836382839E0
1.280892938E1,-3.258807650E0,-6.165191917E0,1.083619015E0,7.057170031E0
1.281893338E1,-3.010656495E0,-5.769260573E0,-1.716530700E0,6.730148419E0
1.282893737E1,-2.313175177E0,-4.654263207E0,-3.620248607E0,6.333967586E0
1.283894238E1,-1.416925071E0,-3.725946386E0,-4.511574480E0,6.020353596E0
1.284894638E1,-1.010634361E0,-2.844938217E0,-1.554469710E0,3.395796129E0
1.285895037E1,6.113535860E-1,-1.614824377E0,2.113768166E0,2.729363815E0
1.286895538E1,2.605182787E0,1.601119673E-1,4.876429627E0,5.531019717E0
1.287895937E1,3.715987116E0,1.010421084E0,4.556531675E0,5.965860534E0
1.288896338E1,4.724023705E0,1.385037573E0,3.385143760E0,5.974439499E0
1.289896838E1,3.355751269E0,1.693454225E0,3.973882070E0,5.469971892E0
1.290897237E1,9.278783528E-1,1.742545694E0,3.646697026E0,4.146784649E0
1.291897638E1,3.178133469E-1,2.040437357E0,2.804082260E0,3.482422613E0
1.292898138E1,3.422022296E-1,2.675710441E0,3.117636276E0,4.122642924E0
1.293898537E1,8.128887639E-1,2.989265041E0,3.083568643E0,4.370914001E0
1.294898938E1,8.173827877E-1,2.372685506E0,3.100077087E0,3.988512138E0
1.295899438E1,4.469975999E-1,2.481482309E0,3.166162026E0,4.047486044E0
1.296899837E1,-2.133772149E-1,3.084543082E0,2.856012844E0,4.209126420E0
1.297900238E1,-1.099020873E0,3.615115921E0,3.205127286E0,4.954770522E0
1.298900737E1,-1.767930503E0,4.129842222E0,4.212339419E0,6.158325943E0
1.299901138E1,-2.482888857E0,4.583771514E0,4.347777305E0,6.788141562E0
1.300901538E1,-3.150706666E0,5.014337670E0,4.311754948E0,7.325419135E0
1.301902037E1,-3.303187432E0,5.204763358E0,4.308369995E0,7.520815171E0
1.302902438E1,-3.068631346E0,4.979395879E0,4.186862515E0,7.193100818E0
1.303902838E1,-2.420555345E0,4.568856436E0,3.805599496E0,6.419978570E0
1.304903337E1,-1.706830608E0,4.092448109E0,3.115466959E0,5.419182283E0
1.305903738E1,-1.367033557E0,3.750351495E0,2.157588954E0,4.537522140E0
1.306904138E1,-1.041909144E0,3.731096029E0,1.165405628E0,4.045345785E0
1.307904638E1,-8.232381164E-1,3.572813655E0,2.946786189E-1,3.678254192E0
1.308905038E1,-1.078423544E0,3.196212621E0,-4.367612815E-1,3.401401605E0
1.309905437E1,-1.596719497E0,2.657002274E0,-1.193071729E0,3.321534945E0
1.310905938E1,-1.537090177E0,1.592176357E0,-2.258562182E0,3.162083948E0
1.311906338E1,-1.419063836E0,-3.017806470E-2,-3.497600043E0,3.774633618E0
1.312906737E1,-1.343949335E0,-2.041456527E0,-5.028412503E0,5.590945972E0
1.313907238E1,-2.549965630E-1,-4.409849008E0,-7.328997163E0,8.557218644E0
1.314907638E1,1.687609202E0,-7.304231865E0,-8.890073934E0,1.162898287E1
1.315908037E1,4.100319631E0,-9.995139220E0,-8.093256900E0,1.349874944E1
1.316908538E1,5.446069762E0,-1.035051778E1,-5.653723100E0,1.299066893E1
1.317908938E1,4.789849613E0,-7.045965613E0,-4.892775811E0,9.824843300E0
1.318909337E1,2.196908556E0,-2.713161857E0,-5.001201900E0,6.099153623E0
1.319909838E1,-1.266058137E-1,9.731801677E-1,-4.961367159E0,5.057496689E0
1.320910237E1,-1.303056686E0,4.023702394E0,-4.095710270E0,5.887527520E0
1.321910738E1,-2.039315569E0,5.916928496E0,-2.293840481E0,6.665624875E0
1.322911138E1,-1.809899478E0,5.343641161E0,-2.892699444E-1,5.649240133E0
1.323911537E1,-1.134504994E0,2.385652292E0,2.366301516E0,3.546522424E0
1.324912038E1,-1.482907830E0,-8.379024947E-1,4.062061883E0,4.404706910E0
1.325912438E1,-3.180250892E0,-3.705116265E0,4.156578908E0,6.412412221E0
1.326912837E1,-4.719037492E0,-7.183215551E0,3.818998683E0,9.404926978E0
1.327913338E1,-5.247840965E0,-1.082437497E1,4.708366324E0,1.291803552E1
1.328913738E1,-4.120538718E0,-1.138110475E1,5.676283997E0,1.336894104E1
1.329914137E1,-1.434012682E0,-6.521841082E0,5.536195235E0,8.674114430E0
1.330914638E1,2.812996048E-1,-1.772301005E0,5.576541023E0,5.858155862E0
1.331915037E1,3.710252751E-1,5.157378691E-1,5.837994593E0,5.872463382E0
1.332915438E1,1.032564782E0,2.733753996E0,6.168315500E0,6.825519544E0
1.333915938E1,9.345338729E-1,3.430162643E0,6.337768979E0,7.266820828E0
1.334916337E1,1.267022050E0,3.628421845E0,5.631890767E0,6.818283037E0
1.335916738E1,2.263998924E0,4.072599151E0,4.973560942E0,6.815281609E0
1.336917238E1,2.203450128E0,3.997171238E0,5.691133001E0,7.295311180E0
1.337917637E1,1.654731039E0,2.682635298E0,6.036405823E0,6.809762273E0
1.338918038E1,1.691726958E0,8.260893649E-1,5.902597556E0,6.195564675E0
1.339918537E1,2.322135888E0,-8.309045470E-1,5.835041749E0,6.334858299E0
1.340918938E1,2.348935724E0,-1.935514920E0,5.330277350E0,6.138043147E0
1.341919338E1,2.006741023E0,-2.029923479E0,4.596558205E0,5.410725108E0
1.342919837E1,7.331494070E-1,-1.665397530E0,3.601831048E0,4.035374070E0
1.343920238E1,-5.996480450E-1,-1.316086621E0,2.339210197E0,2.750193833E0
1.344920638E1,-1.714732097E0,-5.968112683E-1,1.281519052E0,2.222336818E0
1.345921137E1,-2.997663397E0,1.534566665E-1,5.158647537E-1,3.045595383E0
1.346921538E1,-3.640706553E0,6.223174077E-1,-3.951279366E-1,3.714586013E0
1.347921938E1,-3.941813601E0,3.349653500E-1,-1.224946071E0,4.141326977E0
1.348922437E1,-2.726561337E0,6.119298291E-1,-2.359800582E0,3.657492806E0
1.349922838E1,-7.855935227E-1,1.109010987E0,-2.992937678E0,3.287056205E0
1.350923238E1,9.279600676E-2,1.168777133E0,-2.961828151E0,3.185447705E0
1.351923700E1,9.558379839E-1,1.245749295E0,-2.503639748E0,2.955288403E0
1.352924100E1,1.879548149E0,1.354657779E0,-1.548712249E0,2.786809748E0
1.353924500E1,2.464060822E0,1.047112947E0,-9.824175990E-1,2.851874050E0
1.354925000E1,2.003414688E0,6.167222071E-1,-7.826667720E-1,2.237539714E0
1.355925400E1,1.023318507E0,9.442838126E-1,-7.662933256E-1,1.589357778E0
1.356925800E1,8.152087198E-1,1.463616550E0,-5.686855763E-1,1.769220717E0
1.357926300E1,8.194371338E-1,1.516575952E0,-4.208246952E-1,1.774421950E0
1.358926700E1,7.345692571E-1,8.928353316E-1,-5.924447139E-1,1.299129579E0
1.359927100E1,5.586751797E-1,2.265339983E-1,-7.584734056E-1,9.688743550E-1
1.360927600E1,-5.098147128E-2,-2.848523730E-1,-1.215680646E0,1.249647718E0
1.361928000E1,-4.169104960E-1,-4.492421633E-1,-2.187228929E0,2.271476011E0
1.362928400E1,-3.890938293E-1,-4.160375798E-1,-3.534213846E0,3.579825245E0
1.363928900E1,-3.401714185E-1,-2.745127416E-1,-4.958489159E0,4.977719215E0
1.364929300E1,-1.278135560E-2,2.827830434E-1,-5.828097596E0,5.834967969E0
1.365929700E1,6.050854439E-1,7.417415249E-1,-5.553432242E0,5.635327724E0
1.366930200E1,1.875573650E0,4.738560176E-1,-3.988692191E0,4.433055542E0
1.367930600E1,2.758453805E0,-1.758690441E-1,-3.067936404E0,4.129434719E0
1.368931000E1,3.266745830E0,-1.079480209E0,-3.615595978E0,4.990935795E0
1.369931500E1,3.481583642E0,-1.245480323E0,-4.376457313E0,5.729400013E0
1.370931900E1,3.726298973E0,-1.104601017E0,-4.406205023E0,5.875380000E0
1.371932300E1,5.034046295E0,-1.862659197E0,-3.545438161E0,6.432826217E0
1.372932800E1,6.296251409E0,-2.318987601E0,-2.388249625E0,7.122093904E0
1.373933200E1,6.569414613E0,-2.692850384E0,-2.358290246E0,7.481322372E0
1.374933600E1,6.071882050E0,-2.869122301E0,-3.032838492E0,7.368698917E0
1.375934100E1,5.240091065E0,-2.638994604E0,-3.770903288E0,6.974421732E0
1.376934500E1,4.022347010E0,-2.264178141E0,-3.590087500E0,5.847606893E0
1.377934900E1,2.319499525E0,-2.649669281E0,-3.191124959E0,4.752273545E0
1.378935400E1,1.832741919E0,-2.766797197E0,-2.453032097E0,4.126920903E0
1.379935800E1,1.355679580E0,-2.341246782E0,-1.288839766E0,2.996733482E0
1.380936200E1,2.073128848E-1,-1.748819756E0,-1.280861825E-1,1.765716637E0
1.381936700E1,-1.444965394E0,-2.449926056E0,-5.873392906E-1,2.904312330E0
1.382937100E1,-2.122467946E0,-3.671326960E0,-2.053069682E0,4.711539764E0
1.383937500E1,-2.488023882E0,-4.319979057E0,-8.045043683E-1,5.049723673E0
1.384938000E1,-3.144095803E0,-4.544039683E0,2.471408726E0,6.053221965E0
1.385938400E1,-3.604396806E0,-5.910560879E0,4.964426422E0,8.518916359E0
1.386938800E1,-3.955156655E0,-6.964465367E0,6.055678246E0,1.004083069E1
1.387939300E1,-3.829182487E0,-7.554310847E0,4.563993891E0,9.620825907E0
1.388939700E1,-3.249054202E0,-7.803235003E0,2.985367287E0,8.964331964E0
1.389940100E1,-2.299631271E0,-6.522594788E0,2.342919817E0,7.302179128E0
1.390940600E1,-8.920724161E-1,-4.074271454E0,3.301403446E0,5.319280571E0
1.391941000E1,1.135125968E0,-2.352357076E0,2.273903961E0,3.463052700E0
1.392941400E1,2.169532038E0,-1.643687403E0,-5.586476612E-1,2.778608421E0
1.393941900E1,3.029558497E0,-4.106885469E-1,-2.164993576E0,3.746209678E0
1.394942300E1,3.628435879E0,1.080595273E0,6.953406528E-2,3.786564149E0
1.395942700E1,4.278257419E0,1.332855266E0,2.508099127E0,5.135226474E0
1.396943200E1,3.912817843E0,1.234579359E0,3.450686370E0,5.361116124E0
1.397943600E1,2.736787240E0,1.790484091E0,4.072738607E0,5.223316708E0
1.398944000E1,1.188999363E0,2.163693155E0,3.961942641E0,4.668219901E0
1.399944500E1,7.961000191E-1,2.520055221E0,4.294044317E0,5.042149359E0
1.400944900E1,8.688121922E-1,2.632243409E0,5.042110190E0,5.753817443E0
1.401945300E1,5.425793664E-1,2.945555350E0,5.665628031E0,6.408590304E0
1.402945800E1,4.975797064E-1,3.087538610E0,6.038366979E0,6.800173234E0
1.403946200E1,1.154614884E0,2.456080835E0,5.870394015E0,6.467379260E0
1.404946600E1,1.217706341E0,1.915742560E0,5.282184001E0,5.749290922E0
1.405947100E1,1.469689176E0,1.732307219E0,4.876363846E0,5.379572375E0
1.406947500E1,1.187549326E0,1.653117208E0,4.900046824E0,5.305989896E0
1.407947900E1,-4.473669978E-2,2.008263053E0,5.243145651E0,5.614774989E0
1.408948400E1,-9.021470956E-1,2.548921171E0,5.035002315E0,5.715078025E0
1.409948800E1,-1.965993678E0,2.991678772E0,5.204252896E0,6.316606780E0
1.410949200E1,-2.774262045E0,3.466993085E0,5.135656285E0,6.789074784E0
1.411949700E1,-3.295515885E0,3.840746525E0,4.706855403E0,6.911312943E0
1.412950100E1,-3.177885986E0,4.159101105E0,4.027125354E0,6.604151721E0
1.413950500E1,-2.490299618E0,4.224267154E0,3.368212855E0,5.949023702E0
1.414951000E1,-1.998169590E0,3.864563404E0,2.534465684E0,5.034982454E0
1.415951400E1,-1.602357675E0,3.159793823E0,1.558029787E0,3.870310574E0
1.416951800E1,-1.384277435E0,2.315796776E0,6.454551324E-1,2.774121672E0
1.417952300E1,-1.143313605E0,1.643089818E0,-1.078691420E-1,2.004631113E0
1.418952700E1,-6.969275871E-1,5.089317101E-1,-8.157213745E-1,1.187485119E0
1.419953200E1,-4.934532167E-1,-3.852478963E-1,-1.022382149E0,1.198823288E0
1.420953600E1,-1.832749447E-1,7.454983610E-1,-1.717205323E0,1.880997510E0
1.421954000E1,-1.227597491E0,1.034967695E0,-1.072527578E0,1.930924425E0
1.422954500E1,-2.159221205E0,-1.892500463E0,-3.053053194E0,4.191053330E0
1.423954900E1,2.684415776E-1,-2.082345521E0,-4.600950633E0,5.057367940E0
1.424955300E1,1.637425328E0,-4.484106892E-1,-4.967866924E0,5.249946249E0
1.425955800E1,8.494479682E-1,-3.233046572E0,-6.069405169E0,6.929057013E0
1.426956200E1,2.169983882E0,-5.031753602E0,-6.497769849E0,8.499905139E0
1.427956600E1,5.081974168E0,-6.023655970E0,-5.294674823E0,9.494444384E0
1.428957100E1,6.781043474E0,-3.484095021E0,-3.677995709E0,8.464580388E0
1.429957500E1,3.469045750E0,-3.689452744E0,-4.036814483E0,6.476280656E0
1.430957900E1,3.371230311E0,-3.340531844E0,-6.747474024E0,8.249409222E0
1.431958400E1,3.453554429E0,-2.090812290E-1,-6.905131330E0,7.723444300E0
1.432958800E1,3.334407178E0,2.580811885E0,-4.489287525E0,6.158941768E0
1.433959200E1,2.377536795E0,3.332380825E-1,-1.373715317E0,2.766012040E0
1.434959700E1,1.614797188E0,-1.647696839E0,3.348612696E-2,2.307291952E0
1.435960100E1,-6.362932033E-1,-5.485460699E0,2.225734744E0,5.953909915E0
1.436960500E1,-3.027828890E0,-8.850643820E0,4.772230198E0,1.050122968E1
1.437961000E1,-4.907138911E0,-1.132678411E1,7.658954372E0,1.452706552E1
1.438961400E1,-7.053479869E0,-1.212181950E1,1.021275271E1,1.734907502E1
1.439961800E1,-3.534195427E0,-4.757047318E0,8.043057969E0,9.990536421E0
1.440962300E1,4.222053690E-1,2.562033552E0,4.560982283E0,5.248317128E0
1.441962700E1,1.256074016E0,5.961504745E0,2.758431293E0,6.687765244E0
1.442963100E1,3.937119602E-1,6.953822849E0,2.870617142E0,7.533332868E0
1.443963600E1,-1.481032189E0,5.438474228E0,5.011212333E0,7.542062538E0
1.444964000E1,-5.686097087E-1,5.307197220E0,6.264855369E0,8.230314218E0
1.445964400E1,5.743063585E-1,3.381307987E0,6.446964562E0,7.302494338E0
1.446964900E1,2.841618168E0,1.853814114E0,6.317467446E0,7.170900607E0
1.447965300E1,5.024518842E0,1.495863944E0,7.005012884E0,8.749491644E0
1.448965700E1,4.432846692E0,-1.757074270E0,7.863575345E0,9.196371947E0
1.449966200E1,3.949407088E0,-4.399021134E0,7.243260609E0,9.349546916E0
1.450966600E1,4.463792496E0,-4.586763534E0,4.630184080E0,7.899521997E0
1.451967008E1,3.350318329E0,-3.433089759E0,2.622762734E0,5.467140254E0
1.452967508E1,-4.948995620E-2,-1.780550256E0,-1.362379320E-1,1.786440384E0
1.453967908E1,-1.715699226E0,-1.370805450E0,-2.953939673E0,3.680827489E0
1.454968308E1,-2.332937889E0,-1.132544861E0,-2.307898503E0,3.471549014E0
1.455968808E1,-2.317110207E0,-5.781621587E-1,-6.664398392E-1,2.479397760E0
1.456969208E1,-2.588132599E0,2.038924098E-2,-6.996847685E-1,2.681120073E0
1.457969608E1,-2.739223482E0,9.177479786E-1,-1.580571388E0,3.292994465E0
1.458970108E1,-2.182472073E0,1.379416645E0,-2.441285040E0,3.553286827E0
1.459970508E1,-2.275867894E-1,1.708963965E0,-1.199600730E0,2.100332233E0
1.460970908E1,1.523291771E-1,1.810354684E0,-1.317606313E0,2.244253697E0
1.461971408E1,-3.141518936E-1,-9.636398506E-1,-3.574734465E0,3.715645257E0
1.462971808E1,-1.350911030E0,-3.866120517E-2,-2.000244182E0,2.414007474E0
1.463972208E1,-6.466542502E-1,1.713523039E0,-5.343010247E-1,1.907826121E0
1.464972708E1,7.925595300E-1,2.152512109E0,2.407836628E-1,2.306390201E0
1.465973108E1,1.721164911E0,2.280199512E0,7.617676538E-1,2.956688760E0
1.466973608E1,1.964568711E0,2.451047552E0,1.001904030E0,3.297116317E0
1.467974008E1,1.613634323E0,2.268143722E0,7.886543208E-1,2.893141426E0
1.468974408E1,9.705645619E-1,1.748988740E0,6.744336408E-1,2.110880840E0
1.469974908E1,2.132168184E-1,1.202027324E0,8.718759871E-1,1.500166270E0
1.470975308E1,-1.321947286E-1,8.552418280E-1,4.283301812E-1,9.655986613E-1
1.471975708E1,8.776670694E-2,8.415470642E-1,-3.368914960E-1,9.107141901E-1
1.472976208E1,6.470341730E-1,1.214929206E0,-9.046980896E-1,1.647174802E0
1.473976608E1,9.912821241E-1,1.476523694E0,-1.272034137E0,2.186511677E0
1.474977008E1,1.029899914E0,1.099609249E0,-1.705030396E0,2.275294044E0
1.475977508E1,9.201057221E-1,3.852373713E-1,-2.086971838E0,2.313104802E0
1.476977908E1,1.008988078E0,3.201145917E-1,-2.386198568E0,2.610454730E0
1.477978308E1,1.486566871E0,2.975168574E-1,-2.891720036E0,3.265033248E0
1.478978808E1,2.005198381E0,-8.882622242E-2,-3.241591693E0,3.812692926E0
1.479979208E1,2.228654552E0,-7.895401740E-1,-3.439692435E0,4.173938050E0
1.480979608E1,2.160836936E0,-1.148528810E0,-3.572499075E0,4.330252225E0
1.481980108E1,2.187720680E0,-1.447853041E0,-3.738343652E0,4.567013627E0
1.482980508E1,2.641826996E0,-1.717900849E0,-3.860444040E0,4.983318311E0
1.483980908E1,3.260580525E0,-1.717718416E0,-3.619134128E0,5.165275768E0
1.484981408E1,3.424728241E0,-1.878908610E0,-3.294226574E0,5.109891369E0
1.485981808E1,3.966033353E0,-2.073244330E0,-3.466321240E0,5.660666529E0
1.486982208E1,4.038338560E0,-2.515396160E0,-4.000325811E0,6.215947455E0
1.487982708E1,3.732868320E0,-2.912616815E0,-4.218330476E0,6.341289664E0
1.488983108E1,3.094297991E0,-3.058380300E0,-3.636009777E0,5.670003282E0
1.489983508E1,2.396511010E0,-3.156829285E0,-2.908756776E0,4.916269128E0
1.490984008E1,1.940655061E0,-2.773256616E0,-2.404262810E0,4.151815745E0
1.491984408E1,1.541176211E0,-2.803937541E0,-2.343240682E0,3.965862673E0
1.492984808E1,1.355287524E0,-3.381444812E0,-1.761191880E0,4.046327981E0
1.493985308E1,1.060860336E0,-4.102709388E0,-3.601241648E-1,4.252921159E0
1.494985708E1,5.136599149E-1,-4.562226863E0,1.620230713E0,4.868563240E0
1.495986108E1,-8.428259964E-1,-4.803129224E0,3.361759576E0,5.922991934E0
1.496986608E1,-2.466393861E0,-5.037032468E0,3.766341290E0,6.755747293E0
1.497987008E1,-4.350942403E0,-5.638781126E0,3.315557216E0,7.856174135E0
1.498987408E1,-5.065196167E0,-6.347359582E0,3.119192512E0,8.699111898E0
1.499987908E1,-4.253757001E0,-6.714741896E0,2.215669055E0,8.251751130E0
1.500988308E1,-2.651509400E0,-5.724956220E0,1.123670103E0,6.408452257E0
1.501988808E1,-1.326743318E0,-3.907715271E0,1.251709946E0,4.312454551E0
1.502989208E1,-6.096513154E-1,-2.643135602E0,1.507551651E0,3.103313152E0
1.503989608E1,2.611999471E-1,-2.608456936E0,1.381740328E0,2.963356093E0
1.504990108E1,1.000650825E0,-3.893524663E0,4.327895603E-1,4.043283712E0
1.505990508E1,1.097915384E0,-4.122006369E0,-9.720292895E-1,4.375065215E0
1.506990908E1,1.527140408E0,-2.420115196E0,8.312755528E-1,2.979955442E0
1.507991408E1,1.848871317E0,-6.854521340E-1,4.312524734E0,4.741944681E0
1.508991808E1,1.936423431E0,1.110858707E0,4.916193910E0,5.399324525E0
1.509992208E1,9.413702913E-1,2.453199327E0,4.916862831E0,5.574935431E0
1.510992708E1,-1.695735662E-1,2.986547840E0,5.054268306E0,5.873146627E0
1.511993108E1,-2.379042745E-1,3.692728354E0,5.100809219E0,6.301674049E0
1.512993508E1,4.565160996E-1,4.230797909E0,5.117978983E0,6.655957239E0
1.513994008E1,1.180534056E0,3.892299086E0,5.648354772E0,6.960428468E0
1.514994408E1,1.088240362E0,3.253593103E0,4.825422903E0,5.920712910E0
1.515994808E1,5.269146757E-1,2.600555593E0,4.249294699E0,5.009693993E0
1.516995308E1,6.803002985E-1,2.995366611E0,4.144017043E0,5.158285265E0
1.517995708E1,1.532628020E0,3.145475162E0,4.640526928E0,5.811837301E0
1.518996108E1,1.754659809E0,2.663245931E0,5.210999998E0,6.109519696E0
1.519996608E1,1.106235022E0,2.416158385E0,5.171806111E0,5.814564104E0
1.520997008E1,5.518762931E-2,2.930114023E0,4.812218136E0,5.634363962E0
1.521997408E1,-9.987110116E-1,3.447897248E0,4.419231450E0,5.693419511E0
1.522997908E1,-1.337982690E0,3.732553740E0,4.202866929E0,5.778083205E0
1.523998308E1,-8.643367334E-1,3.749258650E0,4.220920208E0,5.711408391E0
1.524998708E1,-4.090141967E-1,3.673464117E0,3.174063953E0,4.871992735E0
1.525999208E1,-3.783636770E-1,3.190926154E0,2.107373359E0,3.842680219E0
1.526999608E1,-3.368854295E-1,2.681482227E0,9.251300883E-1,2.856519632E0
1.528000008E1,-2.956001401E-1,2.379138494E0,-2.507248065E-1,2.410506657E0
1.529000508E1,-5.212593949E-1,2.093475112E0,-1.068834476E0,2.407645434E0
1.530000908E1,-9.999956448E-1,1.794177777E0,-1.384289714E0,2.476958457E0
1.531001308E1,-1.321105140E0,1.137161822E0,-1.392714382E0,2.231167666E0
1.532001808E1,-6.054638319E-1,3.475953358E-1,-1.997504761E0,2.115994858E0
1.533002208E1,-4.956143841E-2,-4.690098453E-1,-2.262942624E0,2.311565680E0
1.534002708E1,7.395426795E-2,-6.065252477E-1,-2.665668140E0,2.734799580E0
1.535003108E1,2.661102927E-1,-7.574260962E-1,-3.325265641E0,3.420804081E0
1.536003508E1,4.242456087E-1,-1.658206624E0,-4.487408523E0,4.802756375E0
1.537004008E1,1.115425529E0,-3.211733471E0,-6.002426484E0,6.898444005E0
1.538004408E1,2.293479123E0,-4.715477123E0,-6.237126119E0,8.148466923E0
1.539004808E1,3.237816145E0,-5.357280377E0,-5.449057689E0,8.299164784E0
1.540005308E1,3.598149641E0,-4.414705705E0,-5.136504132E0,7.669418621E0
1.541005708E1,2.620427940E0,-3.063897148E0,-5.859381369E0,7.112415789E0
1.542006108E1,9.923941183E-1,-1.763292199E0,-5.890037152E0,6.227887532E0
1.543006608E1,2.945811166E-1,-6.047704983E-1,-4.755609195E0,4.802951614E0
1.544007008E1,1.793437520E-1,-6.113252270E-1,-2.463808223E0,2.544844528E0
1.545007408E1,-1.239049847E-1,-1.936363351E0,-6.657987651E-1,2.051375994E0
1.546007908E1,-1.332114132E-1,-3.109669152E0,5.271703452E-1,3.156849076E0
1.547008308E1,-7.307737564E-1,-4.146629578E0,1.926689425E0,4.630410272E0
1.548008708E1,-2.075917823E0,-5.768341976E0,3.473491681E0,7.046158415E0
1.549009208E1,-2.111362037E0,-5.963403921E0,4.779731883E0,7.928800215E0
1.550009608E1,-1.836500363E0,-3.945915130E0,5.099245673E0,6.704124569E0
1.551010008E1,-5.250152077E-1,-6.493292052E-1,3.304153392E0,3.408034481E0
1.552010521E1,1.025013688E0,1.642394584E0,1.701969818E0,2.577753729E0
1.553010921E1,1.545696255E0,2.865962466E0,2.569348419E0,4.147827029E0
1.554011321E1,1.360567122E0,3.210600280E0,3.762068145E0,5.129547132E0
1.555011821E1,1.226153813E0,2.971952021E0,4.682201203E0,5.679697183E0
1.556012221E1,1.496051932E0,2.147165415E0,5.376501929E0,5.979570527E0
1.557012621E1,1.983696269E0,7.696888769E-1,5.124796836E0,5.548965171E0
1.558013121E1,2.739909945E0,-3.302595109E-1,4.908505991E0,5.631128565E0
1.559013521E1,3.576313214E0,-8.587484032E-1,5.754174757E0,6.829201429E0
1.560013921E1,3.897157246E0,-1.243035017E0,6.448017061E0,7.636091583E0
1.561014421E1,3.536038177E0,-1.181843321E0,5.841469009E0,6.929868672E0
1.562014821E1,3.280703718E0,-5.258009273E-1,4.896236193E0,5.917145626E0
1.563015321E1,2.171654139E0,-1.474819815E-1,3.318696002E0,3.968825492E0
1.564015721E1,9.582547112E-1,-1.077928358E-1,1.670220898E0,1.928602923E0
1.565016121E1,1.767872031E-1,-3.432666421E-2,5.788989810E-1,6.062640227E-1
1.566016621E1,-1.083370070E0,1.679770571E-1,-2.667183300E-1,1.128293254E0
1.567017021E1,-2.156669626E0,3.283749533E-1,-1.092059909E0,2.439600137E0
1.568017421E1,-2.631205528E0,4.189009613E-1,-1.914616971E0,3.280926499E0
1.569017921E1,-2.407909426E0,6.016603643E-1,-2.239613403E0,3.343036224E0
1.570018321E1,-1.303394655E0,1.080561360E0,-1.845388277E0,2.504377841E0
1.571018721E1,-3.378540207E-1,1.212016123E0,-6.123730481E-1,1.399331687E0
1.572019221E1,1.199437885E-1,9.810984671E-1,4.026655823E-1,1.067277043E0
1.573019621E1,1.005885545E0,8.235838330E-1,6.204737806E-1,1.440515107E0
1.574020021E1,1.724922916E0,5.740211606E-1,1.201249060E0,2.178958160E0
1.575020521E1,1.747031970E0,4.883559430E-1,1.883744842E0,2.615168610E0
1.576020921E1,1.625892572E0,4.431365007E-1,1.489143155E0,2.248876152E0
1.577021321E1,1.103715164E0,2.644239557E-1,5.005397131E-1,1.240422185E0
1.578021821E1,1.955108647E-1,2.924192548E-3,-7.395190714E-1,7.649323539E-1
1.579022221E1,-1.912983844E-1,1.918652719E-1,-1.658769127E0,1.680750538E0
1.580022621E1,5.365887478E-2,7.403978348E-1,-1.577651289E0,1.743574437E0
1.581023121E1,1.950862107E-1,1.116252179E0,-9.278699474E-1,1.464588746E0
1.582023521E1,5.186769721E-1,1.163797059E0,-8.173932396E-1,1.513796916E0
1.583023921E1,6.744326176E-1,7.803758329E-1,-1.037009543E0,1.462612248E0
1.584024421E1,9.485538881E-1,3.083178341E-1,-1.154957238E0,1.526021162E0
1.585024821E1,1.079907933E0,-2.610343248E-1,-1.472330655E0,1.844477601E0
1.586025221E1,1.235791194E0,-6.232132012E-1,-1.868916888E0,2.325602052E0
1.587025721E1,1.301878180E0,-7.098285913E-1,-2.442100142E0,2.857025819E0
1.588026121E1,1.260585289E0,-4.199838656E-1,-3.235637473E0,3.497829552E0
1.589026621E1,1.073031315E0,1.825500727E-2,-4.330563102E0,4.461558722E0
1.590027021E1,9.437464535E-1,9.426822603E-2,-5.429962437E0,5.512171616E0
1.591027421E1,1.028429924E0,-1.849450922E-1,-6.256144772E0,6.342808542E0
1.592027921E1,1.371170170E0,-5.253027445E-1,-6.159061697E0,6.331673680E0
1.593028321E1,1.494743910E0,-8.706966037E-1,-5.021733229E0,5.311325310E0
1.594028721E1,1.822202312E0,-1.245052891E0,-3.844926115E0,4.433287132E0
1.595029221E1,2.643049648E0,-1.570485526E0,-2.812928220E0,4.167097479E0
1.596029621E1,3.233547678E0,-1.992306587E0,-2.007981948E0,4.296173603E0
1.597030021E1,3.755015818E0,-2.525314207E0,-2.119572551E0,4.996993440E0
1.598030521E1,4.123739776E0,-2.904947022E0,-2.653681641E0,5.699646760E0
1.599030921E1,4.075492353E0,-3.514712797E0,-3.380486453E0,6.355354642E0
1.600031321E1,3.442066990E0,-4.060797715E0,-3.507481545E0,6.374976865E0
1.601031821E1,2.143306253E0,-3.943313704E0,-2.941354126E0,5.366101821E0
1.602032221E1,1.093995776E0,-3.009531491E0,-2.469703093E0,4.043951028E0
1.603032621E1,7.994188987E-1,-2.426261204E0,-2.045414654E0,3.272542607E0
1.604033121E1,8.314680724E-1,-2.358569158E0,-5.491126066E-1,2.560412522E0
1.605033521E1,1.043941417E0,-2.323535566E0,6.819355454E-1,2.636980716E0
1.606033921E1,5.603622110E-1,-3.576444776E0,2.252343961E0,4.263568501E0
1.607034421E1,-1.147706252E0,-4.015149672E0,4.175077452E0,5.905076482E0
1.608034821E1,-3.037586432E0,-4.410692761E0,4.764012521E0,7.167772127E0
1.609035221E1,-4.240861844E0,-5.120242440E0,4.253528960E0,7.892673846E0
1.610035721E1,-4.707831888E0,-5.875053077E0,2.851685904E0,8.050592664E0
1.611036121E1,-4.350539822E0,-5.999214608E0,1.240434176E0,7.513750701E0
1.612036521E1,-3.823169210E0,-5.169119900E0,1.216426751E0,6.543402585E0
1.613037021E1,-3.109434971E0,-3.980976205E0,2.312715439E0,5.555664684E0
1.614037421E1,-2.404429309E0,-3.174900105E0,2.283288742E0,4.590716552E0
1.615037921E1,-1.619478907E0,-2.796224479E0,9.241957033E-1,3.360910735E0
1.616038321E1,-9.004655094E-1,-2.211273118E0,1.868606400E-1,2.394887019E0
1.617038721E1,-9.935691163E-2,-1.556883733E0,4.476783255E-1,1.623014059E0
1.618039221E1,6.107178475E-1,-5.254904401E-1,1.470249924E0,1.676529549E0
1.619039621E1,9.314696395E-1,7.283174872E-1,2.581879879E0,2.839751003E0
1.620040021E1,1.164061207E0,1.465302887E0,3.249520225E0,3.749871029E0
1.621040521E1,1.511103835E0,2.429887063E0,4.680607252E0,5.485970305E0
1.622040921E1,1.194337943E0,3.043832427E0,5.224410002E0,6.163263652E0
1.623041321E1,1.292818942E0,3.621325665E0,5.028741117E0,6.330372627E0
1.624041821E1,1.663272506E0,3.618227225E0,4.715581203E0,6.172094439E0
1.625042221E1,2.213659075E0,3.268567237E0,4.540594212E0,6.016711234E0
1.626042621E1,3.363229566E0,2.748553884E0,4.343027904E0,6.142292157E0
1.627043121E1,4.483149411E0,2.097801467E0,3.761595398E0,6.216831956E0
1.628043521E1,4.227909384E0,1.397250068E0,3.780457346E0,5.841179954E0
1.629043921E1,2.514258584E0,1.396295217E0,4.166985783E0,5.063092639E0
1.630044421E1,8.462422322E-1,2.192559105E0,3.633593123E0,4.327405727E0
1.631044821E1,-3.050980648E-1,2.894204518E0,3.189891196E0,4.317975274E0
1.632045221E1,-1.039307791E0,3.318114789E0,3.083071922E0,4.647082839E0
1.633045721E1,-2.258012690E0,3.184307106E0,3.509553798E0,5.249323853E0
1.634046121E1,-2.693899082E0,3.324785877E0,3.534397448E0,5.550068352E0
1.635046521E1,-2.412945633E0,3.382527716E0,3.455147796E0,5.403873302E0
1.636047021E1,-1.972405880E0,3.154718440E0,3.145050654E0,4.871752971E0
1.637047421E1,-1.506434833E0,3.022718716E0,2.782612161E0,4.375969011E0
1.638047821E1,-1.183798483E0,2.866822007E0,2.159739853E0,3.779487200E0
1.639048321E1,-1.140769116E0,2.702163829E0,1.352785209E0,3.230026526E0
1.640048721E1,-1.306594105E0,2.698133928E0,7.832380450E-1,3.098479738E0
1.641049221E1,-1.277011872E0,2.814792897E0,3.549473324E-1,3.111238657E0
1.642049621E1,-1.189741447E0,2.666235613E0,-4.068814248E-2,2.919923386E0
1.643050021E1,-8.566650403E-1,2.175974062E0,-6.190634322E-1,2.419086117E0
1.644050521E1,-1.383992091E-1,2.018824294E0,-1.060295495E0,2.284520170E0
1.645050921E1,-3.973394997E-1,5.830884379E-1,-1.393446746E0,1.561910573E0
1.646051321E1,4.810638803E-1,-9.094817698E-2,-2.095303244E0,2.151741088E0
1.647051821E1,1.510778730E0,-5.339355737E-1,-3.264372737E0,3.636436296E0
1.648052221E1,1.663169010E0,-1.666417285E0,-4.625486427E0,5.190202540E0
1.649052621E1,1.651879645E0,-3.159316691E0,-5.581798840E0,6.623176473E0
1.650053121E1,1.796973916E0,-4.777505556E0,-6.293534793E0,8.103224961E0
1.651053521E1,2.162702052E0,-5.972252512E0,-6.301406314E0,8.947223132E0
1.652053950E1,2.278399446E0,-5.980196539E0,-5.870893952E0,8.684540891E0
1.653054450E1,1.727790099E0,-4.744902651E0,-5.886609514E0,7.755741832E0
1.654054850E1,8.375398211E-1,-2.731506912E0,-5.607072845E0,6.293001577E0
1.655055250E1,-1.683340296E-2,-6.902836883E-1,-5.155561377E0,5.201594760E0
1.656055750E1,-2.845728761E-1,1.057285933E0,-4.244102371E0,4.383062879E0
1.657056150E1,-1.268900030E0,1.739350190E0,-2.927040142E0,3.633594689E0
1.658056550E1,-2.160134101E0,1.466405672E0,-1.340971494E0,2.935085940E0
