"Time (s)","Linear Acceleration x (m/s^2)","Linear Acceleration y (m/s^2)","Linear Acceleration z (m/s^2)","Absolute acceleration (m/s^2)"
3.878749849E-4,-1.522491872E0,-2.200791107E-1,-1.985496334E0,2.511695047E0
1.044287498E-2,-1.987789905E0,-5.237820299E-1,-2.685863546E0,3.382235845E0
2.049787500E-2,-1.813289694E0,-1.151805004E-1,-2.304439144E0,2.934574216E0
3.055287499E-2,-1.299982512E0,6.900283112E-1,-9.977115762E-1,1.778066926E0
4.060787498E-2,-1.067308353E0,1.279232498E0,3.163624334E-1,1.695779494E0
5.066287500E-2,-9.128199452E-1,1.538243979E0,1.028674922E0,2.063396929E0
6.071787499E-2,-6.669863346E-1,1.520540218E0,9.792963552E-1,1.927675978E0
7.077287498E-2,-7.706931362E-1,1.269810295E0,1.224418652E-1,1.490428833E0
8.082787498E-2,-1.396080624E0,1.287347410E0,-1.087401432E0,2.188320438E0
9.088287500E-2,-1.937902338E0,1.327902967E0,-2.057402469E0,3.122770674E0
1.009378750E-1,-2.623269687E0,1.984627584E0,-1.724917508E0,3.714247018E0
1.109928750E-1,-2.458363588E0,2.366690795E0,-1.185669154E0,3.612559784E0
1.210488750E-1,-1.441284718E0,2.037211449E0,-1.117337422E0,2.734222932E0
1.311038750E-1,-8.875188969E-1,1.817324127E0,-1.402277504E0,2.461044285E0
1.411588750E-1,-4.012105027E-1,1.489293428E0,-2.782216305E0,3.181146389E0
1.512138750E-1,3.852783018E-1,6.391671829E-1,-4.537341113E0,4.598308214E0
1.612688750E-1,1.372642645E0,-3.760287376E-1,-4.894765618E0,5.097477406E0
1.713238750E-1,1.641268118E0,-1.255809283E0,-3.361242097E0,3.945727617E0
1.813788750E-1,5.677365001E-1,-1.418129159E0,-1.099214562E0,1.881937220E0
1.914338750E-1,-1.113841299E0,-6.502634440E-1,8.003522605E-1,1.517909328E0
2.014888750E-1,-3.217454094E0,4.881488784E-1,2.550368357E-1,3.264252435E0
2.115438750E-1,-5.022716730E0,9.842635649E-1,-3.092709303E-1,5.127582922E0
2.215988750E-1,-3.752874860E0,5.025105172E-1,5.672068155E-1,3.828617258E0
2.316538750E-1,-2.088701445E0,2.085406904E-1,1.955471467E0,2.868803166E0
2.417088750E-1,-1.739679535E0,4.739931713E-1,4.733169043E0,5.064982093E0
2.517638750E-1,-1.340329616E0,3.458358356E-1,4.784083089E0,4.980314940E0
2.618188750E-1,-4.653256974E-1,3.476772334E-1,3.375616307E0,3.425228885E0
2.718738750E-1,7.705805042E-1,9.586841161E-1,2.302212524E0,2.610182380E0
2.819272083E-1,1.112706135E0,1.866888489E0,2.770632970E-1,2.190924837E0
2.919822083E-1,1.421720957E0,2.927609076E0,-1.459524668E0,3.566847017E0
3.020372083E-1,1.698051745E0,3.146772074E0,-1.772146053E0,3.990746277E0
3.120922083E-1,1.402379099E0,2.826103166E0,-1.084460868E0,3.336102759E0
3.221472083E-1,-1.071096764E0,2.272124361E0,-1.386797585E0,2.869321336E0
3.322022083E-1,-8.816586712E0,7.388084154E-1,-2.331442171E0,9.149517021E0
3.422572083E-1,-5.671926067E0,1.183322228E0,-3.241460130E0,6.639131011E0
3.523122083E-1,-2.225458171E0,8.185821247E-1,-4.179462864E0,4.805273207E0
3.623672083E-1,-1.891032665E0,6.247606668E-1,-4.336902654E0,4.772321768E0
3.724222083E-1,-2.287012687E0,1.169447954E0,-3.731407685E0,4.530059477E0
3.824772083E-1,-1.967342776E0,1.557192466E0,-3.719715593E0,4.486821822E0
3.925332083E-1,-1.491051686E0,1.574625647E0,-3.724094573E0,4.309473453E0
4.025882083E-1,-1.228111461E0,1.278427044E0,-3.318366219E0,3.762205182E0
4.126432083E-1,-1.187856890E0,4.395369548E-1,-2.878619934E0,3.144940293E0
4.226982083E-1,-1.851923710E0,-2.392856061E-1,-2.467482905E0,3.094406391E0
4.327532083E-1,-2.062456217E0,-6.887683824E-1,-2.359470214E0,3.208617650E0
4.428082083E-1,-2.253783838E0,-1.004507503E0,-2.076789497E0,3.225156047E0
4.528632083E-1,-2.465662960E0,-1.112871904E0,-9.297365248E-1,2.860487320E0
4.629182083E-1,-2.420643200E0,-1.362718751E0,9.738771558E-2,2.779568359E0
4.729732083E-1,-1.589624632E0,-1.459711487E0,7.880503035E-1,2.297539418E0
4.830282083E-1,-9.958966005E-1,-1.364024142E0,-4.691092479E-1,1.752836383E0
4.930832083E-1,-1.281774867E0,-1.526315074E0,-1.546501417E0,2.522746747E0
5.031382083E-1,-1.737778751E0,-1.663487537E0,-2.890754660E0,3.760788253E0
5.131932083E-1,-2.091587631E0,-1.169585510E0,-4.032033507E0,4.690411846E0
5.232482083E-1,-1.783817680E0,-4.318545905E-1,-3.619932858E0,4.058622648E0
5.333032083E-1,-1.367754958E0,-1.991134804E-1,-3.160865618E0,3.449850904E0
5.433582083E-1,-9.036439097E-1,-5.429452559E-1,-2.840611278E0,3.029923151E0
5.534132083E-1,-1.132024459E0,-7.933750704E-1,-2.695593313E0,3.029380578E0
5.634682083E-1,-1.641906341E0,-9.087955990E-1,-2.251726495E0,2.931217850E0
5.735232083E-1,-2.038509530E0,-1.228391835E0,-2.181738832E0,3.228691985E0
5.835782083E-1,-2.197632734E0,-1.579535261E0,-2.180748898E0,3.475656345E0
5.936332083E-1,-1.726808497E0,-1.367447833E0,-1.218925193E0,2.517451050E0
6.036882083E-1,-1.312956022E0,-3.099717191E-1,4.141933680E-2,1.349685720E0
6.137432083E-1,-1.414482397E0,9.870114639E-1,-6.403437889E-1,1.839834843E0
6.237982083E-1,-1.300307910E0,7.719410782E-1,-2.286133266E0,2.741003283E0
6.338532083E-1,-1.392155389E0,-9.497433579E-1,-2.339024840E0,2.882905873E0
6.439082083E-1,-1.722359936E0,-1.672697633E0,-1.215739630E0,2.691182633E0
6.539642083E-1,-1.540578187E0,-1.698155094E0,-7.652157569E-1,2.417160944E0
6.640192083E-1,-7.532383204E-1,-1.235370195E0,-7.616986567E-1,1.635142908E0
6.740742083E-1,-4.067399222E-1,-8.629478735E-1,-8.885838211E-1,1.303724512E0
6.841292083E-1,-4.628591591E-1,-1.124338074E0,-1.066926237E0,1.617623659E0
6.941842083E-1,-5.906664294E-1,-1.780728304E0,-1.365854613E0,2.320654853E0
7.042392083E-1,-1.150318642E0,-2.471195887E0,-2.029918801E0,3.398619195E0
7.142942083E-1,-1.347005528E0,-3.030880845E0,-2.695440701E0,4.273881510E0
7.243492083E-1,-1.041499620E0,-3.240469612E0,-3.017769048E0,4.548878410E0
7.344042083E-1,-5.437700057E-1,-3.276936065E0,-3.444128718E0,4.784978413E0
7.444592083E-1,1.084354448E-1,-3.081721800E0,-3.262308378E0,4.489033688E0
7.545142083E-1,7.616641581E-1,-3.357381473E0,-2.513137965E0,4.262394289E0
7.645692083E-1,1.422404789E0,-4.096864218E0,-1.597676833E0,4.621699154E0
7.746242083E-1,1.855000514E0,-4.814653209E0,-6.608920741E-1,5.201796879E0
7.846792083E-1,2.301717265E0,-5.373874190E0,2.021847305E-1,5.849555953E0
7.947342083E-1,2.786861917E0,-6.027123953E0,7.894027644E-1,6.687000764E0
8.047892083E-1,3.255219213E0,-6.692566915E0,8.621093827E-1,7.492004847E0
8.148442083E-1,3.595557570E0,-7.286736411E0,7.887329659E-1,8.163740654E0
8.248992083E-1,3.848107585E0,-7.572973405E0,6.585596198E-1,8.520068013E0
8.349542083E-1,4.106144627E0,-7.484969301E0,4.352714109E-1,8.548371210E0
8.450092083E-1,4.331213313E0,-7.241712851E0,3.518219957E-1,8.445448034E0
8.550642083E-1,4.576735559E0,-6.919108515E0,3.547189987E-1,8.303396690E0
8.651192083E-1,4.673488267E0,-6.557296259E0,5.162492082E-1,8.068837590E0
8.751742083E-1,4.629454640E0,-6.278814427E0,9.094507796E-1,7.853818281E0
8.852292083E-1,4.542652139E0,-6.158035510E0,1.616233556E0,7.821080533E0
8.952842083E-1,4.635163277E0,-6.147545021E0,2.472059521E0,8.086292516E0
9.053402083E-1,4.875125991E0,-6.104510683E0,3.696151899E0,8.642536836E0
9.153952083E-1,4.990385721E0,-5.634996808E0,4.919915662E0,8.992369476E0
9.254502083E-1,5.072929695E0,-4.666779757E0,5.779856898E0,8.995565282E0
9.355052083E-1,5.082191100E0,-3.631157758E0,6.077705877E0,8.715072103E0
9.455602083E-1,4.983325793E0,-2.538570430E0,6.009093479E0,8.208963407E0
9.556152083E-1,4.912560450E0,-1.419105790E0,5.506557453E0,7.514604873E0
9.656702083E-1,4.717869803E0,-3.518924546E-1,4.911349491E0,6.819345834E0
9.757252083E-1,4.386358404E0,4.553618592E-1,4.409157282E0,6.236037396E0
9.857802083E-1,4.109871642E0,9.994821131E-1,3.973761325E0,5.803515183E0
9.958352083E-1,3.881105177E0,1.408861468E0,3.586991984E0,5.469403946E0
1.005890208E0,3.716266905E0,1.744035564E0,3.130550728E0,5.162620228E0
1.015945208E0,3.516485673E0,1.900919284E0,2.832045107E0,4.898943263E0
1.026000208E0,3.195895118E0,2.092800928E0,2.734078517E0,4.697738463E0
1.036055208E0,2.849181542E0,2.392604046E0,2.016576040E0,4.231898924E0
1.046110208E0,2.325549932E0,2.248094205E0,-5.094252882E-1,3.274389128E0
1.056165208E0,2.025463223E0,2.820360616E0,2.008327373E0,4.011273377E0
1.066220208E0,2.241630108E0,2.717350802E0,3.739027777E0,5.137044835E0
1.076275208E0,1.919187739E0,1.935447092E0,-1.568055131E-1,2.730169408E0
1.086330208E0,6.404133707E-1,1.796499122E0,-2.751641214E-2,1.907431659E0
1.096385208E0,6.118503070E-1,2.064782240E0,9.729479601E-1,2.363115365E0
1.106440208E0,8.341263628E-1,2.024865053E0,5.127889721E-1,2.249177139E0
1.116495208E0,5.684271294E-1,1.956266103E0,7.049563989E-2,2.038395473E0
1.126550208E0,4.194277954E-1,2.063325698E0,1.742072654E-1,2.112718813E0
1.136606208E0,5.471479422E-1,2.037752316E0,2.860329258E-1,2.129229956E0
1.146661208E0,5.769406754E-1,1.944534835E0,3.114753306E-1,2.052094819E0
1.156716208E0,3.890643740E-1,1.910954860E0,3.216664428E-1,1.976509262E0
1.166771208E0,2.411514527E-1,1.919782401E0,8.097998992E-2,1.936562999E0
1.176826208E0,2.372484362E-1,2.020738673E0,-8.475012839E-2,2.036382623E0
1.186881208E0,1.310244083E-1,2.089468015E0,-2.622248179E-1,2.109930292E0
1.196936208E0,1.634127206E-1,2.160563725E0,-4.570109202E-1,2.214406988E0
1.206991208E0,2.515507257E-1,2.235779384E0,-6.005764367E-1,2.328664698E0
1.217046208E0,3.403412801E-1,2.238598326E0,-5.888907762E-1,2.339646768E0
1.227101208E0,5.330643386E-1,2.148010923E0,-4.671896070E-1,2.261940459E0
1.237156208E0,6.366957110E-1,2.155067927E0,-2.618074729E-1,2.262353278E0
1.247211208E0,7.768932313E-1,2.373821036E0,-9.854444101E-2,2.499660059E0
1.257266208E0,1.044747748E0,2.645301996E0,-3.352968872E-2,2.844335555E0
1.267321208E0,1.380621171E0,2.864506509E0,1.614076372E-1,3.183954269E0
1.277376375E0,1.899507181E0,3.091413560E0,3.446524322E-1,3.644688002E0
1.287431375E0,2.453382930E0,3.452465678E0,5.115793294E-1,4.266183361E0
1.297486375E0,2.582683579E0,3.682416789E0,7.290998447E-1,4.556537552E0
1.307541375E0,2.864411784E0,3.791510630E0,7.937092388E-1,4.817715443E0
1.317596375E0,3.190634378E0,3.899898713E0,8.273365029E-1,5.106255320E0
1.327651375E0,3.335833606E0,4.093249762E0,7.347955444E-1,5.331266637E0
1.337706375E0,3.506410335E0,4.281331301E0,6.739506608E-1,5.574847140E0
1.347761375E0,3.820689406E0,4.356844583E0,7.114903700E-1,5.838320032E0
1.357817375E0,4.317692211E0,4.310994810E0,8.283674401E-1,6.157380523E0
1.367872375E0,4.890511184E0,4.282963259E0,9.229268575E-1,6.566023751E0
1.377927375E0,5.269411928E0,4.100657600E0,1.174881626E0,6.779560579E0
1.387982375E0,5.666056048E0,3.874057528E0,1.445441650E0,7.014400504E0
1.398037375E0,6.015575117E0,3.625650850E0,1.658025945E0,7.216753987E0
1.408092375E0,6.222978780E0,3.485960868E0,1.806776188E0,7.358113091E0
1.418147375E0,6.366980499E0,3.499528747E0,1.911245466E0,7.512522969E0
1.428202375E0,6.354140013E0,3.665376248E0,1.970804620E0,7.595666475E0
1.438257375E0,6.495096502E0,3.716392035E0,2.000425445E0,7.745937664E0
1.448312375E0,6.750105271E0,3.636990355E0,2.052861521E0,7.937623098E0
1.458367375E0,7.062200407E0,3.425536911E0,2.033133016E0,8.108181521E0
1.468422375E0,7.433837155E0,3.178833527E0,1.923553855E0,8.310654419E0
1.478477375E0,7.790288683E0,2.992354125E0,1.728567924E0,8.522366341E0
1.488532375E0,8.048387706E0,2.696538808E0,1.559350088E0,8.630147096E0
1.498587375E0,7.952875777E0,2.384212123E0,1.586627349E0,8.452815325E0
1.508642375E0,7.633380405E0,2.375855867E0,1.701017599E0,8.173533409E0
1.518697375E0,7.205806269E0,2.542610856E0,1.856499156E0,7.863529937E0
1.528752375E0,6.779983374E0,2.789904808E0,1.892540808E0,7.571885769E0
1.538807375E0,6.473061270E0,2.972726777E0,1.800300981E0,7.347020506E0
1.548862375E0,6.260468788E0,2.896970251E0,1.602039440E0,7.081838494E0
1.558917375E0,6.141864451E0,2.516804754E0,1.446851413E0,6.793392681E0
1.568972375E0,6.067277952E0,1.866323063E0,1.370180383E0,6.494029397E0
1.579027375E0,5.977947700E0,8.254859322E-1,1.323084569E0,6.178012504E0
1.589083375E0,5.658213177E0,-4.539327997E-1,1.489666480E0,5.868606101E0
1.599138375E0,5.117169144E0,-1.559719048E0,1.626841575E0,5.591489700E0
1.609193375E0,4.577871088E0,-2.475988850E0,1.625673301E0,5.452544192E0
1.619248375E0,4.015514538E0,-3.153199918E0,1.607221243E0,5.352586931E0
1.629303375E0,3.347261989E0,-3.517284987E0,1.545457689E0,5.095477992E0
1.639358375E0,2.655159232E0,-3.624262721E0,1.477282662E0,4.729430714E0
1.649413375E0,2.003794026E0,-3.573207757E0,1.449661000E0,4.345632427E0
1.659468375E0,1.423064940E0,-3.403522144E0,1.489911479E0,3.978556651E0
1.669523375E0,9.205680907E-1,-3.181588735E0,1.524984248E0,3.646303532E0
1.679578375E0,4.379272163E-1,-2.933931670E0,1.610837161E0,3.375578714E0
1.689633375E0,-1.053902149E-2,-2.646090785E0,1.655751379E0,3.121445201E0
1.699688375E0,-3.670209557E-1,-2.408000935E0,1.609458972E0,2.919508703E0
1.709743375E0,-6.125753617E-1,-2.203732257E0,1.579128295E0,2.779447896E0
1.719798375E0,-8.377399421E-1,-1.985807406E0,1.545931898E0,2.652384719E0
1.729853375E0,-1.057176590E0,-1.792886420E0,1.495532407E0,2.562943861E0
1.739908375E0,-1.276569968E0,-1.641007040E0,1.464541579E0,2.543111682E0
1.749963375E0,-1.400616310E0,-1.492764920E0,1.384614819E0,2.471281318E0
1.760018375E0,-1.464475506E0,-1.363907490E0,1.226441789E0,2.347145417E0
1.770073375E0,-1.506336308E0,-1.382473861E0,1.187611599E0,2.364467035E0
1.780128375E0,-1.544397004E0,-1.571793548E0,1.189682683E0,2.504204853E0
1.790183375E0,-1.703137799E0,-1.807936276E0,1.204994202E0,2.760674368E0
1.800238375E0,-1.989296440E0,-2.016255612E0,1.161646453E0,3.061373793E0
1.810293375E0,-2.112983762E0,-2.166260667E0,1.104557748E0,3.221402408E0
1.820349375E0,-2.131651583E0,-2.396519634E0,1.303071889E0,3.461970707E0
1.830404375E0,-2.073202230E0,-2.680763020E0,1.562623944E0,3.731816106E0
1.840459375E0,-2.153215529E0,-2.907738483E0,1.782745886E0,4.033542251E0
1.850514375E0,-2.250184584E0,-3.082419373E0,1.905013504E0,4.265409277E0
1.860569375E0,-2.115257159E0,-3.339927242E0,1.937211782E0,4.402523858E0
1.870624375E0,-2.100854298E0,-3.634736254E0,2.016906115E0,4.657553724E0
1.880679375E0,-2.185032569E0,-3.836901981E0,2.153447810E0,4.912588076E0
1.890734375E0,-2.265879681E0,-4.016514997E0,2.296658839E0,5.151819608E0
1.900789375E0,-2.344763882E0,-4.211146587E0,2.457228059E0,5.410142601E0
1.910844375E0,-2.490926732E0,-4.419365059E0,2.678112769E0,5.736531314E0
1.920899375E0,-2.630838908E0,-4.490590870E0,2.869111776E0,5.942938844E0
1.930954375E0,-2.721022854E0,-4.455148849E0,2.865135670E0,5.954940726E0
1.941009375E0,-2.753492442E0,-4.451160171E0,2.782733198E0,5.927744221E0
1.951064375E0,-2.592347272E0,-4.541988772E0,2.627090843E0,5.852480900E0
1.961119375E0,-2.459664009E0,-4.725935453E0,2.496772778E0,5.883730725E0
1.971174375E0,-2.307787260E0,-4.972479792E0,2.364935753E0,5.970289644E0
1.981229375E0,-2.118265552E0,-5.247797695E0,2.260313862E0,6.093886146E0
1.991284375E0,-2.148253582E0,-5.539785426E0,2.183265101E0,6.330155015E0
2.001339375E0,-2.370006897E0,-5.838580484E0,2.173323519E0,6.665529978E0
2.011394375E0,-2.612536538E0,-5.963322644E0,2.203411244E0,6.873251431E0
2.021449375E0,-2.834101573E0,-5.927009096E0,2.255803028E0,6.946237532E0
2.031504375E0,-3.033487533E0,-5.798244637E0,2.310262825E0,6.939668710E0
2.041559375E0,-3.020386262E0,-5.799467289E0,2.384076906E0,6.959912119E0
2.051615375E0,-2.961303656E0,-5.863598966E0,2.411645504E0,6.997652908E0
2.061670375E0,-2.965059907E0,-5.901744447E0,2.311841719E0,6.997626734E0
2.071725375E0,-2.845600707E0,-6.073397648E0,2.183315241E0,7.053401153E0
2.081780375E0,-2.603352901E0,-6.542002866E0,2.105687460E0,7.349092972E0
2.091835375E0,-2.375588064E0,-7.082348742E0,2.012262110E0,7.736425606E0
2.101890375E0,-2.316683214E0,-7.480216684E0,1.864487622E0,8.049656940E0
2.111945375E0,-2.542833050E0,-7.567555375E0,1.769562753E0,8.177117256E0
2.122000375E0,-2.823866022E0,-7.188254682E0,1.629182654E0,7.893000747E0
2.132055375E0,-2.957622249E0,-6.519785786E0,1.271585802E0,7.271318072E0
2.142110375E0,-2.824132070E0,-5.760170492E0,8.171811318E-1,6.467075927E0
2.152165375E0,-2.514077613E0,-5.074764551E0,4.073391887E-1,5.678005522E0
2.162220375E0,-2.186165174E0,-4.477620284E0,1.789809322E-1,4.986024042E0
2.172275375E0,-1.823998577E0,-4.077662255E0,1.168835751E-1,4.468552567E0
2.182330375E0,-1.564617260E0,-3.877510893E0,2.688725539E-1,4.189917702E0
2.192385375E0,-1.274127002E0,-3.631085545E0,3.267284139E-1,3.861985669E0
2.202440375E0,-1.009772628E0,-3.476669058E0,3.356418363E-1,3.635866326E0
2.212495375E0,-7.808833712E-1,-3.521711914E0,3.083365087E-1,3.620401227E0
2.222550375E0,-6.110205871E-1,-3.762787060E0,2.494047610E-1,3.820224516E0
2.232605375E0,-5.021664816E-1,-4.131882608E0,2.063353948E-1,4.167397192E0
2.242660375E0,-3.824248606E-1,-4.437981132E0,2.886711895E-1,4.463771539E0
2.252715375E0,-3.731184322E-1,-4.495575913E0,4.763001537E-1,4.536108684E0
2.262770375E0,-3.592926908E-1,-4.278169127E0,7.446733189E-1,4.357334124E0
2.272825375E0,-2.932010275E-1,-3.841625654E0,1.098845018E0,4.006434185E0
2.282880083E0,-1.914577210E-1,-3.224214352E0,1.458754005E0,3.544034071E0
2.292936083E0,-5.955506086E-2,-2.478751952E0,1.710744442E0,3.012375240E0
2.302991083E0,1.090353692E-1,-1.662664834E0,1.826008265E0,2.471972744E0
2.313046083E0,2.822252190E-1,-8.876833498E-1,1.849767841E0,2.071056221E0
2.323101083E0,4.564406705E-1,-1.711450785E-1,1.816877253E0,1.881135741E0
2.333156083E0,6.927243161E-1,4.628913188E-1,1.709473257E0,1.901692448E0
2.343211083E0,8.209941012E-1,9.393212807E-1,1.550646508E0,1.990191040E0
2.353266083E0,9.353182769E-1,1.163193042E0,1.441374911E0,2.074945774E0
2.363321083E0,1.132764716E0,1.086982187E0,1.438093454E0,2.129037097E0
2.373376083E0,1.371530505E0,8.414745587E-1,1.417841038E0,2.144632501E0
2.383431083E0,1.619392222E0,7.883298004E-1,1.355818452E0,2.254359935E0
2.393486083E0,1.956145066E0,9.013389373E-1,1.177398852E0,2.454624911E0
2.403541083E0,2.310080538E0,1.130994764E0,9.443288362E-1,2.739959525E0
2.413596083E0,2.673387342E0,1.408563845E0,7.844355547E-1,3.121921063E0
2.423651083E0,3.033651840E0,1.662975029E0,6.802463579E-1,3.525799844E0
2.433706083E0,3.272322319E0,1.883661811E0,7.447224355E-1,3.848491482E0
2.443761083E0,3.465814286E0,2.088747638E0,9.500567687E-1,4.156602366E0
2.453816083E0,3.684441680E0,2.262291829E0,1.265991186E0,4.505086957E0
2.463871083E0,3.838795309E0,2.519059440E0,1.494179946E0,4.828517744E0
2.473926083E0,3.936210507E0,2.919609500E0,1.544332684E0,5.138369024E0
2.483981083E0,4.198490873E0,3.292727348E0,1.529490112E0,5.550560242E0
2.494036083E0,4.449683164E0,3.528972986E0,1.521213963E0,5.879406647E0
2.504091083E0,4.568418480E0,3.733670558E0,1.428865378E0,6.070617720E0
2.514146083E0,4.720617410E0,3.825620363E0,1.201965344E0,6.193893814E0
2.524201083E0,5.039280723E0,3.751001705E0,8.562475491E-1,6.340151722E0
2.534256083E0,5.260304305E0,3.618962805E0,5.820657964E-1,6.411434610E0
2.544312083E0,5.358586060E0,3.517128866E0,3.229522089E-1,6.417860870E0
2.554367083E0,5.541319735E0,3.439097773E0,-8.004370451E-2,6.522271452E0
2.564422083E0,5.676392171E0,3.339940690E0,-5.783375752E-1,6.611437532E0
2.574477083E0,5.776826286E0,3.305461414E0,-9.933916533E-1,6.729385118E0
2.584532083E0,5.953595216E0,3.382012576E0,-1.243599858E0,6.959155529E0
2.594587083E0,6.180938469E0,3.502061761E0,-1.350249563E0,7.231293855E0
2.604642083E0,6.413794477E0,3.716279769E0,-1.228770150E0,7.513812015E0
2.614697083E0,6.696286329E0,4.112360802E0,-9.044695365E-1,7.910109172E0
2.624752083E0,6.968387094E0,4.491519408E0,-5.547908012E-1,8.309028711E0
2.634807083E0,7.374087381E0,4.650120454E0,-1.924260565E-1,8.719966327E0
2.644862083E0,7.837870985E0,4.725423821E0,2.516875505E-1,9.155610220E0
2.654917083E0,8.051120110E0,4.800080486E0,6.924366331E-1,9.398977401E0
2.664972083E0,8.084211842E0,4.863504065E0,9.752559292E-1,9.484686448E0
2.675027083E0,8.188820869E0,4.981130748E0,9.809265590E-1,9.634867288E0
2.685082083E0,8.177769046E0,5.017914412E0,9.197822249E-1,9.638535727E0
2.695137083E0,7.972658077E0,4.974290675E0,9.353849351E-1,9.443611042E0
2.705192083E0,7.596611359E0,4.952864723E0,1.026564077E0,9.126511212E0
2.715247083E0,7.170335305E0,4.999420838E0,1.034741993E0,8.802193368E0
2.725302083E0,6.786221184E0,5.027554716E0,9.273227942E-1,8.496412887E0
2.735357083E0,6.425052121E0,5.024443998E0,7.928754258E-1,8.194814439E0
2.745412083E0,6.107619063E0,4.889248770E0,6.002587867E-1,7.846532659E0
2.755467083E0,5.994394163E0,4.539094693E0,4.171929896E-1,7.530616974E0
2.765522083E0,6.053642830E0,3.857217547E0,2.764516783E-1,7.183393644E0
2.775577083E0,6.019881592E0,2.938258610E0,2.772784928E-1,6.704418051E0
2.785633083E0,5.965314206E0,1.968585017E0,3.861852050E-1,6.293603066E0
2.795688083E0,5.884791614E0,1.059620726E0,4.819696140E-1,5.998821812E0
2.805743083E0,5.666683454E0,2.387628651E-1,6.280014861E-1,5.706373186E0
2.815798083E0,5.356027903E0,-4.346235394E-1,7.823492682E-1,5.430285710E0
2.825853083E0,4.988973033E0,-9.067569673E-1,9.421489942E-1,5.157490170E0
2.835908083E0,4.559551177E0,-1.237654994E0,1.095402178E0,4.849866261E0
2.845963083E0,4.117463667E0,-1.479579449E0,1.247335060E0,4.549561203E0
2.856018083E0,3.685685967E0,-1.571431605E0,1.437498207E0,4.256768661E0
2.866073083E0,3.266818920E0,-1.559393358E0,1.736929443E0,4.015063809E0
2.876128083E0,2.791570095E0,-1.493620952E0,1.971154869E0,3.729506491E0
2.886183083E0,2.373076100E0,-1.267986256E0,2.240684613E0,3.501420691E0
2.896238083E0,2.031074211E0,-1.145692910E0,2.414500115E0,3.356737330E0
2.906293083E0,1.691298941E0,-9.897236949E-1,2.456750926E0,3.142557909E0
2.916348083E0,1.339274924E0,-8.222617775E-1,2.402632606E0,2.870960674E0
2.926403083E0,1.024514628E0,-7.075306356E-1,2.264107389E0,2.583875402E0
2.936458083E0,6.639028054E-1,-6.167379946E-1,2.091643764E0,2.279496945E0
2.946513083E0,3.521041238E-1,-5.998249233E-1,1.941131755E0,2.061979569E0
2.956568083E0,1.630583793E-1,-6.466143429E-1,1.857974993E0,1.974023611E0
2.966623083E0,1.582431972E-2,-7.510491228E-1,1.852209638E0,1.998751045E0
2.976678083E0,-1.196901655E-1,-8.981583443E-1,1.887414554E0,2.093644633E0
2.986733083E0,-3.271762741E-1,-1.051582851E0,1.957542551E0,2.246072938E0
2.996788083E0,-4.239558792E-1,-1.274170271E0,2.051708450E0,2.452092175E0
3.006843083E0,-5.355926746E-1,-1.589878694E0,2.152514448E0,2.729082671E0
3.016898083E0,-6.769871199E-1,-1.913865311E0,2.233046834E0,3.017894987E0
3.026953083E0,-7.467215985E-1,-2.205894557E0,2.327659461E0,3.292652807E0
3.037009083E0,-8.691389054E-1,-2.496460537E0,2.426592011E0,3.588323625E0
3.047064083E0,-1.000038768E0,-2.729134404E0,2.578700455E0,3.885607825E0
3.057119083E0,-1.044094614E0,-2.904033102E0,2.660305367E0,4.074403817E0
3.067174083E0,-1.011201103E0,-3.110274923E0,2.755609134E0,4.276648158E0
3.077229083E0,-9.950154251E-1,-3.301321293E0,2.845070364E0,4.470257638E0
3.087284083E0,-1.125964404E0,-3.414924507E0,2.937229500E0,4.642932517E0
3.097339083E0,-1.297067383E0,-3.546156784E0,3.028157212E0,4.840180557E0
3.107394083E0,-1.408660324E0,-3.754699484E0,3.084810884E0,5.059461465E0
3.117449083E0,-1.315117153E0,-4.041345783E0,3.111690534E0,5.267316854E0
3.127504083E0,-1.120736409E0,-4.470049601E0,3.177871660E0,5.597880119E0
3.137559083E0,-1.020940225E0,-4.946055640E0,3.184229922E0,5.970352212E0
3.147614083E0,-1.036018440E0,-5.464884347E0,3.154220842E0,6.394325942E0
3.157669083E0,-1.034267199E0,-6.094785594E0,3.054441615E0,6.895341446E0
3.167724083E0,-9.224485552E-1,-6.854619573E0,2.962422813E0,7.524139137E0
3.177779083E0,-1.059886774E0,-7.531736501E0,3.021622363E0,8.184168645E0
3.187834083E0,-1.425146549E0,-7.924484621E0,3.132646955E0,8.639558793E0
3.197889083E0,-1.782179291E0,-8.119116211E0,3.088260741E0,8.867556906E0
3.207944083E0,-2.236343640E0,-8.078522501E0,3.178362826E0,8.964694581E0
3.217999083E0,-2.661651396E0,-7.789451362E0,3.204475322E0,8.833380030E0
3.228054083E0,-3.011238293E0,-7.411052894E0,3.055785306E0,8.563240326E0
3.238109083E0,-3.141745223E0,-7.200569503E0,2.768751336E0,8.329750787E0
3.248164083E0,-3.036840327E0,-7.310702394E0,2.468110896E0,8.292185482E0
3.258219083E0,-3.060188259E0,-7.636399907E0,2.283197379E0,8.537701447E0
3.268274083E0,-3.296368994E0,-7.987861422E0,2.131142875E0,8.900210593E0
3.278329083E0,-3.459181205E0,-8.290691645E0,1.855583482E0,9.173041623E0
3.288385583E0,-3.638987179E0,-8.618867208E0,1.560019594E0,9.484764666E0
3.298440583E0,-4.086579258E0,-8.907445427E0,1.330179580E0,9.889999584E0
3.308495583E0,-4.738981760E0,-8.937675532E0,1.180948039E0,1.018501990E1
3.318550583E0,-5.281981103E0,-8.690219611E0,9.356737876E-1,1.021247897E1
3.328605583E0,-5.568041511E0,-8.443246670E0,6.379837795E-1,1.013402802E1
3.338660583E0,-5.423352744E0,-8.234395237E0,4.127152284E-1,9.868553783E0
3.348715583E0,-5.086603408E0,-7.933607447E0,2.225193365E-1,9.426832778E0
3.358770583E0,-4.785477065E0,-7.546113635E0,6.919711947E-2,8.935849706E0
3.368825583E0,-4.467334739E0,-7.184294363E0,-9.066341758E-2,8.460460095E0
3.378880583E0,-4.217127119E0,-6.924184483E0,-1.823220495E-1,8.109360839E0
3.388935583E0,-3.967249866E0,-6.719518486E0,-2.638556246E-1,7.807728221E0
3.398990583E0,-3.629212389E0,-6.505205753E0,-3.488648029E-1,7.457250908E0
3.409045583E0,-3.205245400E0,-6.292565909E0,-3.739890826E-1,7.071764393E0
3.419100583E0,-2.775078608E0,-6.105724565E0,-4.321349645E-1,6.720690022E0
3.429155583E0,-2.311492056E0,-6.042251869E0,-5.169511664E-1,6.489918465E0
3.439210583E0,-1.814602686E0,-5.877857986E0,-7.425285602E-1,6.196236444E0
3.449265583E0,-1.371506531E0,-5.675695767E0,-8.755614871E-1,5.904334046E0
3.459320583E0,-9.204318506E-1,-5.391877767E0,-9.328788185E-1,5.548856056E0
3.469375583E0,-3.498979694E-1,-5.005543458E0,-8.958144879E-1,5.097095005E0
3.479430583E0,3.117565817E-1,-4.583213105E0,-7.218183070E-1,4.650167330E0
3.489485583E0,8.324856341E-1,-3.994597878E0,-3.516094494E-1,4.095543156E0
3.499540583E0,1.273932289E0,-3.363567535E0,3.696961025E-2,3.596923239E0
3.509595583E0,1.669318673E0,-2.797062970E0,3.536080277E-1,3.276465279E0
3.519650583E0,2.045543731E0,-2.208797115E0,6.012890661E-1,3.069948272E0
3.529705583E0,2.423262168E0,-1.608440972E0,8.019362712E-1,3.017015690E0
3.539760583E0,2.910156307E0,-1.021017993E0,8.339135242E-1,3.194823819E0
3.549816583E0,3.345986711E0,-4.248177588E-1,7.736521196E-1,3.460438528E0
3.559871583E0,3.654591059E0,2.898523271E-2,6.303251696E-1,3.708663610E0
3.569926583E0,3.965263567E0,3.130388761E-1,4.895546222E-1,4.007614281E0
3.579981583E0,4.246140418E0,4.660470611E-1,3.189609361E-1,4.283531766E0
3.590036583E0,4.503591569E0,6.038723660E-1,-8.312420044E-3,4.543904483E0
3.600091583E0,4.808247877E0,7.102004743E-1,-3.016262805E-1,4.869764961E0
3.610146583E0,5.187823974E0,7.051759619E-1,-3.366323912E-1,5.246342735E0
3.620201583E0,5.541461822E0,8.666129082E-1,-2.195056450E-1,5.613109636E0
3.630256583E0,5.804967180E0,1.150933769E0,-9.100257436E-2,5.918663192E0
3.640311583E0,6.153604490E0,1.357379658E0,2.988276204E-2,6.301604616E0
3.650366583E0,6.381855816E0,1.582267665E0,2.786186564E-1,6.580978876E0
3.660421583E0,6.416483611E0,1.882750815E0,5.119728470E-1,6.706573549E0
3.670476583E0,6.445806229E0,2.331953802E0,5.269627690E-1,6.874890270E0
3.680531583E0,6.466483153E0,2.874136873E0,3.655445337E-1,7.085879616E0
3.690586583E0,6.486357254E0,3.371064835E0,2.517460227E-2,7.310098652E0
3.700641583E0,6.446115546E0,3.806360219E0,-2.815504503E-1,7.491331952E0
3.710696583E0,6.452149873E0,4.168780001E0,-5.260377395E-1,7.699719500E0
3.720751583E0,6.575604476E0,4.448191540E0,-7.138099605E-1,7.970853584E0
3.730806583E0,6.739121861E0,4.675476905E0,-9.309357888E-1,8.254846407E0
3.740861583E0,6.937834808E0,4.900992318E0,-1.184744124E0,8.576531709E0
3.750916583E0,7.089892820E0,5.176830039E0,-1.492314684E0,8.904670267E0
3.760971583E0,7.273767872E0,5.490831367E0,-1.940922425E0,9.317945482E0
3.771026583E0,7.495883714E0,5.801561762E0,-2.502246357E0,9.803449819E0
3.781081583E0,7.702274054E0,6.069000542E0,-3.026159803E0,1.026233094E1
3.791136583E0,7.796241149E0,6.226895245E0,-3.384465483E0,1.053613815E1
3.801191583E0,7.881809303E0,6.326761596E0,-3.484716581E0,1.069084093E1
3.811247583E0,8.063200457E0,6.439158529E0,-3.418091651E0,1.087020307E1
3.821302583E0,8.359515712E0,6.498457482E0,-3.171209927E0,1.105296453E1
3.831357583E0,8.618764881E0,6.363394402E0,-2.698351445E0,1.104794084E1
3.841412583E0,8.805169439E0,6.060342570E0,-2.131264497E0,1.089958941E1
3.851467583E0,8.982648221E0,5.732951118E0,-1.653737013E0,1.078376297E1
3.861522583E0,9.209402075E0,5.395879017E0,-1.288951448E0,1.075127866E1
3.871577583E0,9.340073311E0,5.058858955E0,-9.747518992E-1,1.066673168E1
3.881632583E0,9.187264516E0,4.832825478E0,-5.453195179E-1,1.039516257E1
3.891687583E0,8.789183736E0,4.842510222E0,-1.815700793E-1,1.003656434E1
3.901742583E0,8.323720812E0,5.138654737E0,-1.188130832E-1,9.782853224E0
3.911797583E0,8.029548562E0,5.374875233E0,-4.059055610E-1,9.670971678E0
3.921852583E0,8.002604592E0,5.250106761E0,-7.757606256E-1,9.602453114E0
3.931907583E0,8.075480779E0,4.705294781E0,-9.784625423E-1,9.397370789E0
3.941962583E0,8.089216474E0,3.795481474E0,-8.565200293E-1,8.976342760E0
3.952017583E0,8.016988742E0,2.730492420E0,-5.944104016E-1,8.490054244E0
3.962072583E0,7.901516758E0,1.724752032E0,-2.578791672E-1,8.091677102E0
3.972127583E0,7.767989742E0,8.141353172E-1,1.191358586E-1,7.811445084E0
3.982182583E0,7.549796212E0,1.112994111E-1,5.751894343E-1,7.572493201E0
3.992237583E0,7.305301321E0,-2.574119747E-1,1.063696235E0,7.386821915E0
4.002292583E0,7.054414839E0,-4.810042387E-1,1.544858934E0,7.237590961E0
4.012347583E0,6.841650449E0,-5.350769502E-1,1.957960042E0,7.136392347E0
4.022402583E0,6.665312458E0,-5.413007265E-1,2.375526084E0,7.096655608E0
4.032457583E0,6.557624872E0,-6.054394197E-1,2.812286196E0,7.160862693E0
4.042512583E0,6.426556025E0,-7.458252203E-1,3.219131953E0,7.226319127E0
4.052567583E0,6.086782510E0,-9.470010138E-1,3.541898257E0,7.105686139E0
4.062622583E0,5.671841868E0,-1.225523191E0,3.721622955E0,6.893632909E0
4.072678583E0,5.273136604E0,-1.595014011E0,3.757531875E0,6.668514463E0
4.082733583E0,4.819921258E0,-2.021336843E0,3.678760525E0,6.391456999E0
4.092788583E0,4.331631389E0,-2.351503968E0,3.537591197E0,6.066889885E0
4.102843583E0,3.886234939E0,-2.654598484E0,3.260598067E0,5.725488177E0
4.112898583E0,3.550276732E0,-3.031242203E0,3.031012992E0,5.565962084E0
4.122953583E0,3.168347715E0,-3.450150473E0,2.848152139E0,5.482147037E0
4.133008583E0,2.736759465E0,-3.800202224E0,2.746556475E0,5.429084802E0
4.143063583E0,2.315007402E0,-4.143133236E0,2.810791647E0,5.515918959E0
4.153118583E0,1.959776187E0,-4.532766544E0,2.838749524E0,5.696068302E0
4.163173583E0,1.644860355E0,-4.989426193E0,2.806420269E0,5.956167731E0
4.173228583E0,1.281445377E0,-5.467869351E0,2.863484416E0,6.303906764E0
4.183283583E0,8.174559510E-1,-5.872484980E0,2.890451775E0,6.596137167E0
4.193338583E0,3.922715718E-1,-6.186417310E0,2.894182298E0,6.841193412E0
4.203393583E0,1.552669644E-2,-6.477920306E0,2.847616242E0,7.076200311E0
4.213448583E0,-2.713154840E-1,-6.795183211E0,2.756238295E0,7.337913634E0
4.223503583E0,-4.175479156E-1,-7.222898850E0,2.712039192E0,7.726562666E0
4.233558583E0,-6.830167687E-1,-7.720092859E0,2.747590263E0,8.222870418E0
4.243613583E0,-9.756938857E-1,-7.933009862E0,2.760993251E0,8.456223019E0
4.253668583E0,-1.370689675E0,-7.998785191E0,2.782313368E0,8.579080510E0
4.263723583E0,-1.711242040E0,-7.981294414E0,2.814875343E0,8.634404035E0
4.273778583E0,-2.047665685E0,-7.993099358E0,2.922655900E0,8.753541547E0
4.283833458E0,-2.499527401E0,-8.061332272E0,2.920563766E0,8.930980234E0
4.293888458E0,-2.826021890E0,-8.161602080E0,2.841007719E0,9.092275463E0
4.303943458E0,-3.069246181E0,-8.409580742E0,2.655841602E0,9.337816393E0
4.313998458E0,-3.288946538E0,-8.739930300E0,2.400959133E0,9.641999571E0
4.324053458E0,-3.631070049E0,-9.016339878E0,2.184771198E0,9.962543836E0
4.334108458E0,-4.009381979E0,-9.211753825E0,1.986271091E0,1.024093869E1
4.344164458E0,-4.339174297E0,-9.344662206E0,1.740877483E0,1.044900951E1
4.354219458E0,-4.672915240E0,-9.380409744E0,1.414980580E0,1.057498907E1
4.364274458E0,-5.016124579E0,-9.393794020E0,1.050249978E0,1.070083627E1
4.374329458E0,-5.471097014E0,-9.344196183E0,7.188192701E-1,1.085189412E1
4.384384458E0,-5.770866804E0,-9.290388350E0,4.687092984E-1,1.094686749E1
4.394439458E0,-5.873418195E0,-9.194975240E0,1.920903897E-1,1.091244746E1
4.404494458E0,-5.610133862E0,-9.197173208E0,-7.880409479E-2,1.077347702E1
4.414549458E0,-5.164110006E0,-9.446118999E0,-2.143507397E-1,1.076768975E1
4.424604458E0,-4.886322824E0,-9.617648824E0,-2.859510648E-1,1.079152851E1
4.434659458E0,-4.603322849E0,-9.581421230E0,-3.340303802E-1,1.063512061E1
4.444714458E0,-4.281780367E0,-9.490929721E0,-4.315748012E-1,1.042101947E1
4.454769458E0,-4.136106344E0,-9.452005976E0,-5.656573033E-1,1.033284863E1
4.464824458E0,-4.374188594E0,-9.328328009E0,-6.154077530E-1,1.032133499E1
4.474879458E0,-4.665826660E0,-9.025178529E0,-6.744049895E-1,1.018226929E1
4.484934458E0,-4.820582578E0,-8.628325664E0,-7.607753813E-1,9.912860300E0
4.494989458E0,-4.759231253E0,-8.390327615E0,-9.072457945E-1,9.688703449E0
4.505044458E0,-4.432807515E0,-8.435162895E0,-1.111824667E0,9.593639019E0
4.515099458E0,-3.986243961E0,-8.623698177E0,-1.358198853E0,9.597031588E0
4.525154458E0,-3.666373199E0,-8.784246347E0,-1.648134795E0,9.660311828E0
4.535209458E0,-3.447463970E0,-8.771680096E0,-1.973412479E0,9.629212654E0
4.545264458E0,-3.095368617E0,-8.603001373E0,-2.251695505E0,9.416107059E0
4.555319458E0,-2.720115951E0,-8.358612317E0,-2.486768777E0,9.135067028E0
4.565374458E0,-2.397911564E0,-7.993152568E0,-2.554418723E0,8.727286110E0
4.575429458E0,-2.012501115E0,-7.545827122E0,-2.452908720E0,8.185745469E0
4.585485458E0,-1.532765722E0,-7.213111196E0,-2.205112492E0,7.696808753E0
4.595540458E0,-1.136155517E0,-7.026318383E0,-1.862433495E0,7.357218082E0
4.605595458E0,-6.854878020E-1,-6.860651561E0,-1.733932160E0,7.109497458E0
4.615650458E0,-1.948660630E-1,-6.668109182E0,-1.812518739E0,6.912805293E0
4.625705458E0,7.858014643E-2,-6.414576834E0,-1.902698591E0,6.691280351E0
4.635760458E0,2.309252572E-1,-6.115137413E0,-1.951471387E0,6.423120162E0
4.645815458E0,4.428014553E-1,-5.729724625E0,-1.867883685E0,6.042748287E0
4.655870458E0,5.175779879E-1,-5.437631645E0,-1.618535020E0,5.696962391E0
4.665925458E0,5.903471714E-1,-5.455741056E0,-1.209565555E0,5.619312154E0
4.675980458E0,7.515321028E-1,-5.700041234E0,-5.576080263E-1,5.776348093E0
4.686035458E0,1.123887473E0,-6.068907571E0,2.154300992E-1,6.175853973E0
4.696090458E0,1.760207208E0,-6.406404766E0,1.060538739E0,6.727933848E0
4.706145458E0,2.504482332E0,-6.691286960E0,2.023906109E0,7.425762511E0
4.716200458E0,3.224920696E0,-6.743683859E0,3.090559866E0,8.088816092E0
4.726255458E0,4.014704699E0,-6.652079040E0,4.014769603E0,8.745649452E0
4.736310458E0,4.915949496E0,-6.549481455E0,4.592300262E0,9.388902411E0
4.746365458E0,5.687917033E0,-6.359501325E0,4.573660508E0,9.680600587E0
4.756420458E0,6.439538013E0,-6.191780961E0,3.861751478E0,9.732364860E0
4.766475458E0,7.189534053E0,-5.761688429E0,2.971180773E0,9.680618195E0
4.776530458E0,7.796471529E0,-5.254862886E0,2.012878407E0,9.615104354E0
4.786585458E0,8.464733434E0,-4.742000093E0,1.180875460E0,9.774085320E0
4.796640458E0,9.334448290E0,-4.012016149E0,7.952156277E-1,1.019120044E1
4.806695458E0,1.069344412E1,-2.974719508E0,8.769057620E-1,1.113407684E1
4.816750458E0,1.185588930E1,-1.807166782E0,1.764347914E0,1.212191761E1
4.826805458E0,1.243802874E1,-1.329914117E-1,3.368849909E0,1.288686910E1
4.836860458E0,1.260517958E1,1.775737998E0,4.514956802E0,1.350661440E1
4.846916458E0,1.282117690E1,3.615820511E0,4.572175023E0,1.408408746E1
4.856971458E0,1.326405320E1,5.159342771E0,4.045451990E0,1.479593210E1
4.867026458E0,1.363066894E1,6.326723004E0,3.310096794E0,1.538763466E1
4.877081458E0,1.371639497E1,7.090121446E0,2.474409517E0,1.563751948E1
4.887136458E0,1.343061113E1,7.443263451E0,1.725435133E0,1.545188055E1
4.897191458E0,1.284125273E1,7.575229261E0,1.125468560E0,1.495154004E1
4.907246458E0,1.193565936E1,7.758228400E0,7.013676703E-1,1.425278881E1
4.917301458E0,1.091064596E1,7.923457265E0,2.794955926E-1,1.348708598E1
4.927356458E0,1.008405666E1,8.072350180E0,1.745350018E-2,1.291709490E1
4.937411458E0,9.303573822E0,8.260800678E0,3.236235058E-1,1.244596504E1
4.947466458E0,8.759203892E0,8.549915087E0,1.132289922E0,1.229254983E1
4.957521458E0,8.642521534E0,8.891075562E0,2.202802842E0,1.259351990E1
4.967576458E0,8.690551733E0,9.148655351E0,3.200301579E0,1.301789209E1
4.977631458E0,8.594514724E0,9.346090096E0,3.956635416E0,1.329924988E1
4.987686458E0,8.644259326E0,9.389761196E0,4.369759035E0,1.349020491E1
4.997741458E0,8.857533009E0,9.104445723E0,4.511658680E0,1.347968423E1
5.007796458E0,8.651309899E0,8.409332235E0,4.456777883E0,1.286176118E1
5.017851458E0,7.999834181E0,7.639225282E0,4.005643269E0,1.176436517E1
5.027906458E0,7.480346493E0,6.986384824E0,3.129354973E0,1.070317799E1
5.037961458E0,7.173069463E0,6.525444721E0,2.248015998E0,9.954292052E0
5.048016458E0,6.742251291E0,6.274385161E0,1.536321853E0,9.337352219E0
5.058071458E0,6.507846941E0,6.122706048E0,8.763685490E-1,8.978174814E0
5.068126458E0,6.693539307E0,5.961195427E0,3.155720361E-1,8.968773890E0
5.078181458E0,7.338618171E0,5.584410206E0,-1.856654692E-1,9.223634082E0
5.088236458E0,8.265812911E0,5.011511711E0,-6.287243481E-1,9.686805821E0
5.098291458E0,9.063057961E0,4.403953845E0,-6.352311297E-1,1.009640271E1
5.108347458E0,9.734740487E0,3.937520868E0,-9.501001842E-2,1.050134610E1
5.118402458E0,1.033185932E1,3.535407847E0,5.632190144E-1,1.093451605E1
5.128457458E0,1.107322779E1,3.214320863E0,1.036289166E0,1.157679263E1
5.138512458E0,1.196477732E1,2.932675104E0,1.577817203E0,1.241958078E1
5.148567458E0,1.270938866E1,2.620841339E0,2.045368899E0,1.313700511E1
5.158622458E0,1.328303794E1,2.222999709E0,2.297067852E0,1.366225989E1
5.168677458E0,1.366073298E1,1.619546589E0,2.484287803E0,1.397892137E1
5.178732458E0,1.379443893E1,8.848597294E-1,2.804892976E0,1.410450094E1
5.188787458E0,1.360050199E1,7.631493509E-2,3.219165866E0,1.397649838E1
5.198842458E0,1.321110900E1,-8.569679260E-1,3.691795430E0,1.374398590E1
5.208897458E0,1.280943218E1,-1.882736782E0,4.294569397E0,1.364073227E1
5.218952458E0,1.213857879E1,-2.827796520E0,5.021014606E0,1.343696825E1
5.229007458E0,1.108350135E1,-3.638920521E0,5.459069291E0,1.287971981E1
5.239062458E0,9.910842251E0,-4.245588441E0,5.408880301E0,1.206257856E1
5.249117458E0,8.843221364E0,-4.653087332E0,5.197735004E0,1.126366881E1
5.259172458E0,7.853699983E0,-5.032351187E0,4.965717487E0,1.056709572E1
5.269227458E0,6.854231903E0,-5.414555023E0,4.644736923E0,9.893001676E0
5.279282458E0,5.896212981E0,-5.783931237E0,4.212812458E0,9.271837837E0
5.289337958E0,4.926376836E0,-6.130571723E0,3.803990343E0,8.736328800E0
5.299392958E0,4.004527620E0,-6.557326080E0,3.420068010E0,8.410209984E0
5.309447958E0,3.125090014E0,-7.003401391E0,3.002961852E0,8.235994082E0
5.319502958E0,2.253286532E0,-7.322961667E0,2.682523909E0,8.117820045E0
5.329557958E0,1.435587922E0,-7.610472769E0,2.359283834E0,8.096074892E0
5.339612958E0,6.676666582E-1,-7.925404973E0,2.032631325E0,8.209105484E0
5.349667958E0,1.190317690E-2,-8.262874686E0,1.708178684E0,8.437601209E0
5.359722958E0,-6.247568661E-1,-8.543166815E0,1.441331349E0,8.686394904E0
5.369777958E0,-1.200474889E0,-8.781489385E0,1.228027554E0,8.947834791E0
5.379833958E0,-1.517659441E0,-8.942873122E0,1.186299557E0,9.147982099E0
5.389888958E0,-1.652521377E0,-9.011584922E0,1.298028080E0,9.253343537E0
5.399943958E0,-1.661226711E0,-9.040984722E0,1.528480883E0,9.318547781E0
5.409998958E0,-1.682946779E0,-9.038552281E0,1.784305923E0,9.365440984E0
5.420053958E0,-1.814051294E0,-9.021862573E0,1.982091501E0,9.413472956E0
5.430108958E0,-1.903442357E0,-8.983114244E0,2.100388860E0,9.419716965E0
5.440163958E0,-2.001425904E0,-9.039051048E0,2.169670179E0,9.508817917E0
5.450218958E0,-2.094714721E0,-9.162041382E0,2.214482947E0,9.655815179E0
5.460273958E0,-2.180067698E0,-9.307593783E0,2.220605274E0,9.814024912E0
5.470328958E0,-2.327891741E0,-9.442315385E0,2.240540771E0,9.979800737E0
5.480383958E0,-2.491457659E0,-9.528247821E0,2.301800880E0,1.011400786E1
5.490438958E0,-2.582169024E0,-9.683297269E0,2.369988917E0,1.029809159E1
5.500493958E0,-2.718881603E0,-9.905504912E0,2.440113258E0,1.055772217E1
5.510548958E0,-2.993285587E0,-1.005294947E1,2.651739196E0,1.081911607E1
5.520603958E0,-3.295454489E0,-1.013704997E1,2.841376094E0,1.103146502E1
5.530658958E0,-3.495690635E0,-1.024893411E1,2.979812433E0,1.123119697E1
5.540713958E0,-3.697773331E0,-1.038844867E1,3.024957615E0,1.143432385E1
5.550768958E0,-3.915006164E0,-1.049912243E1,2.944392339E0,1.158569339E1
5.560823958E0,-4.185352179E0,-1.055695256E1,2.762172049E0,1.168742977E1
5.570878958E0,-4.469916869E0,-1.058132493E1,2.487972718E0,1.175306778E1
5.580933958E0,-4.607587223E0,-1.058124541E1,2.133871186E0,1.173652506E1
5.590988958E0,-4.715756035E0,-1.055391318E1,1.832350155E0,1.170388591E1
5.601043958E0,-4.833664554E0,-1.044809495E1,1.641549661E0,1.162848599E1
5.611098958E0,-5.080926932E0,-1.030103748E1,1.518822452E0,1.158594032E1
5.621153958E0,-5.332570043E0,-1.006232724E1,1.411335279E0,1.147512963E1
5.631209958E0,-5.394448788E0,-9.772809370E0,1.215223394E0,1.122874208E1
5.641264958E0,-5.255904275E0,-9.389917901E0,1.047094748E0,1.081163703E1
5.651319958E0,-4.969043968E0,-8.952982957E0,9.237373547E-1,1.028107934E1
5.661374958E0,-4.633214985E0,-8.582501035E0,8.366067517E-1,9.789071251E0
5.671429958E0,-4.231970860E0,-8.292395523E0,6.728426135E-1,9.334137242E0
5.681484958E0,-3.763065680E0,-8.006994681E0,4.514144770E-1,8.858690771E0
5.691539958E0,-3.331652847E0,-7.714489473E0,3.094978753E-1,8.408867192E0
5.701594958E0,-2.987179340E0,-7.447734817E0,1.785459725E-1,8.026448341E0
5.711649958E0,-2.708139099E0,-7.238121491E0,-4.835420765E-2,7.728308885E0
5.721704958E0,-2.513805133E0,-6.987105201E0,-3.565094161E-1,7.434107498E0
5.731759958E0,-2.351431462E0,-6.681282958E0,-6.217894042E-1,7.110231639E0
5.741814958E0,-2.178353879E0,-6.357488714E0,-8.970505893E-1,6.779940127E0
5.751869958E0,-1.909587781E0,-6.121495675E0,-1.150077225E0,6.514745767E0
5.761924958E0,-1.673229291E0,-5.981090578E0,-1.282569212E0,6.341776135E0
5.771979958E0,-1.432664899E0,-5.920352041E0,-1.228747931E0,6.213929391E0
5.782034958E0,-1.134976133E0,-5.924345689E0,-1.049493349E0,6.122701933E0
5.792089958E0,-9.273116845E-1,-6.065654765E0,-6.728483876E-1,6.172908524E0
5.802144958E0,-9.142916894E-1,-6.196354069E0,-3.068349802E-1,6.270955329E0
5.812199958E0,-8.017275256E-1,-6.272331619E0,1.518206521E-1,6.325184620E0
5.822254958E0,-6.149423146E-1,-6.160580218E0,6.159503746E-1,6.221760004E0
5.832309958E0,-4.293183607E-1,-5.901567861E0,7.940600717E-1,5.970205094E0
5.842364958E0,-2.786736202E-1,-5.650687226E0,7.207967985E-1,5.703286170E0
5.852419958E0,-5.629114509E-2,-5.308567223E0,5.382794702E-1,5.336084655E0
5.862474958E0,2.119533813E-1,-4.898071342E0,4.375377552E-1,4.922140428E0
5.872529958E0,4.466682190E-1,-4.632734051E0,3.784411526E-1,4.669577603E0
5.882584958E0,7.671295506E-1,-4.515980065E0,3.657293057E-1,4.595249897E0
5.892640958E0,1.126086026E0,-4.430715089E0,5.247443354E-1,4.601593480E0
5.902695958E0,1.499262931E0,-4.314698144E0,7.458848619E-1,4.628256004E0
5.912750958E0,1.923237521E0,-4.298481769E0,8.925353694E-1,4.792953939E0
5.922805958E0,2.438924519E0,-4.302734449E0,1.034550204E0,5.052936837E0
5.932860958E0,3.004012304E0,-4.144295955E0,1.130866710E0,5.241959404E0
5.942915958E0,3.705764721E0,-3.838304143E0,1.124439451E0,5.452488876E0
5.952970958E0,4.454622892E0,-3.429324152E0,9.895476937E-1,5.708163793E0
5.963025958E0,5.242073271E0,-2.984653342E0,7.880128813E-1,6.083457245E0
5.973080958E0,5.895958042E0,-2.477154200E0,6.070801850E-1,6.423952095E0
5.983135958E0,6.490863703E0,-1.986388035E0,5.441512807E-1,6.809783378E0
5.993190958E0,7.095658175E0,-1.487732806E0,5.233539041E-1,7.268810986E0
6.003245958E0,7.729870573E0,-8.165291673E-1,4.808972347E-1,7.787739153E0
6.013300958E0,8.381709403E0,-1.801936448E-2,4.546127578E-1,8.394048486E0
6.023355958E0,9.081117087E0,8.218273294E-1,4.941832050E-1,9.131610195E0
6.033410958E0,9.862274108E0,1.653255202E0,5.874674177E-1,1.001712640E1
6.043465958E0,1.058493149E1,2.394458783E0,7.711378900E-1,1.087974546E1
6.053520958E0,1.111609607E1,3.014013966E0,9.349206662E-1,1.155534286E1
6.063575958E0,1.153244706E1,3.684239951E0,9.729978807E-1,1.214568582E1
6.073630958E0,1.178830718E1,4.481242926E0,8.935492766E-1,1.264294881E1
6.083685958E0,1.185377495E1,5.320672714E0,5.415047213E-1,1.300441333E1
6.093740958E0,1.173762820E1,5.997131245E0,-5.460480809E-2,1.318106523E1
6.103795958E0,1.149776605E1,6.437352909E0,-4.866836393E-1,1.318616691E1
6.113850958E0,1.099433950E1,6.699224555E0,-6.652213526E-1,1.289176598E1
6.123905958E0,1.042905408E1,6.892331775E0,-5.995267153E-1,1.251514437E1
6.133960958E0,1.001860644E1,6.977417534E0,-6.204737806E-1,1.222463979E1
6.144015958E0,9.752777978E0,6.931408718E0,-7.422888243E-1,1.198799807E1
6.154070958E0,9.443220534E0,6.590409626E0,-7.446300495E-1,1.153960082E1
6.164125958E0,9.299476093E0,5.995742531E0,-6.118141273E-1,1.108167409E1
6.174181958E0,9.204061228E0,5.288633480E0,-3.951431394E-1,1.062264210E1
6.184236958E0,9.046039056E0,4.805616045E0,-1.070940205E-1,1.024383899E1
6.194291958E0,8.809103445E0,4.748160135E0,2.243950868E-1,1.000977928E1
6.204346958E0,8.565766888E0,5.126039370E0,6.168671449E-1,1.000145825E1
6.214401958E0,8.386392438E0,5.752649803E0,9.819089643E-1,1.021707899E1
6.224456958E0,8.320810068E0,6.400953991E0,1.217329488E0,1.056834818E1
6.234511958E0,8.461236799E0,6.736768942E0,1.274234591E0,1.089037455E1
6.244566958E0,8.638402755E0,6.547859437E0,1.281328433E0,1.091504777E1
6.254621958E0,8.751559242E0,5.897375407E0,1.400168413E0,1.064562339E1
6.264676958E0,8.714153434E0,4.952686383E0,1.575624497E0,1.014633752E1
6.274731958E0,8.521438562E0,3.823977295E0,1.814320850E0,9.514697981E0
6.284785958E0,8.317581235E0,2.760835961E0,2.054657786E0,9.001443852E0
6.294840958E0,8.129423683E0,2.068094103E0,2.346479455E0,8.710367872E0
6.304895958E0,7.961537257E0,1.619775215E0,2.581721127E0,8.524965174E0
6.314950958E0,7.757764131E0,1.466918473E0,2.750754776E0,8.360706068E0
6.325005958E0,7.469113991E0,1.527904347E0,2.891025971E0,8.153538292E0
6.335060958E0,7.154484088E0,1.648701975E0,2.920098327E0,7.901381842E0
6.345115958E0,6.844896238E0,1.806904242E0,3.004680641E0,7.690618519E0
6.355170958E0,6.466250433E0,1.972468738E0,3.046121027E0,7.414976797E0
6.365225958E0,6.021331701E0,2.130052954E0,3.018372481E0,7.064285773E0
6.375280958E0,5.569191073E0,2.143498042E0,2.929560292E0,6.647766284E0
6.385335958E0,5.093828813E0,2.020154536E0,2.801585791E0,6.154429240E0
6.395390958E0,4.637450123E0,1.822292359E0,2.598292136E0,5.619414125E0
6.405445958E0,4.226087392E0,1.523866260E0,2.376794930E0,5.082434177E0
6.415500958E0,3.891234893E0,1.125869095E0,2.228924693E0,4.623569562E0
6.425555958E0,3.590823079E0,7.446288800E-1,2.118248595E0,4.235027706E0
6.435611958E0,3.336452242E0,2.812978506E-1,2.060867529E0,3.931693911E0
6.445666958E0,3.097618625E0,-2.489107078E-1,2.025228750E0,3.709278794E0
6.455721958E0,2.900649903E0,-9.349118954E-1,2.050817335E0,3.673374723E0
6.465776958E0,2.601404024E0,-1.672720583E0,2.130928867E0,3.755816141E0
6.475831958E0,2.361825473E0,-2.369022810E0,2.151515744E0,3.977374591E0
6.485886958E0,2.277270057E0,-3.147271426E0,2.120463520E0,4.425792797E0
6.495941958E0,2.147714469E0,-3.927048504E0,2.129974601E0,4.956932438E0
6.505996958E0,1.989060797E0,-4.720114549E0,2.168237465E0,5.562112721E0
6.516051958E0,1.781744843E0,-5.538268073E0,2.244405635E0,6.235734487E0
6.526106958E0,1.713993155E0,-6.254843767E0,2.294243939E0,6.879273096E0
6.536161958E0,1.543364970E0,-6.725621810E0,2.362588534E0,7.293681426E0
6.546216958E0,1.430024881E0,-7.016245970E0,2.359048630E0,7.539084102E0
6.556271958E0,1.294113370E0,-7.263153421E0,2.339263991E0,7.739527315E0
6.566326958E0,1.016726722E0,-7.411632353E0,2.291188330E0,7.824038045E0
6.576381958E0,6.330441248E-1,-7.513691409E0,2.240800242E0,7.866224582E0
6.586436958E0,3.463036859E-1,-7.635542706E0,2.140147587E0,7.937359154E0
6.596491958E0,1.906069511E-1,-7.870172174E0,2.058016427E0,8.137037094E0
6.606546958E0,9.883139312E-2,-8.230474679E0,2.055636610E0,8.483874289E0
6.616601958E0,-1.382316864E-1,-8.554340259E0,2.107998426E0,8.811328086E0
6.626656958E0,-4.465465969E-1,-8.879950649E0,2.111092772E0,9.138360908E0
6.636711958E0,-7.809547073E-1,-9.269745925E0,2.079851099E0,9.532253688E0
6.646766958E0,-1.165132563E0,-9.693504753E0,2.031735531E0,9.972437894E0
6.656821958E0,-1.609641405E0,-1.012481760E1,1.983993015E0,1.044217914E1
6.666876958E0,-2.123230423E0,-1.051330076E1,1.836136812E0,1.088158990E1
6.676931958E0,-2.668407269E0,-1.078893968E1,1.805686852E0,1.125975673E1
6.686986958E0,-3.263222297E0,-1.084844094E1,1.871416572E0,1.148213789E1
6.697041958E0,-3.737467740E0,-1.078736444E1,1.833042465E0,1.156269611E1
6.707097958E0,-3.894582424E0,-1.084084190E1,1.735444250E0,1.164917989E1
6.717152958E0,-3.979186372E0,-1.106336822E1,1.665748948E0,1.187462673E1
6.727207958E0,-4.285588074E0,-1.112440847E1,1.553206419E0,1.202211209E1
6.737262958E0,-4.606657516E0,-1.104198963E1,1.273012522E0,1.203193207E1
6.747317958E0,-4.856140666E0,-1.096316799E1,8.678110027E-1,1.202190711E1
6.757372958E0,-5.245211472E0,-1.085354556E1,5.715150440E-1,1.206807044E1
6.767427958E0,-5.723464596E0,-1.061470902E1,3.317698467E-1,1.206400289E1
6.777482958E0,-6.155710657E0,-1.015638087E1,1.354004645E-1,1.187700212E1
6.787537958E0,-6.405614807E0,-9.569880581E0,4.224381248E-2,1.151591507E1
6.797592958E0,-6.286233374E0,-8.977026123E0,1.146754107E-2,1.095919064E1
6.807647958E0,-5.900396079E0,-8.419575387E0,1.715103468E-2,1.028125565E1
6.817702958E0,-5.427682607E0,-7.905310432E0,-1.410102832E-1,9.590284428E0
6.827757958E0,-4.981503800E0,-7.526015586E0,-4.767948282E-1,9.037899314E0
6.837812958E0,-4.535979297E0,-7.274877673E0,-9.348282802E-1,8.623969924E0
6.847867958E0,-4.202486860E0,-7.198591390E0,-1.307681834E0,8.437454923E0
6.857922958E0,-3.953900088E0,-7.166976664E0,-1.586402231E0,8.337598722E0
6.867977958E0,-3.776059363E0,-7.125399452E0,-1.768423716E0,8.255741282E0
6.878032958E0,-3.647512420E0,-7.166342826E0,-1.823060099E0,8.245263154E0
6.888087958E0,-3.475400212E0,-7.279245543E0,-1.696624585E0,8.242836726E0
6.898142958E0,-3.230338141E0,-7.337152859E0,-1.389167461E0,8.136257298E0
6.908197958E0,-2.991021545E0,-7.456636618E0,-8.808046854E-1,8.082292770E0
6.918252958E0,-2.756459904E0,-7.668839090E0,-3.247122574E-1,8.155648487E0
6.928307958E0,-2.502140522E0,-7.814713672E0,1.638343048E-1,8.207149240E0
6.938362958E0,-2.283024302E0,-7.770950772E0,5.646796489E-1,8.119035593E0
6.948417958E0,-2.021514598E0,-7.564385599E0,7.753676927E-1,7.868141193E0
6.958473958E0,-1.652851744E0,-7.198234710E0,8.986878097E-1,7.440036398E0
6.968528958E0,-1.210059645E0,-6.641476868E0,9.084631848E-1,6.811663871E0
6.978583958E0,-6.260578716E-1,-6.051930181E0,7.838987803E-1,6.134517477E0
6.988638958E0,1.147925377E-2,-5.461065531E0,6.721327615E-1,5.502284158E0
6.998693958E0,6.324237353E-1,-4.954761559E0,6.560260212E-1,5.037855896E0
7.008748958E0,1.230467012E0,-4.531406774E0,6.519949508E-1,4.740547841E0
7.018803958E0,1.974119992E0,-4.072237500E0,6.719713783E-1,4.575129892E0
7.028858958E0,2.723648838E0,-3.570788472E0,7.871556795E-1,4.559430597E0
7.038913958E0,3.290918804E0,-3.215890256E0,9.721861410E-1,4.702897257E0
7.048968958E0,3.939512429E0,-2.936354756E0,9.411865425E-1,5.002776184E0
7.059023958E0,4.642021476E0,-2.501621289E0,7.313755810E-1,5.323662527E0
7.069078958E0,5.213644693E0,-1.907581601E0,5.266832721E-1,5.576589802E0
7.079133958E0,5.677083896E0,-1.310766824E0,3.844473759E-1,5.839108752E0
7.089188958E0,6.066791464E0,-7.570050967E-1,3.802151613E-1,6.125649268E0
7.099243958E0,6.457896516E0,-3.238129556E-1,6.455711266E-1,6.498156995E0
7.109298958E0,6.861482450E0,9.264153063E-2,1.069879081E0,6.945010088E0
7.119353958E0,7.246565455E0,4.858281916E-1,1.586572970E0,7.434107459E0
7.129408958E0,7.627150197E0,9.812750530E-1,2.167341818E0,7.989598952E0
7.139463958E0,7.971488634E0,1.733455027E0,2.676028529E0,8.585489273E0
7.149518958E0,8.426915397E0,2.612150622E0,2.919726444E0,9.293063892E0
7.159573958E0,8.882554999E0,3.511535420E0,2.928663329E0,9.990382035E0
7.169628958E0,9.094492593E0,4.336800327E0,2.756945808E0,1.044597448E1
7.179683958E0,9.089273953E0,4.874869298E0,2.372380282E0,1.058335674E1
7.189738958E0,9.075661635E0,5.035044415E0,1.904259213E0,1.055203817E1
7.199793958E0,8.999147894E0,4.881760241E0,1.495062876E0,1.034656749E1
7.209848958E0,8.886132910E0,4.590791096E0,1.155889285E0,1.006850540E1
7.219903958E0,8.838180479E0,4.332054727E0,8.581829043E-1,9.880111854E0
7.229958958E0,8.771694129E0,4.206524947E0,6.346942822E-1,9.748861824E0
7.240013958E0,8.768729006E0,4.319102560E0,3.098276583E-1,9.779634374E0
7.250069958E0,8.748124588E0,4.630959129E0,1.707503915E-2,9.898270445E0
7.260124958E0,8.521101177E0,4.957334919E0,-2.618710613E-1,9.861689066E0
7.270179958E0,8.131339231E0,5.204357561E0,-3.649247289E-1,9.661117190E0
7.280234958E0,7.717435884E0,5.407496265E0,-3.761771107E-1,9.430871736E0
7.290290583E0,7.420692029E0,5.522579409E0,-2.625586939E-1,9.253890565E0
7.300345583E0,7.281891993E0,5.453674650E0,-7.329718709E-2,9.098015755E0
7.310400583E0,7.322545930E0,5.196368510E0,2.098858058E-1,8.981423976E0
7.320455583E0,7.287699448E0,4.850887527E0,5.650469271E-1,8.772739086E0
7.330510583E0,7.191564206E0,4.593548058E0,7.687674288E-1,8.567980092E0
7.340565583E0,7.208180823E0,4.451519190E0,7.241226947E-1,8.502837618E0
7.350620583E0,7.249126536E0,4.423625048E0,5.175195158E-1,8.508003323E0
7.360675583E0,7.212691365E0,4.557616918E0,4.437673422E-1,8.543519074E0
7.370730583E0,6.906648098E0,4.878330849E0,3.738043106E-1,8.464019701E0
7.380785583E0,6.569787081E0,5.327702236E0,1.254075730E-1,8.459446818E0
7.390840583E0,6.289862157E0,5.807553989E0,-1.979995493E-1,8.563250148E0
7.400895583E0,6.080083355E0,6.173484439E0,-4.335219240E-1,8.675670866E0
7.410950583E0,6.026285462E0,6.307536535E0,-5.293250442E-1,8.739640646E0
7.421005583E0,6.038738862E0,6.155511267E0,-5.235082340E-1,8.638908894E0
7.431060583E0,6.093685148E0,5.693954283E0,-3.892526543E-1,8.348989860E0
7.441115583E0,6.094926512E0,5.077869422E0,-1.919851398E-1,7.935347840E0
7.451170583E0,6.145365179E0,4.282498990E0,-3.585530911E-3,7.490348699E0
7.461225583E0,6.087758410E0,3.397503020E0,3.245707548E-1,6.979195900E0
7.471280583E0,5.961649756E0,2.429858996E0,5.744409907E-1,6.463394233E0
7.481335583E0,5.824305092E0,1.491016603E0,8.617146957E-1,6.073566706E0
7.491390583E0,5.480314565E0,7.853664315E-1,1.170251216E0,5.658633763E0
7.501445583E0,5.099760813E0,2.639339590E-1,1.410023310E0,5.297677531E0
7.511500583E0,4.799998040E0,-1.301835787E-1,1.646067220E0,5.076067990E0
7.521556583E0,4.561632201E0,-4.505876076E-1,1.891194195E0,4.958642255E0
7.531611583E0,4.344892874E0,-7.394757289E-1,2.187067984E0,4.920181379E0
7.541666583E0,4.006166595E0,-9.100676608E-1,2.500976926E0,4.809623636E0
7.551721583E0,3.591598420E0,-9.267585379E-1,2.676095188E0,4.573832753E0
7.561776583E0,3.205160031E0,-8.879745412E-1,2.567562679E0,4.201657735E0
7.571831583E0,2.776860840E0,-9.127953869E-1,2.339509574E0,3.743989395E0
7.581886583E0,2.382520523E0,-1.007034377E0,2.103726450E0,3.334094668E0
7.591941583E0,2.013280549E0,-1.165262371E0,1.811183234E0,2.948138340E0
7.601996583E0,1.645356199E0,-1.385694800E0,1.555884444E0,2.654830221E0
7.612051583E0,1.223473157E0,-1.634165797E0,1.330958430E0,2.436972458E0
7.622106583E0,8.379130197E-1,-1.913637562E0,1.123800935E0,2.372137325E0
7.632161583E0,5.188228601E-1,-2.205126525E0,9.727135599E-1,2.465346187E0
7.642216583E0,2.050051349E-1,-2.494764844E0,9.646560967E-1,2.682618146E0
7.652271583E0,-1.463458675E-1,-2.727491921E0,1.015832098E0,2.914196998E0
7.662326583E0,-3.169214272E-1,-2.980951762E0,1.022613698E0,3.167372946E0
7.672381583E0,-4.074714088E-1,-3.259933239E0,1.112190703E0,3.468452945E0
7.682436583E0,-4.569832921E-1,-3.558203217E0,1.216245414E0,3.787993766E0
7.692491583E0,-5.015858531E-1,-3.861732767E0,1.345216280E0,4.119972715E0
7.702546583E0,-5.872803068E-1,-4.081422014E0,1.445574381E0,4.369506735E0
7.712601583E0,-7.532429981E-1,-4.203229457E0,1.527236595E0,4.535081531E0
7.722656583E0,-9.673914242E-1,-4.264478748E0,1.612010697E0,4.660493928E0
7.732711583E0,-1.189837049E0,-4.290682168E0,1.663833400E0,4.753315396E0
7.742766583E0,-1.397103887E0,-4.318267870E0,1.738331605E0,4.860157758E0
7.752821583E0,-1.601559384E0,-4.369587712E0,1.828832470E0,5.000291735E0
7.762876583E0,-1.784864917E0,-4.412449557E0,1.909626957E0,5.128560127E0
7.772931583E0,-1.975224531E0,-4.488736133E0,2.024514220E0,5.305555753E0
7.782986583E0,-2.107287405E0,-4.605053625E0,2.136624055E0,5.496575429E0
7.793042583E0,-2.175111598E0,-4.752194129E0,2.166537241E0,5.657591636E0
7.803097583E0,-2.132642686E0,-5.046540626E0,2.097842982E0,5.866573300E0
7.813152583E0,-2.016056222E0,-5.514735954E0,1.935292726E0,6.182406753E0
7.823207583E0,-1.857370391E0,-6.148498117E0,1.695349892E0,6.642895838E0
7.833262583E0,-1.633983364E0,-6.900335444E0,1.493715677E0,7.246772896E0
7.843317583E0,-1.469919264E0,-7.497106951E0,1.410508629E0,7.768964531E0
7.853372583E0,-1.485776328E0,-7.930528303E0,1.379679769E0,8.185617065E0
7.863427583E0,-1.519490789E0,-8.247124625E0,1.385521138E0,8.499622678E0
7.873482583E0,-1.621473246E0,-8.265203047E0,1.510430528E0,8.557111503E0
7.883537583E0,-1.834403697E0,-7.894197214E0,1.625465140E0,8.265925447E0
7.893592583E0,-1.839641048E0,-7.355992003E0,1.669834982E0,7.764228642E0
7.903647583E0,-1.460899934E0,-6.949062631E0,1.575869057E0,7.273724174E0
7.913702583E0,-1.097638153E0,-6.695571215E0,1.397241297E0,6.927320308E0
7.923757583E0,-8.836704057E-1,-6.577232925E0,1.269048110E0,6.756578235E0
7.933812583E0,-8.312495327E-1,-6.443291926E0,1.041876692E0,6.579703160E0
7.943867583E0,-9.101471829E-1,-6.175354378E0,7.856938025E-1,6.291318172E0
7.953922583E0,-1.272992642E0,-5.793089147E0,5.704298738E-1,5.958672870E0
7.963977583E0,-2.033476247E0,-5.433270206E0,5.409855982E-1,5.826501197E0
7.974032583E0,-2.762928094E0,-5.146804002E0,6.797084141E-1,5.880932461E0
7.984087583E0,-3.241951881E0,-4.978526983E0,8.764800847E-1,6.005347638E0
7.994142583E0,-3.512000273E0,-4.998874124E0,1.033089570E0,6.195979542E0
8.004197583E0,-3.470396749E0,-5.206687092E0,1.032462748E0,6.341862770E0
8.014252583E0,-3.218771764E0,-5.441077409E0,9.119797003E-1,6.387293794E0
8.024307583E0,-2.942625895E0,-5.527991592E0,6.320933676E-1,6.294225943E0
8.034362583E0,-2.700665188E0,-5.461535062E0,2.056933522E-1,6.096250278E0
8.044417583E0,-2.610932647E0,-5.400408854E0,-3.222973573E-1,6.007100854E0
8.054472583E0,-2.737162338E0,-5.381686070E0,-7.824217737E-1,6.088249868E0
8.064527583E0,-2.922178182E0,-5.409662658E0,-1.202398623E0,6.264929197E0
8.074582583E0,-3.084236103E0,-5.484940297E0,-1.493066636E0,6.467327916E0
8.084638583E0,-3.339396899E0,-5.570923603E0,-1.675634835E0,6.707794984E0
8.094693583E0,-3.499124705E0,-5.601294041E0,-1.824468693E0,6.851792076E0
8.104748583E0,-3.604914284E0,-5.509054799E0,-1.781833720E0,6.820558862E0
8.114803583E0,-3.513363844E0,-5.168493079E0,-1.600446659E0,6.451238309E0
8.124858583E0,-3.328363788E0,-4.553739629E0,-1.415723761E0,5.815395419E0
8.134913583E0,-3.226009448E0,-3.844753622E0,-1.313994488E0,5.188048658E0
8.144968583E0,-3.131685088E0,-3.224128398E0,-1.252931430E0,4.666078931E0
8.155023583E0,-3.066396248E0,-2.728334505E0,-1.214920435E0,4.280493754E0
8.165078583E0,-2.972542005E0,-2.285277088E0,-1.183035568E0,3.931675278E0
8.175133583E0,-2.789075089E0,-2.048571565E0,-1.240021362E0,3.676035675E0
8.185188583E0,-2.580071627E0,-1.854237745E0,-1.457801494E0,3.495733459E0
8.195243583E0,-2.333501560E0,-1.393200871E0,-1.781088785E0,3.249386936E0
8.205298583E0,-1.977140079E0,-8.204851010E-1,-2.160035722E0,3.041057877E0
8.215353583E0,-1.405294082E0,-1.949330136E-1,-2.544259186E0,2.913092024E0
8.225408583E0,-7.750244612E-1,3.731845057E-1,-2.731121580E0,2.863381685E0
8.235463583E0,-2.816048294E-1,8.131909919E-1,-2.339459288E0,2.492719525E0
8.245518583E0,2.051986778E-1,9.784540638E-1,-1.783308388E0,2.044423552E0
8.255573583E0,6.749195445E-1,8.711082476E-1,-1.198235990E0,1.627917522E0
8.265628583E0,1.133769268E0,7.812084764E-1,-6.733279324E-1,1.532674114E0
8.275683583E0,1.502732669E0,6.233473948E-1,-2.039777609E-1,1.639626291E0
8.285740958E0,1.724353251E0,3.428076357E-1,1.970997177E-1,1.769112633E0
8.295795958E0,1.825096684E0,2.309240878E-2,5.349138129E-1,1.902010503E0
8.305850958E0,1.862114237E0,-2.511630553E-1,7.382033747E-1,2.018785906E0
8.315905958E0,1.951674285E0,-4.175999558E-1,9.051729566E-1,2.191520093E0
8.325960958E0,2.123622771E0,-4.486527640E-1,1.074408334E0,2.421862144E0
8.336015958E0,2.449574638E0,-1.560668635E-1,1.164633796E0,2.716826209E0
8.346070958E0,2.845010138E0,3.613491565E-1,1.113794594E0,3.076555590E0
8.356126958E0,3.282122837E0,9.220737487E-1,9.324274135E-1,3.534398280E0
8.366181958E0,3.671311757E0,1.350992745E0,6.088845992E-1,3.959097355E0
8.376236958E0,4.000883051E0,1.647517329E0,2.160306265E-1,4.332210494E0
8.386291958E0,4.227774898E0,1.881152771E0,-1.447092319E-1,4.629660582E0
8.396346958E0,4.451466565E0,2.093796124E0,-4.179718387E-1,4.937027167E0
8.406401958E0,4.705477799E0,2.284351035E0,-6.428756332E-1,5.270016134E0
8.416456958E0,4.957823746E0,2.448070149E0,-8.247550303E-1,5.590463721E0
8.426511958E0,5.262913917E0,2.582744390E0,-9.177678591E-1,5.933896639E0
8.436566958E0,5.428783053E0,2.717372437E0,-9.115277106E-1,6.138947888E0
8.446621958E0,5.550381750E0,3.056744834E0,-8.520235205E-1,6.393463117E0
8.456676958E0,5.715225284E0,3.579514564E0,-6.795382601E-1,6.777794391E0
8.466731958E0,5.980063807E0,3.859540061E0,-6.533462423E-1,7.147312357E0
8.476786958E0,6.412933767E0,3.782874877E0,-7.631569523E-1,7.484535414E0
8.486841958E0,6.975261081E0,3.518402975E0,-6.956216115E-1,7.843297525E0
8.496896958E0,7.543720370E0,3.134239152E0,-5.237807143E-1,8.185689850E0
8.506951958E0,7.997602299E0,2.709995005E0,-2.271619892E-1,8.447326087E0
8.517006958E0,8.114588712E0,2.387343307E0,1.603131298E-1,8.460003447E0
8.527061958E0,7.917384932E0,2.367545804E0,7.522828853E-1,8.297962812E0
8.537116958E0,7.431722801E0,2.705439439E0,1.410470037E0,8.033637537E0
8.547171958E0,6.688263364E0,3.270921326E0,1.960878972E0,7.699145374E0
8.557226958E0,5.871228998E0,3.894505826E0,2.264669892E0,7.400488855E0
8.567281958E0,5.299832067E0,4.323096793E0,2.353001440E0,7.232841876E0
8.577336958E0,4.932748547E0,4.442151951E0,2.128581795E0,6.971053194E0
8.587391958E0,4.651423799E0,4.261326807E0,1.714136996E0,6.537041774E0
8.597446958E0,4.352859120E0,3.742583469E0,1.224620966E0,5.869753832E0
8.607501958E0,4.074893013E0,3.031456795E0,7.704045761E-1,5.136925791E0
8.617556958E0,3.909088197E0,2.253260220E0,4.581258380E-1,4.535199161E0
8.627611958E0,3.801683031E0,1.534264948E0,4.179461110E-1,4.120854493E0
8.637666958E0,3.602662522E0,9.804236984E-1,3.194930327E-1,3.747330206E0
8.647722958E0,3.333357310E0,5.681166422E-1,1.722508053E-1,3.385808296E0
8.657777958E0,2.992159998E0,3.632372224E-1,1.461698755E-1,3.017669360E0
8.667832958E0,2.628736249E0,2.778515017E-1,2.903528488E-1,2.659278192E0
8.677887958E0,2.299318153E0,3.089505029E-1,5.894356271E-1,2.393689357E0
8.687942958E0,1.975354339E0,4.595671767E-1,9.524810243E-1,2.240635369E0
8.697997958E0,1.662915387E0,7.120669055E-1,1.301073310E0,2.228254613E0
8.708052958E0,1.335778289E0,9.625756574E-1,1.616572695E0,2.307414746E0
8.718107958E0,1.009405423E0,1.164050828E0,1.892438482E0,2.440335437E0
8.728162958E0,6.658616227E-1,1.283539850E0,2.064479939E0,2.520500677E0
8.738217958E0,3.600411344E-1,1.364793343E0,2.141099514E0,2.564487788E0
8.748272958E0,3.875534534E-3,1.420929537E0,2.146285994E0,2.574023958E0
8.758327958E0,-2.718370557E-1,1.531340756E0,2.047134758E0,2.570926023E0
8.768382958E0,-4.153610569E-1,1.616834650E0,1.817147394E0,2.467529888E0
8.778437958E0,-5.007397610E-1,1.653996044E0,1.492893559E0,2.283675634E0
8.788492958E0,-5.782755947E-1,1.697461907E0,1.170844123E0,2.141647858E0
8.798547958E0,-6.629730982E-1,1.628956513E0,8.860706878E-1,1.969302900E0
8.808602958E0,-6.996164292E-1,1.489049014E0,5.974544621E-1,1.750337667E0
8.818657958E0,-6.949866039E-1,1.225132012E0,3.778728032E-1,1.458335586E0
8.828712958E0,-6.702259845E-1,8.563680017E-1,2.676516187E-1,1.119913574E0
8.838767958E0,-6.004955989E-1,4.485369891E-1,2.334699655E-1,7.850405210E-1
8.848822958E0,-6.024473995E-1,6.078706920E-2,2.225333333E-1,6.451038842E-1
8.858877958E0,-6.764602858E-1,-1.862349880E-1,1.972371089E-1,7.288240296E-1
8.868932958E0,-7.731866813E-1,-3.346229956E-1,1.423165603E-1,8.544262382E-1
8.878987958E0,-8.728483790E-1,-4.344519237E-1,1.643535376E-1,9.887491350E-1
8.889042958E0,-9.787981725E-1,-6.051306868E-1,2.367783018E-1,1.174858704E0
8.899097958E0,-9.720037079E-1,-8.596234390E-1,3.769793487E-1,1.351242796E0
8.909152958E0,-8.526912725E-1,-1.186033435E0,6.180448472E-1,1.586107547E0
8.919207958E0,-7.692924356E-1,-1.432127540E0,8.971020448E-1,1.856769296E0
8.929263958E0,-7.876070845E-1,-1.568567347E0,1.067715611E0,2.054445197E0
8.939318958E0,-7.969059116E-1,-1.749403893E0,1.085306375E0,2.207569464E0
8.949373958E0,-8.596325022E-1,-1.975316332E0,1.055030735E0,2.398735605E0
8.959428958E0,-8.405343264E-1,-2.290707835E0,9.903792409E-1,2.633380220E0
8.969483958E0,-6.928026688E-1,-2.693478667E0,9.174211192E-1,2.928560121E0
8.979538958E0,-5.990799880E-1,-3.184822245E0,8.752942693E-1,3.356803483E0
8.989593958E0,-4.664113426E-1,-3.816484381E0,8.206428297E-1,3.931481556E0
8.999648958E0,-3.238199723E-1,-4.487580138E0,8.703860434E-1,4.582663716E0
9.009703958E0,-4.261906850E-1,-5.002438002E0,1.034629726E0,5.126059220E0
9.019758958E0,-7.108378208E-1,-5.257242118E0,1.209432238E0,5.441195773E0
9.029813958E0,-1.061475463E0,-5.208323143E0,1.371705337E0,5.489529638E0
9.039868958E0,-1.253036095E0,-4.984589376E0,1.443834250E0,5.338622298E0
9.049923958E0,-1.063700328E0,-4.891561052E0,1.415158335E0,5.202066996E0
9.059978958E0,-7.068441725E-1,-5.047335847E0,1.452088180E0,5.299413922E0
9.070033958E0,-5.177013642E-1,-5.178247989E0,1.535344344E0,5.425822444E0
9.080088958E0,-2.140858608E-1,-5.265966164E0,1.472103199E0,5.472048997E0
9.090143958E0,1.468662697E-1,-5.497636356E0,1.183413298E0,5.625481512E0
9.100198958E0,3.060537922E-1,-5.769345943E0,1.027935834E0,5.868191681E0
9.110253958E0,1.468247545E-1,-5.854280258E0,1.151132063E0,5.968187319E0
9.120308958E0,-3.492892742E-1,-5.552632928E0,1.346983309E0,5.724342710E0
9.130363958E0,-1.099281805E0,-5.008010398E0,1.506449744E0,5.343966641E0
9.140418958E0,-1.639835258E0,-4.690784331E0,1.639781463E0,5.232724009E0
9.150473958E0,-1.778590854E0,-4.709209200E0,1.749136090E0,5.329119419E0
9.160528958E0,-1.823696861E0,-4.878184084E0,1.764419543E0,5.498702258E0
9.170583958E0,-1.922213674E0,-5.134820133E0,1.580898832E0,5.706182991E0
9.180638958E0,-2.067250934E0,-5.400693029E0,1.343065528E0,5.936736194E0
9.190693958E0,-2.343443581E0,-5.623536265E0,1.124368188E0,6.195166807E0
9.200748958E0,-2.708467128E0,-5.784823523E0,9.076738838E-1,6.451654768E0
9.210804958E0,-2.905108405E0,-5.888495826E0,6.807807934E-1,6.601325656E0
9.220859958E0,-3.102587589E0,-5.900509515E0,4.262702437E-1,6.680102440E0
9.230914958E0,-3.281116531E0,-5.799129320E0,1.351618616E-1,6.664375087E0
9.240969958E0,-3.419423647E0,-5.576386657E0,-1.697762636E-1,6.543498315E0
9.251024958E0,-3.544901971E0,-5.177146958E0,-4.268210149E-1,6.288986945E0
9.261079958E0,-3.581766327E0,-4.601280416E0,-6.984908402E-1,5.872709847E0
9.271134958E0,-3.588447356E0,-3.914620540E0,-9.203780562E-1,5.389647870E0
9.281189958E0,-3.534390432E0,-3.187090088E0,-9.940061957E-1,4.861841962E0
9.291243083E0,-3.478486957E0,-2.417302393E0,-8.774752808E-1,4.325873928E0
9.301298083E0,-3.406727588E0,-1.801332430E0,-6.987405163E-1,3.916481800E0
9.311353083E0,-3.375668932E0,-1.315953597E0,-5.643229687E-1,3.666788107E0
9.321408083E0,-3.313314809E0,-9.616073585E-1,-4.890242432E-1,3.484521265E0
9.331463083E0,-3.251934832E0,-6.205959874E-1,-5.018875329E-1,3.348448989E0
9.341518083E0,-3.172160100E0,-2.757304242E-1,-5.959710234E-1,3.239414828E0
9.351573083E0,-3.064902284E0,3.992186487E-3,-7.582072842E-1,3.157296349E0
9.361628083E0,-2.864747415E0,1.851555920E-1,-9.140648174E-1,3.012735440E0
9.371683083E0,-2.643585253E0,2.230037418E-1,-9.682439482E-1,2.824140578E0
9.381738083E0,-2.413733545E0,2.503991166E-1,-1.011936098E0,2.629224983E0
9.391793083E0,-2.056362834E0,2.601142654E-1,-9.842354983E-1,2.294560318E0
9.401848083E0,-1.724925109E0,2.647753733E-1,-9.044917560E-1,1.965598628E0
9.411903083E0,-1.435551669E0,3.411306542E-1,-9.187478524E-1,1.738181905E0
9.421958083E0,-1.049664672E0,4.248639518E-1,-1.056622274E0,1.548791765E0
9.432013083E0,-7.031779683E-1,5.101906157E-1,-1.108193547E0,1.408135880E0
9.442068083E0,-3.788720924E-1,5.928468561E-1,-1.073673339E0,1.283661130E0
9.452123083E0,6.974851191E-2,6.057680333E-1,-9.089958662E-1,1.094574461E0
9.462178083E0,5.195379746E-1,5.179954791E-1,-6.648629183E-1,9.900917753E-1
9.472233083E0,8.914852095E-1,5.930386448E-1,-4.756411360E-1,1.171612224E0
9.482289083E0,1.299491054E0,8.097165763E-1,-3.664239550E-1,1.574352072E0
9.492344083E0,1.659319934E0,1.041275672E0,-2.627504460E-1,1.976521051E0
9.502399083E0,2.045498707E0,1.194083882E0,-1.429527283E-1,2.372833066E0
9.512454083E0,2.417140718E0,1.235601452E0,-3.126445910E-2,2.714821847E0
9.522509083E0,2.836313574E0,1.305559294E0,3.133541141E-3,3.122366023E0
9.532564083E0,3.259444411E0,1.372642061E0,-2.969859302E-2,3.536807332E0
9.542619083E0,3.706787399E0,1.372219892E0,-7.802698156E-2,3.953397079E0
9.552674083E0,4.120103685E0,1.239956458E0,-1.850368935E-1,4.306621070E0
9.562729083E0,4.572154266E0,1.095360078E0,-3.387251097E-1,4.713718599E0
9.572784083E0,4.947318054E0,1.076097010E0,-4.789267230E-1,5.085598441E0
9.582839083E0,5.287698510E0,1.151906161E0,-5.711484236E-1,5.441769369E0
9.592894083E0,5.680719695E0,1.351381000E0,-6.131934124E-1,5.871355297E0
9.602949083E0,6.019937140E0,1.709595464E0,-6.435755450E-1,6.290989533E0
9.613004083E0,6.222125087E0,2.203385224E0,-5.683224642E-1,6.625159429E0
9.623059083E0,6.281764932E0,2.690288134E0,-3.690440923E-1,6.843567378E0
9.633114083E0,6.413940657E0,3.011583279E0,-2.116639259E-1,7.088939993E0
9.643169083E0,6.588489400E0,3.092723336E0,-4.357871354E-2,7.278394694E0
9.653224083E0,6.603037273E0,2.972521539E0,1.936580100E-1,7.243858706E0
9.663279083E0,6.491905677E0,2.715299599E0,4.026661305E-1,7.048392103E0
9.673334083E0,6.228593861E0,2.355061414E0,4.608570725E-1,6.674884643E0
9.683389083E0,5.882127038E0,1.926603178E0,2.906282344E-1,6.196425023E0
9.693444083E0,5.409024727E0,1.581592312E0,9.829401573E-2,5.636368019E0
9.703499083E0,4.785986942E0,1.538760872E0,7.336324235E-2,5.027806500E0
9.713554083E0,4.080853665E0,1.914588320E0,5.071873030E-2,4.507947144E0
9.723609083E0,3.527645084E0,2.472664123E0,-1.333989443E-1,4.310004986E0
9.733664083E0,3.265050137E0,2.993562745E0,-4.085993367E-1,4.448474314E0
9.743719083E0,3.192393805E0,3.357279439E0,-6.708925670E-1,4.681111008E0
9.753775083E0,3.235824584E0,3.358421400E0,-7.805372161E-1,4.728508579E0
9.763830083E0,3.264857179E0,3.079814438E0,-7.384121203E-1,4.548604383E0
9.773885083E0,3.292056087E0,2.527500481E0,-6.529158872E-1,4.201451073E0
9.783940083E0,3.264416884E0,1.836413970E0,-5.079406071E-1,3.779793317E0
9.793995083E0,3.195661229E0,1.330597072E0,-3.418071771E-1,3.478443819E0
9.804050083E0,3.063470301E0,1.037329386E0,-1.638202898E-1,3.238477980E0
9.814105083E0,2.868363333E0,8.405460209E-1,2.887921538E-3,2.988985474E0
9.824160083E0,2.716094820E0,7.005899906E-1,1.096768270E-1,2.807138475E0
9.834215083E0,2.620617390E0,5.717769992E-1,2.600157581E-1,2.694841858E0
9.844270083E0,2.552790273E0,4.984008747E-1,4.917631155E-1,2.647068676E0
9.854325083E0,2.415104717E0,5.543441105E-1,7.888542956E-1,2.600445978E0
9.864380083E0,2.146107069E0,7.950652081E-1,1.122023381E0,2.548890093E0
9.874435083E0,1.899172720E0,1.110450572E0,1.382269501E0,2.598196772E0
9.884490083E0,1.651139095E0,1.434560566E0,1.544163115E0,2.677436097E0
9.894545083E0,1.442725618E0,1.688543149E0,1.663479059E0,2.774850942E0
9.904600083E0,1.262429062E0,1.968027193E0,1.791873389E0,2.945788250E0
9.914655083E0,9.399855244E-1,2.156963010E0,1.741149963E0,2.927057465E0
9.924710083E0,5.362955099E-1,2.235477667E0,1.633133179E0,2.819946321E0
9.934765083E0,1.947742617E-1,2.299459655E0,1.476944693E0,2.739857176E0
9.944820083E0,-6.685180128E-2,2.296367648E0,1.277473948E0,2.628633338E0
9.954875083E0,-2.588702703E-1,2.253511065E0,1.103454963E0,2.522486629E0
9.964930083E0,-3.975761658E-1,2.163382083E0,8.984585989E-1,2.376029608E0
9.974985083E0,-5.378713346E-1,1.946832790E0,7.470274079E-1,2.153488666E0
9.985040083E0,-6.970787376E-1,1.653317183E0,6.689004207E-1,1.914890139E0
9.995095083E0,-7.302026296E-1,1.313232595E0,6.481486523E-1,1.636420608E0
1.000515108E1,-6.355777234E-1,9.456052834E-1,7.107606375E-1,1.342873441E0
1.001520608E1,-6.290007752E-1,5.229012930E-1,7.437167144E-1,1.105523536E0
1.002526108E1,-6.595062840E-1,8.638559461E-2,7.404411042E-1,9.953210730E-1
1.003531608E1,-6.885517430E-1,-3.387254021E-1,7.695859659E-1,1.086784689E0
1.004537108E1,-6.511108518E-1,-7.151340625E-1,8.473083258E-1,1.285804599E0
1.005542608E1,-7.319948012E-1,-1.078529744E0,8.911589348E-1,1.578989248E0
1.006548108E1,-8.635939908E-1,-1.402288906E0,9.401726353E-1,1.896347368E0
1.007553608E1,-9.390710199E-1,-1.627871562E0,9.796156132E-1,2.119308131E0
1.008559108E1,-8.958220893E-1,-1.840515499E0,9.784262896E-1,2.268768944E0
1.009564608E1,-7.580008775E-1,-2.103124479E0,1.007154756E0,2.451949961E0
1.010570108E1,-5.996413207E-1,-2.472992152E0,1.122583471E0,2.781268334E0
1.011575608E1,-4.767743629E-1,-2.836628447E0,1.287445790E0,3.151395151E0
1.012581108E1,-3.931632721E-1,-3.174562136E0,1.334121773E0,3.465876948E0
1.013586608E1,-2.734380233E-1,-3.607144412E0,1.339730422E0,3.857607648E0
1.014592108E1,-1.581929111E-1,-4.060753861E0,1.277252923E0,4.259826516E0
1.015597608E1,-1.011164850E-1,-4.480264395E0,1.170886223E0,4.631842845E0
1.016603108E1,-2.115282887E-1,-4.818743629E0,1.156422551E0,4.960075352E0
1.017608608E1,-5.071442163E-1,-4.999743605E0,1.258841211E0,5.180667193E0
1.018614108E1,-7.838601887E-1,-4.982665057E0,1.360143052E0,5.224114948E0
1.019619608E1,-9.503041059E-1,-4.946619312E0,1.480263573E0,5.250076262E0
1.020625108E1,-1.146429659E0,-4.969838605E0,1.641385939E0,5.357960855E0
1.021630608E1,-1.263441800E0,-4.949595544E0,1.626267378E0,5.360925929E0
1.022636108E1,-1.242089522E0,-4.907641772E0,1.516143258E0,5.284545820E0
1.023641608E1,-1.183874643E0,-4.934949439E0,1.390445663E0,5.261998126E0
1.024647108E1,-1.101407853E0,-5.064931873E0,1.157602592E0,5.310995942E0
1.025652608E1,-1.089849077E0,-5.382521052E0,8.176934210E-1,5.552290196E0
1.026658108E1,-1.403321232E0,-5.827731560E0,5.684089299E-1,6.021200406E0
1.027663608E1,-1.981146006E0,-6.079160664E0,5.955949744E-1,6.421515962E0
1.028669196E1,-2.728276910E0,-6.083983448E0,7.605285557E-1,6.710942793E0
1.029674696E1,-3.255753649E0,-6.220203692E0,8.704855192E-1,7.074504281E0
1.030680196E1,-3.387669758E0,-6.435899291E0,9.240938886E-1,7.331511139E0
1.031685696E1,-3.330701505E0,-6.640060088E0,9.431312533E-1,7.488221888E0
1.032691196E1,-3.209778746E0,-6.663822588E0,8.079039395E-1,7.440559109E0
1.033696696E1,-3.113867453E0,-6.454742528E0,5.868090212E-1,7.190564404E0
1.034702196E1,-2.871268814E0,-6.176455409E0,2.973812385E-1,6.817713812E0
1.035707696E1,-2.427904272E0,-5.844888461E0,6.942505125E-2,6.329475500E0
1.036713196E1,-2.049607546E0,-5.469518850E0,-3.770986319E-2,5.841057231E0
1.037718696E1,-1.815521284E0,-5.098158091E0,-1.187417106E-1,5.413079812E0
1.038724196E1,-1.751440478E0,-4.916815469E0,-1.751989166E-1,5.222385735E0
1.039729696E1,-1.680540065E0,-4.802233431E0,-2.428149490E-1,5.093586156E0
1.040735196E1,-1.656189920E0,-4.610952296E0,-2.974747574E-1,4.908394580E0
1.041740696E1,-1.728743341E0,-4.356057547E0,-3.626337898E-1,4.700563175E0
1.042746196E1,-1.894975589E0,-4.067161825E0,-3.911003745E-1,4.503964620E0
1.043751696E1,-2.096440235E0,-3.702683531E0,-3.532981253E-1,4.269630728E0
1.044757196E1,-2.223796100E0,-3.214990954E0,-2.392797589E-1,3.916464060E0
1.045762696E1,-2.291047851E0,-2.640662815E0,-1.526883515E-1,3.499330520E0
1.046768196E1,-2.400758573E0,-2.087467390E0,7.602549791E-3,3.181386432E0
1.047773696E1,-2.535310022E0,-1.552777525E0,1.325797677E-1,2.975985945E0
1.048779196E1,-2.628167315E0,-1.150960667E0,1.686144036E-1,2.874091980E0
1.049784696E1,-2.725316464E0,-7.456001025E-1,1.561697745E-1,2.829780617E0
1.050790196E1,-2.686573983E0,-3.822620156E-1,1.157193122E-1,2.716099220E0
1.051795696E1,-2.563966057E0,-6.133758456E-2,3.145100355E-2,2.564892474E0
1.052801196E1,-2.409693119E0,2.071031159E-1,-5.829732478E-2,2.419279067E0
1.053806696E1,-2.148727791E0,4.066180077E-1,-1.653721225E-1,2.193106761E0
1.054812196E1,-1.800268822E0,5.760337722E-1,-3.208349687E-1,1.917216163E0
1.055817696E1,-1.491124191E0,7.059308374E-1,-5.317914363E-1,1.733375849E0
1.056823196E1,-1.284888802E0,7.516832533E-1,-7.096058124E-1,1.649092889E0
1.057828796E1,-1.112930376E0,7.295380935E-1,-8.625894392E-1,1.585843748E0
1.058834296E1,-8.666058916E-1,5.818102366E-1,-8.744002301E-1,1.361647783E0
1.059839796E1,-6.059376025E-1,4.176660293E-1,-8.849983084E-1,1.151011423E0
1.060845296E1,-2.490527952E-1,2.764358908E-1,-8.226652354E-1,9.028965533E-1
1.061850796E1,1.135061502E-1,1.626438117E-1,-6.617773426E-1,6.908588182E-1
1.062856296E1,5.875668204E-1,1.410962373E-1,-5.059519690E-1,7.881182091E-1
1.063861796E1,1.021344852E0,3.190802193E-1,-3.976673824E-1,1.141532672E0
1.064867296E1,1.321354963E0,5.848507887E-1,-2.181368119E-1,1.461373686E0
1.065872796E1,1.589052774E0,9.006834644E-1,-1.842340708E-2,1.826652360E0
1.066878296E1,1.934992179E0,1.211974023E0,9.157792211E-2,2.285051921E0
1.067883796E1,2.205401929E0,1.381205308E0,1.736424243E-1,2.608002581E0
1.068889296E1,2.524019049E0,1.528211911E0,2.385242987E-1,2.960236079E0
1.069894796E1,2.850212406E0,1.690425367E0,3.036096561E-1,3.327675992E0
1.070900296E1,3.193483726E0,1.901306369E0,3.134902811E-1,3.729823102E0
1.071905796E1,3.569490682E0,2.025319966E0,3.057590926E-1,4.115418973E0
1.072911296E1,3.930892464E0,2.187024130E0,2.610009956E-1,4.505897428E0
1.073916796E1,4.314745215E0,2.449460617E0,1.629455280E-1,4.964215429E0
1.074922296E1,4.629306706E0,2.747838770E0,-1.228500237E-2,5.383423576E0
1.075927796E1,4.967418442E0,3.074912133E0,-2.707050347E-1,5.848385403E0
1.076933296E1,5.233616443E0,3.344703248E0,-5.162951088E-1,6.232522886E0
1.077938796E1,5.384765798E0,3.437165269E0,-7.038515675E-1,6.426913320E0
1.078944296E1,5.484401768E0,3.306464211E0,-8.720332772E-1,6.463111509E0
1.079949796E1,5.619333286E0,2.956118345E0,-1.012029068E0,6.429599139E0
1.080955296E1,5.765017249E0,2.465662667E0,-1.033999397E0,6.354846263E0
1.081960796E1,5.886075663E0,1.964167446E0,-9.902148610E-1,6.283658643E0
1.082966296E1,6.097627925E0,1.353544469E0,-9.305989891E-1,6.314995125E0
1.083971796E1,6.201604283E0,7.694748688E-1,-7.300178576E-1,6.291654261E0
1.084977296E1,5.979800683E0,5.427128291E-1,-3.305816925E-1,6.013471350E0
1.085982796E1,5.485201668E0,7.337460423E-1,7.816908717E-2,5.534612091E0
1.086988296E1,4.966130301E0,1.378096343E0,2.563045120E-1,5.160163922E0
1.087993896E1,4.630394872E0,2.350465502E0,9.931437314E-2,5.193756646E0
1.088999396E1,4.441614591E0,3.277937985E0,-1.920892203E-1,5.523560073E0
1.090004896E1,4.373959383E0,3.884474342E0,-5.145561469E-1,5.872429619E0
1.091010396E1,4.422549745E0,4.115820014E0,-7.488762975E-1,6.087670847E0
1.092015896E1,4.475519087E0,3.972141647E0,-8.204643434E-1,6.039978650E0
1.093021396E1,4.460937300E0,3.350090872E0,-7.852670288E-1,5.633801093E0
1.094026896E1,4.299948251E0,2.517461396E0,-6.125858867E-1,5.020202019E0
1.095032396E1,4.107874233E0,1.780197085E0,-4.634701931E-1,4.500948455E0
1.096037896E1,4.044621978E0,1.235455856E0,-2.943581915E-1,4.239335427E0
1.097043396E1,3.823990159E0,8.314079922E-1,-4.630985660E-3,3.913331245E0
1.098048896E1,3.506403319E0,6.296819758E-1,2.884337926E-1,3.574151323E0
1.099054396E1,3.273346751E0,6.208123344E-1,5.813488913E-1,3.382036878E0
1.100059896E1,3.084236687E0,7.836836028E-1,8.971558392E-1,3.306291659E0
1.101065396E1,2.764756519E0,1.037309505E0,1.189252328E0,3.183427511E0
1.102070896E1,2.438809329E0,1.295264102E0,1.406545386E0,3.099011126E0
1.103076396E1,2.029756249E0,1.522506198E0,1.552104803E0,2.974384789E0
1.104081896E1,1.655699923E0,1.703438346E0,1.629010892E0,2.880402909E0
1.105087396E1,1.308495766E0,1.855527349E0,1.630498424E0,2.795293906E0
1.106092896E1,9.964076471E-1,1.957323865E0,1.508683380E0,2.664595739E0
1.107098396E1,7.438576323E-1,1.998519838E0,1.239071774E0,2.466313967E0
1.108103896E1,5.171277523E-1,2.008901569E0,9.281951988E-1,2.272587282E0
1.109109396E1,3.345548755E-1,1.933002956E0,6.700301027E-1,2.073009342E0
1.110114896E1,1.713783824E-1,1.821985381E0,4.252434361E-1,1.878785048E0
1.111120396E1,4.560652792E-2,1.759651138E0,2.092507982E-1,1.772635885E0
1.112125896E1,-6.500875890E-2,1.700926967E0,4.205083609E-2,1.702688156E0
1.113131396E1,-1.855894554E-1,1.572450775E0,-1.010159129E-1,1.586584098E0
1.114136896E1,-2.561419594E-1,1.414749615E0,-2.031790495E-1,1.452035434E0
1.115142396E1,-2.422507292E-1,1.234203383E0,-2.857417345E-1,1.289802987E0
1.116147896E1,-1.952549028E-1,9.985179073E-1,-3.181259537E-1,1.066004977E0
1.117153396E1,-1.720239151E-1,7.131281751E-1,-2.516033324E-1,7.755309526E-1
1.118158996E1,-6.879716992E-2,3.500119901E-1,-7.845677018E-2,3.652354153E-1
1.119164496E1,-1.394151628E-2,-1.261127472E-1,1.811116942E-1,2.211339789E-1
1.120169996E1,-1.559984511E-1,-6.082083687E-1,5.110583425E-1,8.095885164E-1
1.121175496E1,-3.456651700E-1,-1.004341149E0,8.524819422E-1,1.361951180E0
1.122180996E1,-5.014004964E-1,-1.361112813E0,1.171032404E0,1.864228376E0
1.123186496E1,-6.138295895E-1,-1.724661400E0,1.402881521E0,2.306365164E0
1.124191996E1,-6.188184339E-1,-2.076373175E0,1.479627396E0,2.623653759E0
1.125197496E1,-6.633625227E-1,-2.404538506E0,1.491822349E0,2.906439262E0
1.126202996E1,-7.745397270E-1,-2.719197645E0,1.503386972E0,3.202205492E0
1.127208496E1,-1.010940902E0,-3.040177040E0,1.367351500E0,3.483436244E0
1.128213996E1,-1.207498564E0,-3.378904781E0,1.061522241E0,3.741908573E0
1.129219487E1,-1.358362575E0,-3.840323771E0,8.104989338E-1,4.153329276E0
1.130224987E1,-1.587350065E0,-4.360119900E0,7.042550254E-1,4.693218609E0
1.131230487E1,-1.740677508E0,-4.928067850E0,6.317377838E-1,5.264494615E0
1.132235987E1,-1.833166426E0,-5.560993862E0,5.143550026E-1,5.877900386E0
1.133241487E1,-1.997492482E0,-6.255491638E0,5.957867631E-1,6.593641916E0
1.134246987E1,-2.492260482E0,-6.708151499E0,8.472228833E-1,7.206139428E0
1.135252487E1,-3.199409879E0,-6.682089289E0,1.160044316E0,7.498816151E0
1.136257987E1,-3.705613863E0,-6.484085611E0,1.396087056E0,7.597631169E0
1.137263487E1,-3.986415870E0,-6.060843676E0,1.669925029E0,7.444057170E0
1.138268987E1,-3.634387175E0,-5.936710212E0,1.909684260E0,7.218046290E0
1.139274487E1,-2.925695867E0,-6.137935122E0,2.132940309E0,7.126245731E0
1.140279987E1,-2.523282884E0,-6.107315007E0,2.014169472E0,6.908193091E0
1.141285488E1,-2.323052001E0,-5.888772399E0,1.785627248E0,6.577436859E0
1.142290987E1,-2.080086157E0,-5.822543326E0,1.807470399E0,6.441717042E0
1.143296487E1,-1.778907189E0,-5.835759788E0,1.879907022E0,6.383937147E0
1.144301987E1,-1.508812019E0,-5.899030169E0,2.042648482E0,6.422420374E0
1.145307487E1,-1.528907729E0,-5.770317750E0,2.444041125E0,6.450384702E0
1.146312987E1,-1.668685420E0,-5.295568278E0,3.010324081E0,6.315821838E0
1.147318487E1,-1.704620068E0,-4.690488462E0,3.325615597E0,5.997176893E0
1.148323988E1,-1.597575091E0,-4.140231555E0,3.146504564E0,5.440060153E0
1.149329487E1,-1.354168367E0,-3.702697272E0,2.604862945E0,4.725362421E0
1.150334987E1,-1.021646569E0,-3.460409705E0,1.946471579E0,4.099627867E0
1.151340587E1,-8.409319371E-1,-3.495563166E0,1.470062374E0,3.884226017E0
1.152346087E1,-8.435625994E-1,-3.737090009E0,1.162405276E0,4.003576604E0
1.153351587E1,-9.289126521E-1,-4.054359346E0,1.023240520E0,4.283424983E0
1.154357087E1,-1.050242377E0,-4.400300505E0,9.433919661E-1,4.621216505E0
1.155362587E1,-1.053002263E0,-4.758939184E0,8.461751354E-1,4.946951413E0
1.156368087E1,-1.020266041E0,-4.954013700E0,7.141906873E-1,5.108156505E0
1.157373587E1,-8.675291669E-1,-4.846968431E0,4.319477074E-1,4.942902857E0
1.158379087E1,-6.588414556E-1,-4.506423083E0,6.222139120E-2,4.554754941E0
1.159384587E1,-4.406672215E-1,-4.036044112E0,-2.725257846E-1,4.069165760E0
1.160390087E1,-2.602420270E-1,-3.342126964E0,-3.420597768E-1,3.369650345E0
1.161395587E1,-1.880072790E-1,-2.651236627E0,-2.328268448E-1,2.668072475E0
1.162401087E1,-1.936726463E-1,-2.036945400E0,-1.714006019E-1,2.053298279E0
1.163406587E1,-2.845711219E-1,-1.473321759E0,-1.270599596E-1,1.505922296E0
1.164412087E1,-5.795116961E-1,-9.121998480E-1,-4.819633283E-2,1.081787990E0
1.165417587E1,-8.221500957E-1,-4.265850797E-1,1.463561732E-2,9.263475651E-1
1.166423088E1,-9.953580719E-1,-3.562971622E-2,1.716746170E-2,9.961435086E-1
1.167428587E1,-1.166682660E0,3.549809539E-1,-1.093101700E-1,1.224380913E0
1.168434087E1,-1.259534690E0,7.437140831E-1,-2.985845590E-1,1.492880107E0
1.169439587E1,-1.187050851E0,1.135786850E0,-4.920396888E-1,1.714994037E0
1.170445087E1,-1.104950096E0,1.453593545E0,-6.042214447E-1,1.923260893E0
1.171450587E1,-9.150494885E-1,1.607280592E0,-7.600824863E-1,1.999597923E0
1.172456087E1,-6.531228787E-1,1.787380974E0,-9.208586973E-1,2.114067402E0
1.173461588E1,-6.561564142E-1,1.928451483E0,-1.058031453E0,2.295407789E0
1.174467087E1,-6.450472891E-1,1.953018560E0,-1.264427640E0,2.414362185E0
1.175472587E1,-5.447576004E-1,1.783710676E0,-1.406355352E0,2.335855303E0
1.176478087E1,-4.467763925E-1,1.622584802E0,-1.505657446E0,2.258183989E0
1.177483587E1,-2.980015916E-1,1.546584447E0,-1.528966202E0,2.195100464E0
1.178489087E1,-2.061611295E-2,1.456998671E0,-1.477993099E0,2.075508071E0
1.179494587E1,3.354664564E-1,1.390702356E0,-1.301535240E0,1.934059143E0
1.180500087E1,7.386167729E-1,1.342161695E0,-1.045284523E0,1.854608445E0
1.181505587E1,1.170941187E0,1.431986037E0,-7.598339796E-1,1.999758723E0
1.182511187E1,1.321560200E0,1.657110271E0,-4.111124700E-1,2.159062129E0
1.183516687E1,1.444217827E0,1.795139644E0,-1.387795887E-1,2.308148879E0
1.184522187E1,1.668267928E0,1.820796642E0,4.446982007E-2,2.469897944E0
1.185527687E1,1.874405084E0,1.843231823E0,1.768835360E-1,2.634802793E0
1.186533187E1,2.113197770E0,1.837543067E0,2.616395116E-1,2.812583256E0
1.187538687E1,2.488408921E0,1.748344962E0,3.541927493E-1,3.061754655E0
1.188544187E1,2.904145369E0,1.659723392E0,3.986374354E-1,3.368627891E0
1.189549687E1,3.446070578E0,1.582927231E0,3.753222477E-1,3.810764731E0
1.190555187E1,3.869733512E0,1.567090048E0,3.925855672E-1,4.193415326E0
1.191560688E1,4.179312590E0,1.589156270E0,3.814056909E-1,4.487487234E0
1.192566187E1,4.358319835E0,1.695313055E0,3.367341328E-1,4.688542206E0
1.193571687E1,4.557688839E0,1.907740645E0,3.640546632E-1,4.954244415E0
1.194577187E1,4.738133914E0,2.301779830E0,4.051968420E-1,5.283208103E0
1.195582687E1,4.872467846E0,2.840553390E0,4.462735685E-1,5.657636130E0
1.196588187E1,5.118715732E0,3.261386856E0,4.689560509E-1,6.087513019E0
1.197593687E1,5.510624192E0,3.447945780E0,5.101275023E-1,6.520394095E0
1.198599188E1,6.028400400E0,3.440996949E0,5.875948870E-1,6.966156698E0
1.199604687E1,6.652606459E0,3.229658110E0,5.969247043E-1,7.419176727E0
1.200610187E1,7.214204625E0,2.744715187E0,5.727990560E-1,7.739916575E0
1.201615687E1,7.456692751E0,2.231320297E0,6.462132239E-1,7.810163160E0
1.202621187E1,7.215671691E0,1.949261724E0,9.514893365E-1,7.534644728E0
1.203626687E1,6.552776946E0,2.007390064E0,1.204741529E0,6.958441113E0
1.204632187E1,5.816301423E0,2.501647602E0,1.255683714E0,6.454792372E0
1.205637687E1,5.284071482E0,3.246593401E0,1.015283629E0,6.284312292E0
1.206643187E1,4.905963621E0,3.770581691E0,6.566540122E-1,6.222295383E0
1.207648687E1,4.752635009E0,4.010233333E0,4.069860899E-1,6.231785345E0
1.208654187E1,4.655226243E0,3.957592020E0,2.878666127E-1,6.116905521E0
1.209659687E1,4.558478798E0,3.545411264E0,2.689204645E-1,5.781175330E0
1.210665187E1,4.435336436E0,2.771133492E0,2.877332962E-1,5.237764846E0
1.211670687E1,4.269255046E0,1.928452068E0,2.071914089E-1,4.689178426E0
1.212676187E1,4.109112089E0,1.280451350E0,1.579344642E-1,4.306889958E0
1.213681687E1,3.803400359E0,8.186119455E-1,1.181535172E-1,3.892292391E0
1.214687187E1,3.404113882E0,4.771941930E-1,7.332408428E-3,3.437405909E0
1.215692687E1,3.040213001E0,2.277572358E-1,-2.255738854E-2,3.048815718E0
1.216698288E1,2.755271165E0,9.226029217E-2,5.478724122E-2,2.757359751E0
1.217703787E1,2.437226488E0,1.685348815E-1,2.476389384E-1,2.455565516E0
1.218709287E1,2.112210760E0,4.053588098E-1,4.471073449E-1,2.196737362E0
1.219714787E1,1.824016119E0,7.500533420E-1,5.883760750E-1,2.058106222E0
1.220720287E1,1.582434311E0,1.092587913E0,6.329517388E-1,2.024468967E0
1.221725787E1,1.331661265E0,1.389196113E0,6.609330046E-1,2.034703910E0
1.222731287E1,9.641713625E-1,1.613631545E0,7.661980891E-1,2.029899675E0
1.223736788E1,5.965580839E-1,1.743373075E0,8.835926378E-1,2.043518332E0
1.224742287E1,3.182709646E-1,1.737108368E0,8.789487791E-1,1.972661361E0
1.225747787E1,1.518229544E-2,1.489303368E0,1.016048445E0,1.802944665E0
1.226753287E1,-4.405596328E-1,1.157407222E0,1.281947068E0,1.782434445E0
1.227758787E1,-8.038711149E-1,1.008973314E0,1.349209929E0,1.866709230E0
1.228764221E1,-1.019774290E0,9.122916493E-1,1.253177598E0,1.855443275E0
1.229769721E1,-1.162032369E0,7.643760967E-1,1.108091805E0,1.778329973E0
1.230775221E1,-1.262837783E0,5.630760500E-1,9.590287364E-1,1.682721017E0
1.231780721E1,-1.311001298E0,2.721718088E-1,8.453296280E-1,1.583472158E0
1.232786221E1,-1.334134637E0,-1.027481505E-1,8.367517626E-1,1.578171703E0
1.233791721E1,-1.355598012E0,-5.380993760E-1,8.480883443E-1,1.687142776E0
1.234797221E1,-1.397043076E0,-1.033379592E0,8.756122848E-1,1.945841620E0
1.235802721E1,-1.368233845E0,-1.497374572E0,8.967686804E-1,2.217744018E0
1.236808221E1,-1.403409525E0,-1.877606142E0,9.364303442E-1,2.524255318E0
1.237813721E1,-1.505406016E0,-2.159001642E0,9.061511958E-1,2.783638868E0
1.238819221E1,-1.447653067E0,-2.417905241E0,8.049603780E-1,2.930857616E0
1.239824721E1,-1.362490125E0,-2.589908691E0,7.266229641E-1,3.015292241E0
1.240830221E1,-1.253053637E0,-2.741846543E0,6.941801997E-1,3.093501581E0
1.241835721E1,-1.110837073E0,-2.758107065E0,6.017276073E-1,3.033675938E0
1.242841221E1,-1.073804317E0,-2.769318224E0,5.731007358E-1,3.024999767E0
1.243846721E1,-1.074562116E0,-2.852390494E0,5.529243334E-1,3.097828367E0
1.244852221E1,-8.384550565E-1,-3.232577040E0,4.808948227E-1,3.373991854E0
1.245857721E1,-4.816246283E-1,-3.929031003E0,6.089968657E-1,4.005012370E0
1.246863221E1,-1.538110077E-1,-4.680965102E0,6.797424010E-1,4.732561869E0
1.247868721E1,2.497760957E-1,-5.488327589E0,6.713761318E-1,5.534877933E0
1.248874221E1,4.612523443E-1,-6.205140095E0,8.801427805E-1,6.284199920E0
1.249879821E1,3.402892399E-1,-6.551056110E0,1.093905290E0,6.650470789E0
1.250885321E1,9.219948113E-2,-6.506416712E0,1.214698387E0,6.619475156E0
1.251890821E1,-2.488001955E-1,-6.217086541E0,1.244003316E0,6.345203767E0
1.252896321E1,-5.271592355E-1,-6.026654422E0,1.310303579E0,6.189939890E0
1.253901821E1,-5.198683423E-1,-5.972078850E0,1.362307692E0,6.147509343E0
1.254907321E1,-3.462528151E-1,-6.091732762E0,1.501846815E0,6.283680682E0
1.255912821E1,-4.870145917E-1,-6.207193052E0,1.788543985E0,6.478064401E0
1.256918321E1,-7.739210916E-1,-6.139116259E0,2.028981493E0,6.511871328E0
1.257923821E1,-9.040046829E-1,-6.151200115E0,2.141098344E0,6.575620841E0
1.258929321E1,-9.670464385E-1,-6.359624702E0,2.257653087E0,6.817404390E0
1.259934821E1,-1.127013395E0,-6.505825558E0,2.403267614E0,7.026494191E0
1.260940321E1,-1.492888296E0,-6.537736738E0,2.432973808E0,7.133728245E0
1.261945821E1,-1.896801090E0,-6.480083191E0,2.253431543E0,7.118095691E0
1.262951321E1,-2.216444981E0,-6.405726489E0,2.051151795E0,7.081891265E0
1.263956821E1,-2.385141245E0,-6.396924675E0,1.910270151E0,7.089335378E0
1.264962321E1,-2.526492421E0,-6.373208368E0,1.805058861E0,7.089371365E0
1.265967821E1,-2.651716976E0,-6.271635801E0,1.653530606E0,7.007080847E0
1.266973321E1,-2.727662952E0,-6.151024699E0,1.343884284E0,6.861579628E0
1.267978821E1,-2.788880376E0,-6.016947459E0,1.101775643E0,6.722753903E0
1.268984321E1,-2.958556049E0,-5.836651488E0,9.773854121E-1,6.616255492E0
1.269989821E1,-3.085196800E0,-5.575060508E0,8.542184921E-1,6.428796792E0
1.270995321E1,-3.106989958E0,-5.223858610E0,6.828530467E-1,6.116238522E0
1.272000821E1,-3.120667765E0,-4.885573503E0,5.437419756E-1,5.822632659E0
1.273006321E1,-3.121685765E0,-4.625989580E0,4.454538254E-1,5.598493612E0
1.274011821E1,-3.224769838E0,-4.381769801E0,3.723858491E-1,5.453230081E0
1.275017321E1,-3.360658545E0,-4.190933639E0,3.611801720E-1,5.384087828E0
1.276022821E1,-3.497039587E0,-3.985045282E0,3.766823101E-1,5.315238597E0
1.277028321E1,-3.580898015E0,-3.754229368E0,3.195199299E-1,5.197995934E0
1.278033821E1,-3.633671476E0,-3.472975664E0,3.004755485E-1,5.035415962E0
1.279039321E1,-3.569364967E0,-3.095173612E0,2.588866425E-1,4.731541847E0
1.280044921E1,-3.425655609E0,-2.620467409E0,2.229870772E-1,4.318760127E0
1.281050421E1,-3.203375461E0,-2.143475530E0,8.800995111E-2,3.855366058E0
1.282055921E1,-2.891387914E0,-1.715931507E0,-1.078454608E-1,3.363952385E0
1.283061421E1,-2.567004270E0,-1.352516821E0,-3.604627186E-1,2.923823874E0
1.284066921E1,-2.233651582E0,-1.072627857E0,-6.154989696E-1,2.553148819E0
1.285072421E1,-1.905825682E0,-8.999309278E-1,-8.032776225E-1,2.255504854E0
1.286077921E1,-1.525190070E0,-8.889624283E-1,-9.492574543E-1,2.004382364E0
1.287083421E1,-1.103604067E0,-9.302116111E-1,-9.953668427E-1,1.753279992E0
1.288088921E1,-7.153507018E-1,-9.383412874E-1,-8.960390210E-1,1.481585949E0
1.289094421E1,-2.497152847E-1,-8.771466672E-1,-7.799390459E-1,1.200020381E0
1.290099921E1,3.109356326E-1,-8.080524588E-1,-5.361551768E-1,1.018377198E0
1.291105421E1,8.265694213E-1,-6.758831656E-1,-2.087929612E-1,1.087947408E0
1.292110921E1,1.298585905E0,-3.530665755E-1,-9.404310822E-2,1.349009068E0
1.293116421E1,1.747243931E0,-4.933997512E-2,-1.776103449E-1,1.756940871E0
1.294121921E1,2.099850331E0,2.997464007E-1,-2.434277737E-1,2.135058875E0
1.295127421E1,2.443984700E0,6.357087010E-1,-2.602677548E-1,2.538685894E0
1.296132921E1,2.803724118E0,9.646461564E-1,-1.914471960E-1,2.971205675E0
1.297138421E1,3.194640890E0,1.257206329E0,-1.237960804E-1,3.435349129E0
1.298143921E1,3.640120370E0,1.522769322E0,-7.371116996E-2,3.946484011E0
1.299149421E1,4.105977981E0,1.774639891E0,9.100608726E-3,4.473084478E0
1.300154921E1,4.641533234E0,2.006095490E0,7.415438890E-3,5.056511136E0
1.301160421E1,5.138959377E0,2.172942865E0,6.376973391E-3,5.579482489E0
1.302165921E1,5.479312352E0,2.326132899E0,-4.444234729E-2,5.952792054E0
1.303171421E1,5.794900029E0,2.527632628E0,-2.964386308E-1,6.329112806E0
1.304176921E1,6.095492522E0,2.711049258E0,-5.961815232E-1,6.697779451E0
1.305182421E1,6.354441145E0,2.937092090E0,-8.864723915E-1,7.056292618E0
1.306187921E1,6.605151041E0,3.213309295E0,-1.214149772E0,7.444967197E0
1.307193521E1,6.747828950E0,3.542606939E0,-1.534178410E0,7.774121356E0
1.308199021E1,6.815481235E0,3.871535624E0,-1.783048187E0,8.038584041E0
1.309204521E1,6.849457067E0,4.131734381E0,-1.933464301E0,8.229494232E0
1.310210021E1,6.908068972E0,4.340930800E0,-2.035203515E0,8.408754395E0
1.311215521E1,7.000450886E0,4.465666528E0,-2.161180022E0,8.580162541E0
1.312221021E1,7.085041970E0,4.464366108E0,-2.203694542E0,8.659367996E0
1.313226521E1,7.125483652E0,4.310490780E0,-2.099689533E0,8.588454121E0
1.314232021E1,7.002921335E0,4.062470604E0,-1.920319176E0,8.320588943E0
1.315237521E1,6.828605896E0,3.651468061E0,-1.797694293E0,7.949514592E0
1.316243021E1,6.686539605E0,3.165702435E0,-1.704968562E0,7.591995890E0
1.317248521E1,6.496977552E0,2.801081176E0,-1.546470426E0,7.242122882E0
1.318254021E1,6.112067624E0,2.656774818E0,-1.268875617E0,6.784236759E0
1.319259521E1,5.617037669E0,2.823570737E0,-9.833630206E-1,6.363227697E0
1.320265021E1,5.085277845E0,3.277008862E0,-9.005249318E-1,6.116353734E0
1.321270521E1,4.574579691E0,3.828248101E0,-1.098623993E0,6.065413222E0
1.322276021E1,4.302273104E0,4.266105736E0,-1.339127575E0,6.205036234E0
1.323281521E1,4.276269951E0,4.466858776E0,-1.420764645E0,6.344910101E0
1.324287021E1,4.302394726E0,4.387478145E0,-1.346644755E0,6.290788261E0
1.325292521E1,4.320112374E0,4.041207204E0,-1.265576034E0,6.049496614E0
1.326298021E1,4.299466440E0,3.487999792E0,-1.160491628E0,5.656703549E0
1.327303521E1,4.222893643E0,2.729137035E0,-9.412479383E-1,5.115365809E0
1.328309021E1,4.121021698E0,1.831685911E0,-6.471938020E-1,4.555957959E0
1.329314533E1,4.002447181E0,1.048995751E0,-3.708865865E-1,4.154218624E0
1.330320033E1,3.819370274E0,3.694487196E-1,-3.916757405E-2,3.837397001E0
1.331325533E1,3.558439445E0,-2.233759171E-1,2.897219342E-1,3.577195393E0
1.332331033E1,3.269541968E0,-6.143891680E-1,6.355625206E-1,3.386933487E0
1.333336633E1,2.981595249E0,-7.950096595E-1,8.919775450E-1,3.212098150E0
1.334342133E1,2.638277151E0,-8.335422260E-1,1.116957938E0,2.983771775E0
1.335347633E1,2.232265207E0,-7.751788276E-1,1.297942711E0,2.696027717E0
1.336353133E1,1.847192727E0,-6.441795623E-1,1.424800394E0,2.420153805E0
1.337358633E1,1.450888916E0,-4.337365168E-1,1.512525585E0,2.140312981E0
1.338364133E1,1.039409240E0,-2.297248238E-1,1.587617868E0,1.911459013E0
1.339369633E1,6.851036400E-1,-3.934415996E-2,1.613926245E0,1.753759643E0
1.340375133E1,3.703392506E-1,9.376244187E-2,1.577187604E0,1.622794902E0
1.341380633E1,5.586371362E-2,1.571129304E-1,1.504889706E0,1.514099817E0
1.342386133E1,-2.220772505E-1,2.163019556E-1,1.379681523E0,1.414081309E0
1.343391633E1,-4.115369779E-1,2.834566426E-1,1.241246354E0,1.338059365E0
1.344397133E1,-5.784825861E-1,3.608825487E-1,1.086743621E0,1.282922450E0
1.345402633E1,-7.307142609E-1,4.026234823E-1,9.286302316E-1,1.248360167E0
1.346408133E1,-8.948847806E-1,3.187814265E-1,8.757117605E-1,1.292018365E0
1.347413633E1,-1.021130260E0,1.864758933E-1,8.443508041E-1,1.338061488E0
1.348419133E1,-1.121965494E0,6.852644384E-3,8.412178659E-1,1.402319873E0
1.349424633E1,-1.212767490E0,-2.003218076E-1,8.676952279E-1,1.504602546E0
1.350430133E1,-1.261339141E0,-4.810489699E-1,9.296113944E-1,1.639073484E0
1.351435633E1,-1.317049658E0,-8.056743962E-1,1.047121718E0,1.865528055E0
1.352441133E1,-1.393104392E0,-1.121047188E0,1.210328032E0,2.159254637E0
1.353446633E1,-1.382657756E0,-1.420676937E0,1.340734974E0,2.393247940E0
1.354452133E1,-1.252018679E0,-1.783144666E0,1.451966558E0,2.618274729E0
1.355457633E1,-1.099723270E0,-2.203649518E0,1.596609131E0,2.935067834E0
1.356463133E1,-1.071919760E0,-2.611195479E0,1.829481511E0,3.363681971E0
1.357468733E1,-1.164744308E0,-2.857936870E0,2.036237887E0,3.697390592E0
1.358474233E1,-1.268216051E0,-2.913281936E0,2.152557718E0,3.837849439E0
1.359479733E1,-1.386518088E0,-2.957228147E0,2.197754356E0,3.936718802E0
1.360485233E1,-1.429393381E0,-3.004732096E0,2.180905019E0,3.978432746E0
1.361490733E1,-1.303112234E0,-3.179578170E0,2.059575294E0,4.006203842E0
1.362496233E1,-1.015829174E0,-3.540319508E0,2.027026184E0,4.204117777E0
1.363501733E1,-6.870700586E-1,-3.982688854E0,2.036923181E0,4.525807311E0
1.364507233E1,-5.120634788E-1,-4.513028390E0,1.923821658E0,4.932618375E0
1.365512733E1,-5.776499426E-1,-5.212915546E0,1.897907968E0,5.577653861E0
1.366518233E1,-8.270693582E-1,-5.926428468E0,1.908788466E0,6.280929192E0
1.367523733E1,-1.118684621E0,-6.421014619E0,1.894451094E0,6.787475890E0
1.368529233E1,-1.418674850E0,-6.598796872E0,1.889887927E0,7.009167915E0
1.369534733E1,-1.673589479E0,-6.584980486E0,1.932091960E0,7.063699391E0
1.370540233E1,-1.877739751E0,-6.463558960E0,2.014955192E0,7.025919543E0
1.371545733E1,-2.004780452E0,-6.323545042E0,2.114252608E0,6.962501752E0
1.372551233E1,-1.918193713E0,-6.263626285E0,2.169238654E0,6.900585315E0
1.373556733E1,-1.873462513E0,-6.253034053E0,1.995688762E0,6.825911682E0
1.374562233E1,-2.015266263E0,-6.207491845E0,1.607929341E0,6.721583882E0
1.375567733E1,-2.321937522E0,-6.184059128E0,1.087627720E0,6.694543690E0
1.376573233E1,-2.555708619E0,-6.343235541E0,5.925965222E-1,6.864361173E0
1.377578733E1,-2.846748515E0,-6.469417285E0,4.093319563E-1,7.079893345E0
1.378584233E1,-3.334076518E0,-6.469107968E0,4.929507216E-1,7.294410500E0
1.379589733E1,-3.765263064E0,-6.495280690E0,6.675906444E-1,7.537343991E0
1.380595233E1,-4.136075354E0,-6.531778425E0,8.842451870E-1,7.781589701E0
1.381600733E1,-4.479185876E0,-6.245419809E0,9.133888793E-1,7.739680481E0
1.382606333E1,-4.531724278E0,-5.618751488E0,6.188388991E-1,7.244988254E0
1.383611833E1,-4.234482824E0,-4.907601426E0,1.782143623E-1,6.484377912E0
1.384617333E1,-3.812471144E0,-4.227299227E0,-2.295195866E-1,5.697163700E0
1.385622833E1,-3.381755299E0,-3.778834159E0,-5.678815842E-1,5.102778263E0
1.386628333E1,-3.002596693E0,-3.588540911E0,-9.014716691E-1,4.765067045E0
1.387633833E1,-2.669137001E0,-3.659260353E0,-1.177954922E0,4.679963297E0
1.388639333E1,-2.433165597E0,-3.884020014E0,-1.328214331E0,4.771798361E0
1.389644833E1,-2.279829383E0,-4.150127091E0,-1.272648826E0,4.903143065E0
1.390650333E1,-2.148762875E0,-4.463036158E0,-1.076479418E0,5.068992166E0
1.391655833E1,-1.932607684E0,-4.786605285E0,-7.671003145E-1,5.218716845E0
1.392661333E1,-1.703960502E0,-4.979851377E0,-5.207173580E-1,5.289002524E0
1.393666833E1,-1.401764118E0,-4.997738594E0,-3.369399182E-1,5.201524989E0
1.394672333E1,-1.097589621E0,-4.970035071E0,-1.477439002E-1,5.091932820E0
1.395677833E1,-1.053301640E0,-4.680714549E0,6.095429957E-2,4.798150525E0
1.396683333E1,-1.042424065E0,-4.162870805E0,1.344456508E-1,4.293508693E0
1.397688833E1,-9.050349623E-1,-3.581244171E0,2.136397183E-1,3.700005408E0
1.398694333E1,-7.503012639E-1,-2.958064299E0,3.533343780E-1,3.072123299E0
1.399699833E1,-6.933727723E-1,-2.348612812E0,5.101970476E-1,2.501409396E0
1.400705333E1,-6.015913671E-1,-1.790907429E0,5.930772730E-1,1.980152076E0
1.401710833E1,-4.925916660E-1,-1.331298738E0,6.456922370E-1,1.559461876E0
1.402716333E1,-3.538612121E-1,-9.395118999E-1,7.018225837E-1,1.224930735E0
1.403721833E1,-1.379533589E-1,-5.431513703E-1,7.486833394E-1,9.351851597E-1
1.404727333E1,3.254326344E-2,-2.104073775E-1,7.964416426E-1,8.244086478E-1
1.405732833E1,9.205680907E-2,5.761086166E-2,6.290335196E-1,6.383389666E-1
1.406738333E1,2.129403913E-1,4.237459642E-1,1.282931739E-1,4.912874829E-1
1.407743933E1,4.313514376E-1,7.930672145E-1,-4.394819909E-1,1.004073747E0
1.408749433E1,5.720781308E-1,1.093679003E0,-8.166104436E-1,1.479952623E0
1.409754933E1,7.346546996E-1,1.288335736E0,-1.090829655E0,1.841042051E0
1.410760433E1,9.389148992E-1,1.510165649E0,-1.331168345E0,2.221299313E0
1.411765933E1,1.180410168E0,1.686522351E0,-1.464747986E0,2.526502022E0
1.412771433E1,1.427835683E0,1.794023995E0,-1.419592863E0,2.696753740E0
1.413776933E1,1.713951055E0,1.786757661E0,-1.249134248E0,2.773169220E0
1.414782433E1,1.985941892E0,1.688568292E0,-8.265103644E-1,2.734656735E0
1.415787933E1,2.275637514E0,1.555596761E0,-3.739381753E-1,2.781768706E0
1.416793433E1,2.539905934E0,1.526730811E0,-8.062846262E-2,2.964545508E0
1.417798933E1,2.690078804E0,1.616939900E0,2.182198423E-1,3.146210182E0
1.418804433E1,2.936802068E0,1.705084337E0,5.263628447E-1,3.436448287E0
1.419809933E1,3.265779285E0,1.786582244E0,7.575640905E-1,3.798827951E0
1.420815433E1,3.602436234E0,1.872739797E0,9.063605261E-1,4.160070982E0
1.421820933E1,3.993747693E0,2.032130218E0,1.081727294E0,4.609740535E0
1.422826433E1,4.346340644E0,2.217107470E0,1.129182127E0,5.008122883E0
1.423831933E1,4.692746657E0,2.446711257E0,7.575547349E-1,5.346228234E0
1.424837433E1,5.015964950E0,2.711705900E0,1.562416953E-1,5.704179585E0
1.425842933E1,5.342710869E0,2.981806333E0,-3.758496666E-1,6.130007456E0
1.426848433E1,5.642009373E0,3.255015146E0,-7.467356318E-1,6.556295255E0
1.427853933E1,5.925245576E0,3.482381203E0,-9.871058965E-1,6.943334359E0
1.428859400E1,6.197870836E0,3.620550324E0,-1.159349082E0,7.270906260E0
1.429864900E1,6.489501886E0,3.701610859E0,-1.304012706E0,7.583930829E0
1.430870400E1,6.923962873E0,3.751786986E0,-1.490080463E0,8.014830456E0
1.431875900E1,7.461355906E0,3.858687537E0,-1.446538587E0,8.523718399E0
1.432881400E1,7.947400444E0,3.961751145E0,-1.203009657E0,8.961243116E0
1.433886900E1,8.189075807E0,3.972869625E0,-9.598099244E-1,9.152370771E0
1.434892500E1,8.444413190E0,3.932062492E0,-8.076794064E-1,9.349950566E0
1.435898000E1,8.679251404E0,3.946946579E0,-6.575509751E-1,9.557204901E0
1.436903500E1,8.542062861E0,3.994984379E0,-3.041171579E-1,9.435000019E0
1.437909000E1,8.074481490E0,4.137935354E0,1.273418319E-1,9.073917361E0
1.438914500E1,7.453469181E0,4.436948513E0,3.601195236E-1,8.681612812E0
1.439920000E1,6.840295064E0,4.721697391E0,3.378866555E-1,8.318547362E0
1.440925500E1,6.361705141E0,4.842386261E0,1.974715457E-1,7.997436590E0
1.441931000E1,6.103644125E0,4.816453274E0,-3.539977446E-3,7.775133844E0
1.442936500E1,6.069958316E0,4.691196560E0,-2.678504606E-1,7.676161996E0
1.443942000E1,6.016605982E0,4.411480966E0,-6.179594779E-1,7.486159614E0
1.444947500E1,6.057928255E0,3.926516408E0,-9.097384626E-1,7.276238720E0
1.445953000E1,6.077151561E0,3.329726774E0,-1.064017248E0,7.010776290E0
1.446958500E1,5.959641237E0,2.592770610E0,-1.160333753E0,6.601981334E0
1.447964000E1,5.758201734E0,1.851319107E0,-1.248438429E0,6.175991270E0
1.448969500E1,5.393961130E0,1.135504137E0,-1.237986531E0,5.649495284E0
1.449975000E1,5.104035128E0,4.602208954E-1,-9.853447151E-1,5.218609208E0
1.450980500E1,4.819989086E0,-6.289849877E-3,-4.757066613E-1,4.843411110E0
1.451986000E1,4.319415386E0,-3.847374344E-1,1.425428385E-1,4.338858217E0
1.452991500E1,3.873555252E0,-7.293126833E-1,8.206415141E-1,4.026137078E0
1.453997000E1,3.470880314E0,-8.771501756E-1,1.471355925E0,3.870567251E0
1.455002500E1,2.992817810E0,-8.676502043E-1,2.107473346E0,3.761810631E0
1.456008000E1,2.595708252E0,-7.541253430E-1,2.535987130E0,3.706431853E0
1.457013500E1,2.192471396E0,-6.515125555E-1,2.716803503E0,3.551397008E0
1.458019000E1,1.833832424E0,-6.035180247E-1,2.707994088E0,3.325719072E0
1.459024500E1,1.530271885E0,-6.586794877E-1,2.558762619E0,3.053335365E0
1.460030000E1,1.207595628E0,-7.343693554E-1,2.287647110E0,2.689036045E0
1.461035500E1,8.723864490E-1,-8.109070694E-1,1.853344583E0,2.203069344E0
1.462041000E1,6.004605156E-1,-8.417300820E-1,1.353304734E0,1.703084280E0
1.463046600E1,4.100044227E-1,-8.558136857E-1,9.643982345E-1,1.352991000E0
1.464052100E1,2.951241767E-1,-9.551865309E-1,7.076727229E-1,1.224859286E0
1.465057600E1,1.384398472E-1,-1.096559342E0,4.683158173E-1,1.200386473E0
1.466063100E1,-1.302233398E-2,-1.184894983E0,2.337442364E-1,1.207800509E0
1.467068600E1,-1.188861734E-1,-1.347746078E0,-1.310361028E-3,1.352980092E0
1.468074100E1,-2.579592741E-1,-1.541956083E0,-1.106170044E-1,1.567293103E0
1.469079600E1,-3.606410587E-1,-1.799137385E0,-1.450384301E-1,1.840650279E0
1.470085100E1,-4.681900656E-1,-2.086690880E0,-8.479106803E-2,2.140250053E0
1.471090600E1,-5.439729041E-1,-2.385007052E0,1.753696918E-1,2.452533320E0
1.472096100E1,-6.236856562E-1,-2.754449924E0,5.813980079E-1,2.883401086E0
1.473101600E1,-8.177103049E-1,-3.182658775E0,9.441990280E-1,3.418987983E0
1.474107100E1,-1.085641420E0,-3.481341568E0,1.282744628E0,3.865719879E0
1.475112600E1,-1.390756735E0,-3.794762267E0,1.580475494E0,4.339622995E0
1.476118100E1,-1.717591531E0,-4.229277340E0,1.878090584E0,4.936003620E0
1.477123600E1,-2.005221916E0,-4.560829671E0,2.308179023E0,5.490880860E0
1.478129100E1,-2.344877318E0,-4.871606259E0,2.632670256E0,6.013480677E0
1.479134600E1,-2.723730699E0,-4.992978961E0,2.828596419E0,6.352126064E0
1.480140100E1,-2.971168494E0,-5.082770559E0,2.764155425E0,6.504072108E0
1.481145600E1,-3.149454777E0,-5.130544649E0,2.482058845E0,6.511694856E0
1.482151100E1,-3.204209858E0,-5.210200683E0,2.165995789E0,6.488812660E0
1.483156600E1,-3.333877128E0,-5.302117159E0,1.842578105E0,6.528573898E0
1.484162100E1,-3.346117104E0,-5.532629018E0,1.475370623E0,6.631983263E0
1.485167600E1,-3.307655289E0,-5.930766517E0,1.169924941E0,6.890812678E0
1.486173100E1,-3.456509612E0,-6.403299310E0,8.632864273E-1,7.327684778E0
1.487178600E1,-3.755833844E0,-6.829204066E0,5.931590974E-1,7.816402865E0
1.488184100E1,-4.088348626E0,-7.101790150E0,4.695396030E-1,8.207952562E0
1.489189600E1,-4.401700913E0,-7.160117880E0,4.579083216E-1,8.417359385E0
1.490195100E1,-4.720318617E0,-7.101521763E0,5.100660700E-1,8.542434465E0
1.491200700E1,-4.745292075E0,-7.022914134E0,4.720012808E-1,8.488928379E0
1.492206200E1,-4.474605752E0,-7.091834680E0,4.206510329E-1,8.396020668E0
1.493211700E1,-4.235335933E0,-7.312682261E0,4.984599316E-1,8.465332517E0
1.494217200E1,-4.019780082E0,-7.506870047E0,5.895677376E-1,8.535767097E0
1.495222700E1,-3.758328851E0,-7.683892162E0,5.973971593E-1,8.574620568E0
1.496228200E1,-3.698544579E0,-7.907385024E0,6.245270705E-1,8.751914304E0
1.497233700E1,-3.742667668E0,-8.074154046E0,7.042421615E-1,8.927232598E0
1.498239200E1,-3.801973053E0,-8.094098899E0,9.110394681E-1,8.988850260E0
1.499244700E1,-3.833758518E0,-7.881670139E0,1.218635756E0,8.848926582E0
1.500250200E1,-3.713308799E0,-7.533865473E0,1.479972382E0,8.528663989E0
1.501255700E1,-3.350775581E0,-7.130078394E0,1.476289805E0,8.015307012E0
1.502261200E1,-2.770162269E0,-6.638642138E0,1.293543266E0,7.308804459E0
1.503266700E1,-2.149744622E0,-6.003236908E0,1.095291080E0,6.469924100E0
1.504272200E1,-1.636873643E0,-5.484063799E0,9.553426516E-1,5.802326315E0
1.505277700E1,-1.207298005E0,-5.124525526E0,8.161134303E-1,5.327698515E0
1.506283200E1,-6.999140525E-1,-4.760057464E0,7.194285500E-1,4.864730638E0
1.507288700E1,-2.945213288E-1,-4.362825407E0,6.731525159E-1,4.424265211E0
1.508294200E1,-3.338233888E-2,-3.992527379E0,6.237564075E-1,4.041096548E0
1.509299700E1,2.167662245E-1,-3.599241316E0,4.967630331E-1,3.639821308E0
1.510305200E1,4.644115949E-1,-3.271543470E0,2.908088950E-1,3.317113899E0
1.511310700E1,6.605353940E-1,-3.047843617E0,2.013184655E-1,3.125089894E0
1.512316200E1,7.231351000E-1,-2.745217463E0,2.626089434E-1,2.850983470E0
1.513321700E1,6.840932411E-1,-2.382261491E0,4.182910967E-1,2.513587241E0
1.514327200E1,6.175156742E-1,-2.024449023E0,6.091348966E-1,2.202445182E0
1.515332700E1,4.869993889E-1,-1.649416797E0,8.347449982E-1,1.911686007E0
1.516338200E1,3.619537586E-1,-1.284390035E0,1.147498530E0,1.759949193E0
1.517343700E1,3.080517858E-1,-9.302773923E-1,1.453454089E0,1.752952001E0
1.518349200E1,2.219661534E-1,-6.273273021E-1,1.669382408E0,1.797121626E0
1.519354700E1,1.393344712E-1,-3.102953625E-1,1.801785589E0,1.833610814E0
1.520360300E1,1.346233696E-1,1.566293657E-2,1.944671659E0,1.949388787E0
1.521365800E1,6.551571250E-2,2.638059050E-1,1.971829637E0,1.990476823E0
1.522371300E1,1.924084783E-2,5.163103116E-1,1.762585271E0,1.836750769E0
1.523376800E1,6.611914515E-2,7.557274801E-1,1.446675412E0,1.633513242E0
1.524382300E1,9.100606441E-2,9.436201537E-1,1.171419489E0,1.506958765E0
1.525387800E1,2.322069669E-1,1.095112156E0,8.688026905E-1,1.417042280E0
1.526393300E1,4.377137929E-1,1.280487603E0,5.253191167E-1,1.451620488E0
1.527398800E1,6.187318951E-1,1.480490445E0,1.306085982E-1,1.609888108E0
1.528404300E1,7.807249117E-1,1.674578243E0,-3.340789487E-1,1.877592188E0
1.529409808E1,1.067303967E0,1.823813805E0,-7.613800565E-1,2.246137606E0
1.530415308E1,1.377077174E0,1.911310955E0,-1.039926792E0,2.575053173E0
1.531420808E1,1.611344699E0,1.924677690E0,-1.239588084E0,2.799534706E0
1.532426308E1,1.905837961E0,1.838051775E0,-1.334913486E0,2.965239734E0
1.533431808E1,2.210797740E0,1.671530675E0,-1.271553642E0,3.049342570E0
1.534437308E1,2.494118727E0,1.497122850E0,-1.078085722E0,3.102301383E0
1.535442808E1,2.887919930E0,1.307193591E0,-8.311648212E-1,3.277143812E0
1.536448308E1,3.330616136E0,1.252292914E0,-5.454932532E-1,3.599833923E0
1.537453808E1,3.788260748E0,1.430862202E0,-2.530389152E-1,4.057377827E0
1.538459308E1,4.283295380E0,1.741944600E0,-7.711709999E-2,4.624601318E0
1.539464808E1,4.810346442E0,2.026160211E0,-3.356301785E-4,5.219651158E0
1.540470308E1,5.410842041E0,2.284580246E0,-2.333039045E-3,5.873374153E0
1.541475808E1,5.880210906E0,2.685902138E0,-9.615987338E-2,6.465307209E0
1.542481308E1,6.234652746E0,2.991096974E0,-4.880858016E-1,6.932227905E0
1.543486808E1,6.699599361E0,3.185038007E0,-1.008418998E0,7.486388154E0
1.544492308E1,7.201101015E0,3.313202543E0,-1.554357736E0,8.077697375E0
1.545497808E1,7.668649056E0,3.495955514E0,-2.058095949E0,8.675577343E0
1.546503308E1,7.790550638E0,3.686941364E0,-2.532991017E0,8.983443625E0
1.547508808E1,7.938710897E0,3.750817518E0,-3.037088833E0,9.290622764E0
1.548514308E1,8.167793112E0,3.823572668E0,-3.453074958E0,9.656929063E0
1.549519808E1,8.399114810E0,3.869204924E0,-3.636189287E0,9.936687017E0
1.550525408E1,8.888733752E0,3.791636930E0,-3.641091008E0,1.032684086E1
1.551530908E1,9.434542682E0,3.538978742E0,-3.421030462E0,1.064135403E1
1.552536408E1,9.822805402E0,3.361116967E0,-3.153966488E0,1.085044321E1
1.553541908E1,9.958522786E0,3.335262918E0,-2.820116787E0,1.087424542E1
1.554547408E1,9.788030841E0,3.400038958E0,-2.521434579E0,1.066411951E1
1.555552908E1,9.448539162E0,3.644588227E0,-2.094982085E0,1.034151176E1
1.556558408E1,8.998488328E0,4.067637788E0,-1.780673633E0,1.003440422E1
1.557563908E1,8.477238289E0,4.562486479E0,-1.624486463E0,9.763135160E0
1.558569408E1,8.010474944E0,4.864046686E0,-1.597911306E0,9.506838567E0
1.559574908E1,7.580915093E0,4.920818473E0,-1.528365839E0,9.166276792E0
1.560580408E1,7.294214416E0,4.667410086E0,-1.476192157E0,8.784612919E0
1.561585908E1,7.134697110E0,3.938851694E0,-1.523845795E0,8.290992795E0
1.562591408E1,6.930353880E0,2.836978403E0,-1.602025992E0,7.657985286E0
1.563596908E1,6.583448516E0,1.622837986E0,-1.520598836E0,6.948929292E0
1.564602408E1,6.141735227E0,4.055850971E-1,-1.237340414E0,6.278249929E0
1.565607908E1,5.570583880E0,-5.203641862E-1,-8.438532060E-1,5.658115577E0
1.566613408E1,4.784981806E0,-1.097969690E0,-4.275268469E-1,4.927917159E0
1.567618908E1,4.029725026E0,-1.493416885E0,-3.503129024E-2,4.297697636E0
1.568624408E1,3.439280791E0,-1.681545201E0,3.385724243E-1,3.843289985E0
1.569629908E1,2.861223298E0,-1.838555220E0,6.828887147E-1,3.468893347E0
1.570635408E1,2.232520730E0,-1.923607650E0,9.938775569E-1,3.110017331E0
1.571640908E1,1.723953302E0,-1.947318109E0,1.175135395E0,2.853945690E0
1.572646408E1,1.180021913E0,-2.056724192E0,1.370243533E0,2.738637153E0
1.573651908E1,6.759843224E-1,-2.163959788E0,1.483523980E0,2.709339434E0
1.574657408E1,1.737880200E-1,-2.306069348E0,1.558052591E0,2.788491705E0
1.575662908E1,-3.695878834E-1,-2.484701201E0,1.649580812E0,3.005237448E0
1.576668408E1,-9.541123974E-1,-2.543449346E0,1.651298724E0,3.179033268E0
1.577673908E1,-1.416911915E0,-2.465566188E0,1.555624827E0,3.241392387E0
1.578679408E1,-1.776777633E0,-2.328102826E0,1.434528991E0,3.261115599E0
1.579684908E1,-1.987421238E0,-2.049270161E0,1.246566151E0,3.115008594E0
1.580690508E1,-2.074331328E0,-1.753021565E0,1.032408954E0,2.905478156E0
1.581696008E1,-2.102095077E0,-1.554953567E0,9.101752496E-1,2.768592294E0
1.582701508E1,-2.180282291E0,-1.496617066E0,7.560034686E-1,2.750460825E0
1.583707008E1,-2.182744553E0,-1.523890234E0,5.993571460E-1,2.728707426E0
1.584712508E1,-1.990194572E0,-1.687817802E0,4.788635731E-1,2.653095115E0
1.585718008E1,-1.819884476E0,-2.002339239E0,6.028093421E-1,2.772132940E0
1.586723508E1,-1.733506483E0,-2.190604965E0,7.787696028E-1,2.900047747E0
1.587729008E1,-1.678887057E0,-2.312287862E0,9.146822834E-1,3.000330079E0
1.588734508E1,-1.590351441E0,-2.590034698E0,1.069063979E0,3.221862076E0
1.589740008E1,-1.525053245E0,-2.845662103E0,1.279527490E0,3.472862047E0
1.590745508E1,-1.567268388E0,-3.039460464E0,1.572522111E0,3.763970763E0
1.591751008E1,-1.626521147E0,-3.217472513E0,1.897193438E0,4.073946901E0
1.592756508E1,-1.741323625E0,-3.373727364E0,2.196946270E0,4.386435593E0
1.593762008E1,-1.944306793E0,-3.434476719E0,2.514124975E0,4.679399922E0
1.594767508E1,-2.068954813E0,-3.418790686E0,2.703248488E0,4.824547249E0
1.595773008E1,-2.135095008E0,-3.494903892E0,2.859392534E0,4.994908365E0
1.596778508E1,-2.206436886E0,-3.662611977E0,3.076256407E0,5.267489318E0
1.597784008E1,-2.224655641E0,-3.827527140E0,3.222822715E0,5.475914807E0
1.598789508E1,-2.092004537E0,-4.051409426E0,3.206928813E0,5.574476992E0
1.599795008E1,-1.958437175E0,-4.388661037E0,3.148916248E0,5.745563106E0
1.600800508E1,-1.859430950E0,-4.775309342E0,2.969065250E0,5.922534189E0
1.601806008E1,-1.735672292E0,-5.251669722E0,2.617754009E0,6.119250707E0
1.602811508E1,-1.701701138E0,-5.740005784E0,2.334138176E0,6.425858245E0
1.603817008E1,-1.855909172E0,-6.124612241E0,2.208824158E0,6.770094395E0
1.604822508E1,-2.032368200E0,-6.402374865E0,2.168505267E0,7.058564975E0
1.605828008E1,-2.183145087E0,-6.627675685E0,2.239324404E0,7.328491062E0
1.606833508E1,-2.239823318E0,-6.784040172E0,2.346472439E0,7.519703615E0
1.607839008E1,-2.176319633E0,-6.980671510E0,2.391622299E0,7.693243730E0
1.608844508E1,-2.132446804E0,-7.229040180E0,2.382092507E0,7.904474430E0
1.609850008E1,-2.152726702E0,-7.426211216E0,2.315493890E0,8.071205439E0
1.610855608E1,-2.145291967E0,-7.625304816E0,2.127399487E0,8.202035097E0
1.611861108E1,-2.158930013E0,-7.819813029E0,1.974589523E0,8.349219029E0
1.612866608E1,-2.433775461E0,-7.891238523E0,1.986337749E0,8.493553206E0
1.613872108E1,-2.945583417E0,-7.854403403E0,2.130147679E0,8.654804655E0
1.614877608E1,-3.448836896E0,-7.688413814E0,2.276310529E0,8.728560737E0
1.615883108E1,-3.809592560E0,-7.405914946E0,2.390138276E0,8.664486865E0
1.616888608E1,-3.926102425E0,-7.029895710E0,2.382204773E0,8.396940724E0
1.617894108E1,-3.702818309E0,-6.373601886E0,2.189480546E0,7.689440129E0
1.618899608E1,-3.308924135E0,-5.547385637E0,1.853762659E0,6.720037375E0
1.619905108E1,-2.922123218E0,-4.943477603E0,1.381360259E0,5.906346678E0
1.620910608E1,-2.607127864E0,-4.668766056E0,9.034790182E-1,5.423169416E0
1.621916108E1,-2.420442640E0,-4.561706461E0,4.548221612E-1,5.184069020E0
1.622921608E1,-2.453803344E0,-4.597671515E0,4.737881899E-2,5.211715549E0
1.623927108E1,-2.350967193E0,-4.820335826E0,-2.113826931E-1,5.367249469E0
1.624932608E1,-2.170588776E0,-4.986070476E0,-3.282246433E-1,5.447943267E0
1.625938108E1,-2.096446667E0,-5.111920098E0,-5.175668782E-1,5.549296459E0
1.626943608E1,-1.882024006E0,-5.207542539E0,-7.937642026E-1,5.593797929E0
1.627949108E1,-1.711754841E0,-5.250040687E0,-1.025696935E0,5.616501229E0
1.628954608E1,-1.654414705E0,-5.210663783E0,-1.171883174E0,5.591190861E0
1.629960162E1,-1.506129316E0,-4.992252737E0,-1.276892150E0,5.368562793E0
1.630965662E1,-1.284413424E0,-4.593362409E0,-1.329527031E0,4.951397600E0
1.631971162E1,-1.119586846E0,-4.150013362E0,-1.227689584E0,4.470269268E0
1.632976662E1,-9.928297359E-1,-3.772634649E0,-9.898359615E-1,4.024705990E0
1.633982162E1,-9.124392915E-1,-3.302559148E0,-7.636205634E-1,3.510350232E0
1.634987662E1,-8.378469461E-1,-2.755478157E0,-4.613283581E-1,2.916756972E0
1.635993162E1,-6.447765630E-1,-2.269651427E0,-2.639468229E-1,2.374178246E0
1.636998662E1,-4.230811357E-1,-1.807814654E0,-1.108807870E-1,1.859969359E0
1.638004163E1,-2.723884481E-1,-1.325004210E0,-7.673067212E-2,1.354887161E0
1.639009662E1,1.080799341E-2,-8.708819604E-1,-1.165455329E-1,8.787121616E-1
1.640015162E1,4.296814728E-1,-4.826490605E-1,-1.115724760E-1,6.557626865E-1
1.641020762E1,8.247924525E-1,-6.387206018E-2,-1.805801457E-1,8.467416482E-1
1.642026262E1,1.073973886E0,4.642607367E-1,-3.824687878E-1,1.230950979E0
1.643031762E1,1.386555510E0,8.815893817E-1,-7.007332474E-1,1.786270725E0
1.644037262E1,1.716947168E0,1.185089695E0,-9.688725239E-1,2.300230234E0
1.645042762E1,1.998368395E0,1.323082815E0,-1.111722926E0,2.641959924E0
1.646048262E1,2.297026044E0,1.485409707E0,-1.161261706E0,2.971750225E0
1.647053762E1,2.705367519E0,1.728367950E0,-1.111500659E0,3.397308184E0
1.648059262E1,3.194893489E0,1.906864148E0,-9.459520233E-1,3.839049429E0
1.649064762E1,3.571611468E0,2.005289744E0,-6.522533977E-1,4.147653545E0
1.650070262E1,3.865546321E0,2.134122031E0,-3.670040353E-1,4.430758080E0
1.651075762E1,4.216471646E0,2.275755628E0,-1.289638861E-1,4.793154337E0
1.652081262E1,4.628550661E0,2.405444532E0,1.720034315E-1,5.219121554E0
1.653086762E1,4.932421687E0,2.643803355E0,3.648142165E-1,5.608169870E0
1.654092262E1,5.243083670E0,3.044293188E0,4.352673179E-1,6.078413035E0
1.655097762E1,5.604695951E0,3.403159032E0,5.298460311E-1,6.578361872E0
1.656103262E1,6.005746533E0,3.681329792E0,6.286704075E-1,7.072227862E0
1.657108762E1,6.291330392E0,3.890674730E0,6.363805461E-1,7.424497839E0
1.658114262E1,6.645873390E0,4.016395714E0,5.172680855E-1,7.782456805E0
1.659119762E1,7.010732045E0,4.069769683E0,2.850769061E-1,8.111390628E0
1.660125262E1,7.258879691E0,4.119302616E0,-3.702690840E-2,8.346338084E0
1.661130762E1,7.367372439E0,4.036859214E0,-3.714227396E-1,8.409064384E0
1.662136262E1,7.413067845E0,3.822335982E0,-5.719062227E-1,8.360077987E0
1.663141763E1,7.363477609E0,3.645672301E0,-5.869148558E-1,8.237487364E0
1.664147262E1,7.231466775E0,3.610484342E0,-5.120085150E-1,8.098880270E0
1.665152762E1,7.142091499E0,3.758250498E0,-3.178341776E-1,8.076814740E0
