"Time (s)","Linear Acceleration x (m/s^2)","Linear Acceleration y (m/s^2)","Linear Acceleration z (m/s^2)","Absolute acceleration (m/s^2)"
4.782708333E-3,4.908632290E-1,1.332960516E-1,1.437073115E0,1.524432250E0
1.474870834E-2,6.110831523E-1,2.018891537E-1,1.170894994E0,1.336105137E0
2.471370835E-2,8.962761256E-1,2.473904318E-1,7.340822572E-1,1.184647492E0
3.467870833E-2,1.282455776E0,1.897687528E-1,2.302633524E-1,1.316710374E0
4.464470834E-2,1.497587119E0,1.126115263E-1,-1.037377918E-1,1.505393657E0
5.460970834E-2,1.386464001E0,1.438491064E-1,-1.493203461E-1,1.401881435E0
6.457470835E-2,1.239938332E0,2.798766848E-1,-1.723191994E-1,1.282759499E0
7.454070833E-2,1.135571964E0,3.102503389E-1,-4.388481528E-1,1.256330633E0
8.450570834E-2,1.098562890E0,2.784944031E-1,-7.990793216E-1,1.386696549E0
9.447070834E-2,9.220217085E-1,3.877686310E-1,-8.421616066E-1,1.307564420E0
1.044367084E-1,7.726235944E-1,5.299001178E-1,-4.758399779E-1,1.050792576E0
1.144017083E-1,9.149266970E-1,3.441785154E-1,-7.106881320E-2,9.801022842E-1
1.243667083E-1,1.568598922E0,-4.929056615E-2,2.128678858E-2,1.569517526E0
1.343327083E-1,2.534470654E0,-3.187518981E-1,-9.094466865E-2,2.556054617E0
1.442977083E-1,3.455138732E0,-3.992613333E-1,-6.895562947E-2,3.478814188E0
1.542627083E-1,3.992730278E0,-2.369209921E-1,-3.054860276E-1,4.011402291E0
1.642287083E-1,3.480108097E0,-2.167521912E-1,-4.831267780E-1,3.520162690E0
1.741937083E-1,1.770999999E0,-2.892828083E-1,-6.338826156E-1,1.903137596E0
1.841587083E-1,5.783539474E-2,-3.101766640E-1,-1.255946839E0,1.294973729E0
1.941247083E-1,-3.479113778E-1,-2.084783810E-1,-1.736830040E0,1.783559405E0
2.040897083E-1,-5.502741560E-2,6.174191952E-2,-1.476234841E0,1.478549758E0
2.140547083E-1,1.114977340E0,2.750623798E-1,-5.149666214E-1,1.258580312E0
2.240207084E-1,2.612740314E0,1.158500066E-1,8.402197462E-1,2.746962394E0
2.339857083E-1,3.845393892E0,-3.941163683E-1,8.095095849E-1,3.949390797E0
2.439507083E-1,4.058125245E0,-1.342219875E0,-1.933177203E-1,4.278703827E0
2.539167083E-1,2.560116835E0,-6.838166678E-1,-1.803187752E-1,2.655996668E0
2.638817083E-1,1.164314099E0,-3.854589808E-1,-3.407347977E-1,1.272912467E0
2.738467083E-1,7.788899823E-1,-5.532989207E-1,2.474722928E-1,9.869406446E-1
2.838127083E-1,8.432852221E-1,-3.149288423E-1,1.962801536E0,2.159374912E0
2.937777083E-1,2.300109427E0,-9.752139755E-1,3.534003346E0,4.327900799E0
3.037437083E-1,3.791210960E0,-1.433084875E0,4.518446420E0,6.069874040E0
3.137087083E-1,4.629878271E0,-1.697276842E0,4.044408554E0,6.377598454E0
3.236737083E-1,4.815934042E0,-2.081203122E0,2.199982730E0,5.688985071E0
3.336397083E-1,3.858662686E0,-2.264295085E0,-3.812150717E-2,4.474121501E0
3.436047084E-1,2.374360441E0,-1.995725892E0,-1.034101138E0,3.269537353E0
3.535697083E-1,1.443236665E0,-1.241592802E0,-9.714031988E-1,2.137313484E0
3.635357083E-1,1.363532537E0,-6.925915843E-1,-7.567875803E-1,1.706350352E0
3.735007083E-1,1.729524529E0,-7.529883519E-1,-7.819592589E-1,2.041986003E0
3.834657083E-1,2.270945854E0,-1.443843313E0,-8.542495555E-1,2.823405902E0
3.934317083E-1,2.788167016E0,-2.004906459E0,-3.890567726E-1,3.456138075E0
4.033967083E-1,3.731747993E0,-1.474128382E0,1.080770105E-1,4.013810934E0
4.133617083E-1,4.090415324E0,-8.890013123E-1,9.641935819E-1,4.295519773E0
4.233277083E-1,3.950819775E0,-7.501074287E-1,2.420320433E0,4.693568903E0
4.332927083E-1,3.689501275E0,-1.284054404E0,2.803198453E0,4.808236365E0
4.432577083E-1,3.937501864E0,-2.635168186E0,1.165063566E0,4.879078336E0
4.532237083E-1,4.058271133E0,-3.937046074E0,-7.579453290E-1,5.704767962E0
4.631887084E-1,3.378743691E0,-4.560126835E0,-1.841712717E0,5.966789037E0
4.731537083E-1,2.845126205E0,-4.405178252E0,-2.472816736E0,5.797858326E0
4.831197083E-1,2.546084102E0,-3.890444057E0,-2.902420440E0,5.481071394E0
4.930847083E-1,2.317751500E0,-3.333850523E0,-2.813895934E0,4.940095308E0
5.030497083E-1,1.850091777E0,-2.899210611E0,-2.100517498E0,4.029942371E0
5.130157083E-1,1.343189343E0,-2.394343301E0,-1.672882551E0,3.214898674E0
5.229807083E-1,7.933212760E-1,-1.737056912E0,-1.729526283E0,2.576429026E0
5.329457083E-1,1.458514854E-1,-1.256540916E0,-2.045030930E0,2.404645345E0
5.429117083E-1,-2.459847611E-1,-1.550908463E0,-2.329353545E0,2.809219376E0
5.528767083E-1,-3.344773999E-1,-1.913654227E0,-2.522314585E0,3.183711435E0
5.628417083E-1,-1.263849351E-1,-1.994020698E0,-1.468739296E0,2.479775557E0
5.728077083E-1,-7.102636242E-1,-2.516792475E0,3.862112251E0,4.664185869E0
5.827727084E-1,1.381197122E-1,-1.795110700E0,3.916210690E0,4.310244268E0
5.927377083E-1,1.679232920E0,-1.099700466E0,1.780512249E-1,2.015159188E0
6.027037083E-1,1.069371543E0,-1.412748405E0,1.840950240E0,2.555095172E0
6.126687083E-1,1.425023172E0,-1.617368501E0,2.155977169E0,3.048738996E0
6.226337083E-1,7.364404392E-1,-2.150812908E0,3.972398924E0,4.576930620E0
6.325997083E-1,-3.917692959E-2,-2.188976516E0,3.885980000E0,4.460268331E0
6.425647083E-1,2.944266039E-1,-1.161562838E0,2.610526266E0,2.872414078E0
6.525297083E-1,1.102619981E0,1.976551849E-1,9.925280195E-1,1.496646339E0
6.624957083E-1,2.076814640E0,1.182335656E0,-1.040250655E0,2.606376427E0
6.724607083E-1,2.172994321E0,2.047960970E0,-2.640540023E0,3.986038142E0
6.824257083E-1,1.191052101E0,2.959412959E0,-2.679166730E0,4.165893006E0
6.923917083E-1,-5.023965696E-1,2.545034234E0,-1.276237262E0,2.891086840E0
7.023567084E-1,-2.243241893E0,8.505764808E-1,3.144498092E-1,2.419606005E0
7.123217083E-1,-3.153960349E0,-8.780269656E-1,1.492957878E0,3.598238522E0
7.222877083E-1,-3.109944848E0,-1.928872190E0,3.149212702E0,4.828027084E0
7.322527083E-1,-2.607250071E0,-1.894269245E0,4.555562207E0,5.580246941E0
7.422177083E-1,-1.581470397E0,-1.714785599E0,4.255097768E0,4.852565845E0
7.521837083E-1,-6.430870101E-1,-1.514080652E0,2.216563679E0,2.760281809E0
7.621487083E-1,-2.877452829E-1,-8.110225520E-1,2.158265769E-2,8.608256146E-1
7.721147084E-1,3.626090853E-1,-4.344118702E-1,-1.720670090E0,1.811326746E0
7.820797083E-1,1.024328979E0,-5.951383799E-1,-1.935019076E0,2.268862793E0
7.920447083E-1,2.650829369E-1,-8.083921820E-1,-1.071117522E0,1.367866817E0
8.020107083E-1,-8.955550177E-1,-1.049233294E0,-2.117528218E-1,1.395617624E0
8.119757083E-1,-2.087250020E0,-1.321351600E0,9.501497394E-1,2.646765427E0
8.219407084E-1,-2.940702161E0,-1.828848550E0,1.317159001E0,3.705040358E0
8.319067083E-1,-3.241718870E0,-2.565302145E0,6.303894889E-1,4.181734955E0
8.418717083E-1,-3.334817652E0,-3.071490927E0,-9.577797711E-2,4.534780999E0
8.518367083E-1,-2.985264961E0,-2.941610819E0,-4.965759587E-1,4.220363584E0
8.618027083E-1,-2.290799052E0,-2.756479785E0,-6.325693309E-1,3.639517146E0
8.717677083E-1,-1.645584825E0,-3.176071887E0,-1.913934016E-1,3.582179990E0
8.817327083E-1,-2.134165008E0,-3.814194611E0,-9.046706808E-1,4.463313775E0
8.916987084E-1,-3.190046148E0,-3.921558261E0,-3.091975477E0,5.925818591E0
9.016637083E-1,-2.102382322E0,-3.300238973E0,-3.515204548E0,5.260061950E0
9.116287083E-1,-1.466863070E0,-2.423695592E0,-2.912206340E0,4.062872550E0
9.215947083E-1,-1.742386649E0,-2.759351060E0,-2.235546080E0,3.955704208E0
9.315597083E-1,-1.527955803E0,-3.561129749E0,-1.812830395E0,4.278159425E0
9.415247084E-1,-1.960456218E0,-3.900969923E0,-5.513737249E-1,4.400564498E0
9.514907083E-1,-3.119615266E0,-4.376436848E0,9.359895372E-1,5.455389565E0
9.614557083E-1,-5.059074717E0,-5.154652719E0,1.448184578E0,7.366269085E0
9.714207083E-1,-6.846376169E0,-5.853819498E0,9.703477764E-1,9.059892061E0
9.813867083E-1,-7.739979824E0,-6.071318963E0,-2.764019769E-1,9.840965384E0
9.913517083E-1,-7.139667828E0,-5.982210905E0,-4.285512060E-1,9.324449589E0
1.001316708E0,-6.165680745E0,-5.479496539E0,5.874276567E-1,8.269556978E0
1.011282708E0,-5.407657063E0,-4.879951113E0,1.273346983E0,7.394463491E0
1.021247708E0,-3.710407995E0,-4.143011906E0,1.779234048E0,5.839293531E0
1.031212708E0,-2.615798115E0,-2.969889708E0,1.796606711E0,4.346313418E0
1.041178708E0,-2.643813295E0,-2.237952501E0,1.084598277E0,3.629674029E0
1.051143708E0,-3.096948534E0,-2.103593426E0,4.315631068E-1,3.768612774E0
1.061108708E0,-3.378556872E0,-2.372029303E0,2.690017408E-1,4.136850431E0
1.071074708E0,-3.496270094E0,-2.718127020E0,3.401132387E-1,4.441598370E0
1.081039708E0,-2.823866606E0,-2.973229930E0,1.619902392E0,4.408900383E0
1.091004708E0,-1.267238397E0,-2.864191344E0,2.162645334E0,3.806116138E0
1.100970708E0,1.396405730E0,-1.798763164E0,3.382761897E0,4.077815093E0
1.110935708E0,3.680208296E0,-1.888034323E-1,5.373108205E0,6.515356599E0
1.120900708E0,4.681178525E0,1.144483633E0,6.312665713E0,7.941852654E0
1.130866708E0,4.731376287E0,1.970015831E0,6.397778953E0,8.197466650E0
1.140831708E0,3.279601518E0,1.712099388E0,5.511606524E0,6.638138060E0
1.150796708E0,1.800965225E0,9.480308546E-1,3.781286774E0,4.294224948E0
1.160762708E0,6.411612296E-1,-1.568635467E-1,2.146599843E0,2.245792685E0
1.170727708E0,3.540173328E-1,-2.915472887E-1,8.469744498E-1,9.631686311E-1
1.180692708E0,5.413931125E-1,5.666677022E-1,-8.723823559E-1,1.172718961E0
1.190658708E0,2.703853090E0,1.172978796E0,-1.956250901E0,3.537459310E0
1.200623708E0,5.955311374E0,1.540173560E0,-7.464309919E-1,6.196372115E0
1.210588708E0,8.307106533E0,2.827274656E0,1.507903361E0,8.903666294E0
1.220554708E0,8.362942180E0,4.234471130E0,3.265725490E0,9.926455089E0
1.230519708E0,7.770911011E0,4.196273901E0,3.622881609E0,9.545734322E0
1.240484708E0,6.081705957E0,2.219291697E0,3.135382283E0,7.193262476E0
1.250450708E0,6.789727759E0,2.431031363E0,1.156614339E0,7.303976537E0
1.260415708E0,6.376267632E0,3.803114722E0,-6.509939075E-2,7.424601567E0
1.270380708E0,2.340394258E0,9.850260419E0,-3.485478838E-1,1.013047685E1
1.280346708E0,9.427091575E-1,1.162730995E1,-3.957450517E0,1.231845980E1
1.290311708E0,2.896819977E0,6.242255296E0,-3.526106097E0,7.732447308E0
1.300276708E0,5.917663491E0,3.281407138E0,-4.364526654E0,8.052047374E0
1.310242708E0,7.036354544E0,1.941094333E0,-3.487960616E0,8.089746704E0
1.320207708E0,7.079476005E0,1.954090939E0,-1.447197568E0,7.485441384E0
1.330172708E0,6.338320956E0,3.194575986E0,7.273877800E-1,7.135034776E0
1.340138708E0,4.644313000E0,3.704270757E0,1.805242463E0,6.208877953E0
1.350103708E0,3.272322904E0,3.078093603E0,1.801635901E0,4.840315003E0
1.360068708E0,2.921844891E0,2.497554551E0,1.581219260E0,4.156345828E0
1.370034708E0,3.156613523E0,2.623687763E0,1.807888913E0,4.485131964E0
1.379999708E0,3.520951191E0,3.068636316E0,2.336740333E0,5.222449762E0
1.389964708E0,3.274678162E0,3.138868977E0,2.403535416E0,5.133517120E0
1.399930708E0,2.097314978E0,2.569427941E0,2.214967389E0,3.988329299E0
1.409895708E0,1.500342911E0,2.097738901E0,2.165157298E0,3.367409015E0
1.419860708E0,1.868609324E0,1.490737106E0,2.775500193E0,3.662976828E0
1.429826708E0,1.567053795E0,9.448679495E-1,3.326580972E0,3.796653000E0
1.439791708E0,8.458804357E-1,9.104886603E-1,8.658773285E-1,1.514677147E0
1.449756708E0,1.335993467E0,6.770052463E-1,-1.802774354E0,2.343759804E0
1.459722708E0,6.604424232E-1,-1.054513768E0,-1.310052295E0,1.806770737E0
1.469687708E0,3.380199355E-1,-2.610849617E0,-2.902090073E0,3.918280233E0
1.479652708E0,2.950560567E0,2.193491151E0,-7.562946600E0,8.409243269E0
1.489618708E0,5.459337679E0,6.072263288E0,-8.109097007E0,1.150800607E1
1.499583708E0,5.092178729E0,4.045342939E0,-1.986110292E0,6.799979250E0
1.509549708E0,3.462007164E0,1.902819044E0,2.184283540E0,4.514123227E0
1.519514708E0,3.219001267E0,2.359974829E0,1.133914206E0,4.149362816E0
1.529479708E0,3.780373146E0,2.130088037E0,-1.427678832E-1,4.341529551E0
1.539445708E0,3.900426131E0,7.088889438E-1,1.153339899E-1,3.965999177E0
1.549410708E0,3.183263378E0,-5.016384780E-1,-6.802119324E-1,3.293553577E0
1.559375708E0,2.369614549E0,-1.432941472E0,-2.184743131E0,3.527250618E0
1.569341333E0,1.098695914E0,-2.520997208E0,-2.569403383E0,3.763561262E0
1.579306333E0,3.294555187E-2,-2.375512635E0,-2.140711259E0,3.197935331E0
1.589271333E0,4.235226005E-2,-1.500762742E0,-1.640341042E0,2.223690908E0
1.599237333E0,-2.588869348E-1,-1.157166901E0,-1.436653869E0,1.862802196E0
1.609202333E0,-6.906889004E-1,-1.094726824E0,-3.796959651E-1,1.348942920E0
1.619167333E0,-9.906446314E-1,-9.067926353E-1,1.412383246E-1,1.350406581E0
1.629133333E0,-1.448005361E0,-8.413856810E-1,4.947119029E-1,1.746250056E0
1.639098333E0,-1.516026021E0,-5.694199866E-1,6.610125268E-1,1.749145957E0
1.649063333E0,-1.086477280E0,-1.018454574E0,2.948435104E-1,1.518095944E0
1.659029333E0,-1.109298670E0,-1.108713364E0,3.392005614E-1,1.604632632E0
1.668994333E0,-1.142426363E0,-2.323719168E0,4.808071145E-1,2.633625685E0
1.678959333E0,-1.667493172E0,-3.815386566E0,-8.847889781E-2,4.164797311E0
1.688925333E0,-1.706381834E0,-4.128122556E0,6.007242250E-1,4.507105989E0
1.698890333E0,-6.431758878E-1,-3.534924867E0,1.483208377E0,3.887065233E0
1.708855333E0,2.155786550E-1,-2.534207822E0,1.377437654E0,2.892406945E0
1.718821333E0,6.517672017E-1,-2.483479133E0,9.771372709E-1,2.747228847E0
1.728786333E0,1.605423224E-1,-2.344045259E0,4.151628363E-1,2.385934240E0
1.738751333E0,-5.622714731E-1,-1.942768975E0,1.563849521E-1,2.028535618E0
1.748717333E0,-1.296675619E0,-1.333829412E0,3.035260409E-2,1.860481079E0
1.758682333E0,-1.528879078E0,-7.172101164E-1,4.268210149E-1,1.741848950E0
1.768647333E0,-1.419507494E0,-4.958035415E-1,1.134578522E0,1.883637731E0
1.778613333E0,-2.102924797E0,-6.716620606E-1,1.104401042E0,2.468425467E0
1.788578333E0,-2.787040257E0,-6.499659669E-1,7.820595387E-1,2.966760232E0
1.798543333E0,-2.920144520E0,9.663108587E-3,9.146287814E-1,3.060046275E0
1.808509333E0,-3.071596761E0,8.956536895E-1,1.599698507E0,3.577140969E0
1.818474333E0,-3.262167460E0,1.822662488E0,1.530304922E0,4.038027765E0
1.828439333E0,-3.252218422E0,2.427249384E0,1.007311535E0,4.181284583E0
1.838405333E0,-3.680008321E0,1.856316138E0,1.160735749E0,4.282018020E0
1.848370333E0,-4.322121477E0,1.816987765E0,1.374090123E0,4.885724334E0
1.858335333E0,-4.414537890E0,2.489578364E0,1.408511513E0,5.260232874E0
1.868301333E0,-4.845366586E0,2.389171146E0,1.411397406E0,5.583704752E0
1.878266333E0,-4.903639353E0,2.204836503E0,1.081151051E0,5.484147199E0
1.888231333E0,-3.903810500E0,1.875527165E0,1.229030059E0,4.501983280E0
1.898197333E0,-3.094147718E0,1.489230278E0,1.647047213E0,3.808453944E0
1.908162333E0,-2.660369101E0,1.474638551E0,-7.424408519E-1,3.131028750E0
1.918127333E0,-1.657083667E0,2.594093251E0,-5.035984647E-1,3.119111650E0
1.928093333E0,-7.800937048E-1,1.947145032E0,-1.245494941E-1,2.101293064E0
1.938058333E0,1.678823322E-2,6.995187807E-1,4.642472881E-1,8.397225219E-1
1.948023333E0,7.369900775E-1,-3.014035016E-1,3.922280100E-1,8.876042231E-1
1.957989333E0,1.076965907E0,-5.379350692E-1,-4.750731155E-1,1.294188614E0
1.967954333E0,9.418256432E-1,-9.033421934E-2,-1.323616958E0,1.627008809E0
1.977919333E0,9.024811909E-1,3.133978951E-1,-1.618729440E0,1.879621116E0
1.987885333E0,2.115797442E-1,5.379309762E-1,-2.014019052E0,2.095330157E0
1.997850333E0,-1.825766775E-1,4.039543086E-1,-2.204947308E0,2.249067797E0
2.007815333E0,-3.057596773E-2,4.887933147E-1,-1.827671213E0,1.892151119E0
2.017781333E0,7.815768510E-2,7.111371982E-1,-1.356916559E0,1.533964565E0
2.027746333E0,2.821331254E-1,1.333334738E-1,-1.978440207E0,2.002898542E0
2.037711333E0,8.269968528E-1,-7.026324230E-1,-2.775111645E0,2.979741727E0
2.047677333E0,1.316253559E0,-1.297715839E0,-2.851898743E0,3.398516775E0
2.057642333E0,1.803531276E0,-1.502009368E0,-2.895801100E0,3.727522128E0
2.067607333E0,2.104903787E0,-1.613927999E0,-2.952107448E0,3.968667525E0
2.077573333E0,1.786574935E0,-1.950583779E0,-2.866245764E0,3.900255358E0
2.087538333E0,1.426902175E0,-1.707513855E0,-3.268058822E0,3.953714942E0
2.097503333E0,9.677080509E-1,-9.079562312E-1,-3.434488706E0,3.681922875E0
2.107469333E0,-4.025185248E-1,-7.827515566E-1,-3.188208953E0,3.307476000E0
2.117434333E0,-1.985838689E0,-1.433028011E0,-2.503930647E0,3.502398216E0
2.127399333E0,-2.512926881E0,-2.061389101E0,-1.186648855E0,3.460095669E0
2.137365333E0,-1.537952787E0,-1.767832562E0,-7.398879576E-1,2.457227082E0
2.147330333E0,-3.105882495E0,-1.890359212E0,7.037796468E-2,3.636607909E0
2.157295333E0,-3.927508096E0,-2.699355412E0,1.445634315E0,4.980130325E0
2.167261333E0,-4.348847930E0,-3.080592703E0,2.581616170E0,5.921762556E0
2.177226333E0,-4.846213263E0,-3.477881185E0,2.603780333E0,6.508541507E0
2.187191333E0,-2.539999197E0,-1.792122481E0,1.464671095E0,3.436358585E0
2.197157333E0,-9.575488061E-1,2.653712046E-1,1.026945316E0,1.428964056E0
2.207122333E0,-6.167210376E-1,-4.015809238E-2,2.084675052E0,2.174356821E0
2.217087333E0,-8.436769125E-1,-1.052926834E0,3.256702360E0,3.525132041E0
2.227053333E0,-2.156140014E0,-4.877261978E-1,3.020527765E0,3.743047499E0
2.237018333E0,-3.261309088E0,9.708447897E-1,1.845870087E0,3.871164289E0
2.246983333E0,-2.790888895E0,1.379581536E0,1.199026533E0,3.336161067E0
2.256949333E0,-1.344074319E0,1.447847194E0,2.204257629E0,2.959991380E0
2.266914333E0,-3.576195100E-1,1.464955562E0,3.187948751E0,3.526613639E0
2.276879333E0,2.605642086E-1,1.590431548E0,3.397985415E0,3.760807240E0
2.286845333E0,5.510971516E-1,1.575553308E0,2.635179881E0,3.119334753E0
2.296810333E0,6.775946456E-1,1.800498033E0,1.776298746E0,2.618427945E0
2.306775333E0,1.238450215E0,2.362900776E0,6.078845792E-1,2.736162033E0
2.316741333E0,1.077743002E0,2.102416674E0,-6.025089414E-1,2.438176137E0
2.326706333E0,4.811287844E-1,1.455179018E0,-9.095007733E-2,1.535351034E0
2.336671333E0,-2.696794331E-2,5.600545013E-1,1.426997777E0,1.533202847E0
2.346637333E0,-1.021799181E0,-1.025237344E0,2.357848928E0,2.766701419E0
2.356602333E0,-2.193313395E0,-2.393725542E0,1.808038602E0,3.716120182E0
2.366567333E0,-2.742694974E0,-2.621102709E0,6.958150812E-1,3.857034322E0
2.376533333E0,-2.367780862E0,-2.301057699E0,2.189197540E-3,3.301705247E0
2.386498333E0,-1.886479000E0,-1.770563212E0,-8.135114193E-2,2.588496690E0
2.396463333E0,-6.485754991E-1,-1.806011957E0,-4.008277659E-1,1.960355137E0
2.406429333E0,6.178787863E-1,-1.747371985E0,-7.466122556E-1,1.998127351E0
2.416394333E0,4.007026720E-1,-1.721478760E0,-7.921164572E-1,1.936878993E0
2.426359333E0,-1.763572866E-1,-1.442346718E0,-5.233936651E-1,1.544476247E0
2.436325333E0,7.974976498E-1,-3.742709184E-1,-5.426799020E-2,8.826246295E-1
2.446290333E0,2.350298272E0,8.364629102E-1,-2.465817618E-1,2.506865519E0
2.456255333E0,2.478920644E0,1.284461955E0,-4.045057011E-1,2.821084000E0
2.466221333E0,1.382992217E0,1.242689447E0,-2.063575959E-1,1.870702539E0
2.476186333E0,3.685827470E-1,7.438675725E-1,1.774302689E-1,8.489250304E-1
2.486151333E0,9.483680928E-1,8.473650438E-1,1.090402808E0,1.675233668E0
2.496117333E0,1.723800105E0,1.191170799E0,1.210601681E0,2.419903119E0
2.506082333E0,2.582256147E0,1.607589033E0,1.404657905E0,3.350440738E0
2.516047333E0,2.118166149E0,1.164013991E0,7.333718204E-1,2.525745560E0
2.526013333E0,8.025168997E-1,7.273234606E-1,1.091628385E-1,1.088553773E0
2.535978333E0,9.348820746E-3,9.017488271E-1,1.736833549E-1,9.183704347E-1
2.545943333E0,-1.590027505E-1,1.092849868E0,-2.436230707E-1,1.130908886E0
2.555909333E0,-2.262594715E-1,1.180643472E0,-6.297813785E-1,1.357106091E0
2.565874708E0,-3.457750976E-1,8.699306184E-1,-8.607539982E-1,1.271706391E0
2.575839708E0,9.989997178E-2,7.078686047E-1,-9.706494927E-1,1.205495087E0
2.585805708E0,1.006548473E0,8.094277239E-1,-6.798645347E-1,1.459633123E0
2.595770708E0,1.752444737E0,7.223007023E-1,-3.693873239E-1,1.931120881E0
2.605735708E0,2.019413986E0,6.811579388E-1,-3.456382728E-1,2.159044881E0
2.615701708E0,1.747839178E0,5.140035850E-1,-5.677067890E-1,1.908253776E0
2.625666708E0,1.515013576E0,4.138624156E-1,-4.830227341E-1,1.643124826E0
2.635631708E0,1.563251643E0,2.413982052E-1,-3.003053214E-1,1.610034807E0
2.645597708E0,1.691861736E0,-3.770869374E-3,-9.364904243E-2,1.694455811E0
2.655562708E0,2.025270557E0,-4.504987299E-2,-2.424142320E-2,2.025916575E0
2.665527708E0,2.149689951E0,1.501003647E-1,-4.556981472E-1,2.202579807E0
2.675493708E0,1.374533342E0,8.003130841E-1,-1.294154885E0,2.050531592E0
2.685458708E0,6.830904436E-1,1.815218398E0,-2.975378489E0,3.551690800E0
2.695423708E0,1.071204937E0,1.947540888E0,-1.907777483E0,2.929165488E0
2.705389708E0,1.171781432E0,1.571904645E0,9.448562551E-1,2.176398236E0
2.715354708E0,3.755123700E0,-6.871168363E-1,1.940375710E0,4.282305622E0
2.725319708E0,5.659777308E0,-2.470909958E0,1.276202179E0,6.306121407E0
2.735285708E0,5.102023101E0,-1.975718620E0,-5.167102611E-1,5.495552136E0
2.745250708E0,4.731985859E0,-5.400716418E-1,-2.605091279E0,5.428615672E0
2.755215708E0,4.889191468E0,1.282452267E-1,-2.882161592E0,5.676926588E0
2.765181708E0,4.097937475E0,1.100621402E-2,-2.151309337E0,4.628319841E0
2.775146708E0,2.654182747E0,-5.235865867E-1,-1.956754931E0,3.338819975E0
2.785111708E0,1.409515480E0,-8.587934268E-1,-1.955414749E0,2.558887820E0
2.795077708E0,1.351935316E0,-3.699860787E-1,-1.697846069E0,2.201658482E0
2.805042708E0,1.821486028E0,7.188338882E-1,-1.607883732E0,2.533737083E0
2.815007708E0,1.466690431E0,8.445963871E-1,-1.558410441E0,2.300688371E0
2.824973708E0,1.091761116E0,1.461660072E0,-1.128759373E0,2.145341517E0
2.834938708E0,8.606703830E-1,1.977602593E0,-1.135740949E0,2.437534211E0
2.844903708E0,6.923787457E-1,1.483988834E0,-2.625422047E0,3.094261158E0
2.854869708E0,1.275266039E-1,5.788661635E-1,-4.347921731E0,4.388139976E0
2.864834708E0,-2.516115367E-1,-6.770900309E-1,-4.452493336E0,4.510704622E0
2.874799708E0,1.285226771E-1,-1.595816833E0,-2.524075767E0,2.988997812E0
2.884765708E0,4.015054947E-1,-2.114104673E0,3.219897938E-1,2.175849871E0
2.894730708E0,-3.600686163E-1,-2.230001165E0,2.430780956E0,3.318320458E0
2.904695708E0,-1.637442285E0,-1.383807904E0,3.486483024E0,4.092884732E0
2.914661708E0,-2.825993239E0,-9.487364674E-1,2.263805819E0,3.743147801E0
2.924626708E0,-3.604379556E0,-9.798231894E-1,-1.640589841E-1,3.738786009E0
2.934591708E0,-4.126993751E0,-1.603066796E0,-2.667511475E0,5.168899113E0
2.944557708E0,-4.343745065E0,-1.429861743E0,-3.133863176E0,5.543800520E0
2.954522708E0,-4.361787526E0,-8.752012986E-1,-2.561252364E0,5.133340181E0
2.964487708E0,-4.234072057E0,-3.942140168E-1,-1.673943090E0,4.569995224E0
2.974453708E0,-3.973952822E0,1.290901494E-1,-8.906771243E-1,4.074588450E0
2.984418708E0,-3.523132787E0,6.318115318E-1,-1.479357255E-1,3.582392417E0
2.994383708E0,-2.692486980E0,1.669890531E0,-3.323813193E-1,3.185670708E0
3.004349708E0,-2.294270105E0,2.686257648E0,-1.161965419E0,3.718846475E0
3.014314708E0,-1.864721510E0,3.352860113E0,-1.234789274E0,4.030330235E0
3.024279708E0,-1.208675170E0,-4.577123230E0,-8.346204525E0,9.595315665E0
3.034245708E0,-1.442869021E0,-7.706072406E0,-1.034124176E1,1.297716086E1
3.044210708E0,1.976451167E-1,-1.459602553E1,1.358352343E0,1.466042789E1
3.054175708E0,4.076871711E0,-1.414397144E1,1.269798776E1,1.943995124E1
3.064141708E0,3.675123849E0,-6.602972953E0,1.043576902E1,1.288452801E1
3.074106708E0,-2.186440030E-1,-2.233566797E0,2.369562508E0,3.263656281E0
3.084071708E0,-1.871860084E0,1.859159054E0,6.637920007E-1,2.720469147E0
3.094037708E0,-3.635095857E0,3.619409532E0,1.848125651E0,5.452487109E0
3.104002708E0,-4.537471506E0,4.113802725E0,3.133847681E0,6.879899841E0
3.113967708E0,-5.560409725E0,3.816835506E0,3.337253018E0,7.524868590E0
3.123933708E0,-5.256591323E0,4.062382895E0,2.908898863E0,7.252337535E0
3.133898708E0,-4.574185004E0,4.032254532E0,2.095007667E0,6.447581111E0
3.143863708E0,-3.570873257E0,3.559936917E0,1.458631506E0,5.248989668E0
3.153829708E0,-2.317631632E0,3.209417388E0,1.267159752E0,4.156617638E0
3.163794708E0,-1.454173881E0,2.994394804E0,1.206592830E0,3.540746839E0
3.173759708E0,-1.042129950E0,2.565447741E0,1.077146001E0,2.971161465E0
3.183725708E0,-6.324856427E-1,2.154872630E0,8.367526397E-1,2.396595319E0
3.193690708E0,-2.142391493E-1,1.815813645E0,6.725373888E-1,1.948174567E0
3.203655708E0,2.598170441E-1,1.264932255E0,5.485696927E-1,1.403027874E0
3.213621708E0,5.146084794E-1,9.142911047E-1,2.272356641E-1,1.073492505E0
3.223586708E0,5.261750029E-1,8.968985617E-1,-2.679887107E-1,1.073827320E0
3.233551708E0,3.146690798E-1,8.663720030E-1,-5.354982421E-1,1.066009120E0
3.243516708E0,6.429319675E-2,9.887916487E-1,-6.814242795E-1,1.202572904E0
3.253482708E0,-6.883056301E-2,1.135566702E0,-7.380580714E-1,1.356089635E0
3.263447708E0,-1.942854710E-1,9.993984979E-1,-8.668985447E-1,1.337182594E0
3.273412708E0,-2.755714165E-2,9.186689150E-1,-1.144198946E0,1.467618207E0
3.283378708E0,2.646987565E-1,7.356352776E-1,-1.763859964E0,1.929359134E0
3.293343708E0,8.870886880E-1,4.143418872E-1,-2.366797653E0,2.561315418E0
3.303309708E0,1.540944077E0,3.401529998E-1,-2.717205207E0,3.142199364E0
3.313274708E0,1.832731832E0,1.742312390E-1,-3.163248651E0,3.659973295E0
3.323239708E0,1.926100025E0,-4.462062889E-1,-3.808394465E0,4.291017334E0
3.333204708E0,2.021326610E0,-1.707148404E0,-4.783492520E0,5.466435550E0
3.343170708E0,2.286733044E0,-3.378441097E0,-5.788921251E0,7.081992764E0
3.353135708E0,2.154178858E0,-4.790273536E0,-6.284107912E0,8.190068336E0
3.363100708E0,1.372789264E0,-4.758609109E0,-5.832914532E0,7.651914986E0
3.373066708E0,9.239854228E-1,-2.758641500E0,-4.907537692E0,5.705066010E0
3.383031708E0,4.265624218E-1,-1.205163771E-1,-3.854517010E0,3.879920241E0
3.392997708E0,-2.441864865E-1,2.002969569E0,-2.626100032E0,3.311784340E0
3.402962708E0,-1.024877155E0,3.203370198E0,-1.479254344E0,3.674254648E0
3.412927708E0,-1.917612646E0,3.418982767E0,1.946200414E-1,3.924864122E0
3.422892708E0,-2.777602267E0,2.705496742E0,6.883516221E-1,3.938097882E0
3.432858708E0,-3.926362334E0,1.577322675E0,2.826076269E-1,4.240770575E0
3.442823708E0,-4.528624376E0,3.564141065E-1,1.447196399E0,4.767582949E0
3.452788708E0,-4.735545059E0,-1.312654890E0,1.262973876E0,5.073810489E0
3.462754708E0,-4.355711977E0,-2.875789297E0,2.977403672E-1,5.227909738E0
3.472719708E0,-2.989506239E0,-1.188363551E0,1.209524478E0,3.436903395E0
3.482685708E0,-1.197347578E0,3.153508651E-1,3.156970203E0,3.391098385E0
3.492650708E0,-6.923729715E-1,1.879979235E0,2.773564764E0,3.421456380E0
3.502615708E0,-7.106775340E-1,2.626455250E0,5.506007230E-1,2.776056717E0
3.512580708E0,-1.113038038E0,3.023902777E0,1.829361205E0,3.705321052E0
3.522546708E0,-1.350927256E0,3.731008905E0,3.300969583E0,5.161572637E0
3.532511708E0,-1.714689412E0,2.808160400E0,4.210931994E0,5.343956668E0
3.542476708E0,-1.846333479E0,1.849000686E0,4.581468880E0,5.274240036E0
3.552442708E0,-1.389721047E0,2.338233712E0,4.152693726E0,4.964224678E0
3.562407708E0,-9.065257099E-1,3.253482590E0,3.513529905E0,4.873584946E0
3.572372708E0,-6.972852905E-1,4.000667288E0,3.512133590E0,5.369043479E0
3.582338708E0,-6.124463941E-1,4.633539505E0,3.671709952E0,5.943587545E0
3.592303708E0,-6.170253121E-1,4.605862879E0,2.938281999E0,5.498017297E0
3.602268708E0,-5.933725939E-1,4.060980148E0,1.436243395E0,4.348154308E0
3.612234708E0,-7.048502719E-1,2.682650501E0,5.080984819E-1,2.819856678E0
3.622199708E0,-1.187642151E0,-8.110088110E-3,-1.074460959E-1,1.192520153E0
3.632164708E0,-2.363750522E0,-5.117945069E0,-1.123763512E0,5.748349563E0
3.642130708E0,-4.108679979E0,-1.130542073E1,-2.072387713E0,1.220608782E1
3.652095708E0,-8.735094067E-1,-1.259833717E1,6.453438599E0,1.418195995E1
3.662060708E0,1.601883320E0,-1.114655772E1,2.992184556E0,1.165182165E1
3.672026708E0,3.022426648E0,-7.366928051E0,2.245116802E0,8.273284789E0
3.681991708E0,3.002467470E0,-3.670756271E0,1.782257643E0,5.066133123E0
3.691956708E0,2.448028634E0,-1.220632580E0,9.156342101E-1,2.884644535E0
3.701922708E0,2.918818080E0,9.105459630E-1,-1.145827688E-2,3.057568352E0
3.711887708E0,2.954585498E0,1.817357309E0,-2.060602650E0,4.034655665E0
3.721852708E0,1.607421218E0,1.645643882E0,-3.567892054E0,4.245209119E0
3.731818708E0,1.539077792E-1,1.409867190E0,-3.386471078E0,3.671457403E0
3.741783708E0,-5.488148372E-1,1.106634679E0,-2.054450210E0,2.397207480E0
3.751748708E0,-8.869489396E-1,7.424367589E-1,-6.682145423E-1,1.335814896E0
3.761714708E0,-1.151824300E0,1.442508101E-3,-1.469112933E-2,1.151918890E0
3.771679708E0,-6.237087527E-1,-4.904708809E-1,-1.447793984E-1,8.065577272E-1
3.781644708E0,-1.925341934E-1,-2.465010703E-1,-2.947800681E-2,3.141673856E-1
3.791610708E0,1.037728751E-1,1.659164983E-1,-3.095632911E-2,1.981297260E-1
3.801575708E0,4.265520430E-1,4.476827109E-1,-1.017753200E-1,6.266774854E-1
3.811540708E0,5.898983976E-1,5.865663618E-1,-1.980627358E-1,8.551427153E-1
3.821506708E0,5.614806372E-1,3.770962930E-1,-3.644230378E-1,7.682878826E-1
3.831471708E0,3.818103182E-1,5.961236358E-3,-5.183404648E-1,6.438101373E-1
3.841436708E0,2.053416422E-1,-5.852478147E-2,-6.559641869E-1,6.898400935E-1
3.851402708E0,4.097494841E-2,3.334725559E-2,-5.625600332E-1,5.650351996E-1
3.861367708E0,-3.928627253E-2,-2.834092802E-1,-6.972981544E-1,7.537167554E-1
3.871332708E0,1.978925818E-1,-7.652870929E-1,-8.031115615E-1,1.126860235E0
3.881298708E0,6.888622302E-1,-1.076981694E0,-7.354221466E-1,1.474878461E0
3.891263708E0,1.154454963E0,-1.318680446E0,-8.943023980E-1,1.967602897E0
3.901228708E0,1.735928400E0,-1.232262692E0,-1.442436327E0,2.571486206E0
3.911194708E0,2.211806092E0,-1.149211180E0,-2.105047482E0,3.262513973E0
3.921159708E0,2.506608672E0,-1.302481905E0,-2.621128437E0,3.853551664E0
3.931124708E0,2.807449379E0,-1.651568280E0,-2.803474442E0,4.297547992E0
3.941090708E0,3.194269299E0,-1.839693089E0,-2.896256890E0,4.687870624E0
3.951055708E0,3.490468487E0,-2.363535783E0,-2.668402006E0,4.988991974E0
3.961020708E0,3.631479355E0,-2.494575394E0,-2.541784644E0,5.086375711E0
3.970986708E0,3.599323177E0,-2.481758882E0,-2.601574178E0,5.087479011E0
3.980951708E0,3.582486412E0,-2.465829313E0,-2.570210883E0,5.051782564E0
3.990916708E0,3.631274994E0,-2.636600170E0,-2.774366418E0,5.275881685E0
4.000882708E0,3.688143260E0,-2.897690628E0,-3.024796232E0,5.581075517E0
4.010847708E0,3.961397388E0,-3.131061775E0,-3.553043634E0,6.174166840E0
4.020812708E0,4.734142020E0,-3.634371972E0,-3.995967296E0,7.182514527E0
4.030778708E0,5.495369976E0,-4.124228895E0,-4.519516461E0,8.224012657E0
4.040743708E0,5.699249521E0,-4.259147549E0,-5.430719066E0,8.950669949E0
4.050708708E0,4.914754325E0,-4.301383742E0,-6.808528311E0,9.434657913E0
4.060674708E0,3.500000910E0,-4.844864311E0,-7.836745981E0,9.855825898E0
4.070639708E0,2.051405565E0,-5.307801238E0,-7.865587372E0,9.708165814E0
4.080604708E0,1.118446347E0,-4.754837655E0,-7.148118224E0,8.657655427E0
4.090570708E0,7.158234492E-1,-3.327490799E0,-6.449515117E0,7.292519693E0
4.100535708E0,-2.144416639E-1,-2.215908206E0,-5.635599071E0,6.059390340E0
4.110500708E0,-2.380990014E0,-2.347734268E0,-3.863724328E0,5.109729477E0
4.120466708E0,-5.426480420E0,-3.843278369E0,-3.034283193E-1,6.656541678E0
4.130431708E0,-7.779173126E0,-5.595212937E0,4.207930033E0,1.046559208E1
4.140396708E0,-8.715202425E0,-6.292806230E0,7.219578216E0,1.294899506E1
4.150362708E0,-8.004467515E0,-4.989213939E0,8.088855700E0,1.242551176E1
4.160327708E0,-5.819166559E0,-2.092243688E0,7.080237898E0,9.400529335E0
4.170292708E0,-4.247712734E0,-9.924479127E-2,4.727083261E0,6.355960129E0
4.180258708E0,-3.200639548E0,2.612226051E-1,2.716262051E0,4.205996944E0
4.190223708E0,-2.189069779E0,-1.905490637E-2,1.624207112E0,2.725883036E0
4.200188708E0,-1.008402187E0,-3.187633002E-1,1.488545569E0,1.825993681E0
4.210154708E0,-5.942386396E-1,-9.967087787E-1,1.305936147E0,1.747002339E0
4.220119708E0,4.861111969E-2,-1.183829620E0,4.969873103E-1,1.284839288E0
4.230084708E0,3.169698130E-1,-8.940579844E-1,1.594725743E-1,9.618945076E-1
4.240050708E0,2.545586796E-1,-6.691436648E-2,9.659208494E-1,1.001139721E0
4.250015708E0,-7.693547085E-2,9.707804704E-1,1.866245295E0,2.105042823E0
4.259980708E0,-3.677278841E-1,1.744268868E0,2.166220614E0,2.805389354E0
4.269946708E0,-4.429221272E-1,2.399421900E0,2.512821338E0,3.502524310E0
4.279911708E0,-8.916329248E-1,2.891953340E0,2.844112883E0,4.152996687E0
4.289876708E0,-1.076435710E0,3.353696265E0,2.941626606E0,4.589025993E0
4.299842708E0,-1.061237335E0,3.758866210E0,3.023486748E0,4.939308857E0
4.309807708E0,-1.188825627E0,4.005766060E0,3.222685598E0,5.276852335E0
4.319772708E0,-1.615151237E0,4.091472793E0,3.501927567E0,5.622486978E0
4.329738708E0,-2.835216344E0,4.122591090E0,3.747194875E0,6.251054187E0
4.339703708E0,-4.140188578E0,4.368489313E0,4.000167644E0,7.226769784E0
4.349668708E0,-5.126962060E0,4.940373316E0,4.216666943E0,8.274860034E0
4.359634708E0,-5.837963603E0,5.627184343E0,4.438523461E0,9.243782406E0
4.369599708E0,-6.082924517E0,6.226276610E0,4.608679191E0,9.849284998E0
4.379564708E0,-5.522814467E0,6.511931806E0,4.287741311E0,9.554656510E0
4.389530708E0,-4.691504708E0,6.459873460E0,3.791704173E0,8.838393637E0
4.399495708E0,-3.849845962E0,6.092244979E0,3.081701335E0,7.837961848E0
4.409460708E0,-3.054663810E0,5.791015139E0,2.627982251E0,7.055006594E0
4.419426708E0,-2.446852467E0,5.370184012E0,2.106145443E0,6.265924668E0
4.429391708E0,-1.839055742E0,4.767099851E0,2.026648746E0,5.496787439E0
4.439356708E0,-1.609499757E0,3.840801489E0,1.405930552E0,4.395325501E0
4.449322708E0,-1.501467331E0,2.582539153E0,-3.042215672E-1,3.002742643E0
4.459287708E0,-1.235821892E0,1.126610522E0,-2.243443037E0,2.798132176E0
4.469252708E0,-6.622416115E-1,-4.115363932E-1,-4.353725385E0,4.422991170E0
4.479218708E0,6.404990324E-1,-2.288625349E0,-6.210077484E0,6.649293748E0
4.489183708E0,2.787743677E0,-4.587381000E0,-8.685420216E0,1.021039194E1
4.499148708E0,5.038024741E0,-7.116114659E0,-1.100816465E1,1.404280849E1
4.509114708E0,7.131871735E0,-9.334255916E0,-1.142774097E1,1.638856893E1
4.519079708E0,8.027078698E0,-1.113714488E1,-1.015357304E1,1.707527551E1
4.529044708E0,5.236100925E0,-1.157125971E1,-7.786400285E0,1.489761167E1
4.539010708E0,1.739537593E0,-8.673642170E0,-5.346573540E0,1.033653269E1
4.548975708E0,5.783748512E-1,-4.488916227E0,-3.540183268E0,5.746110331E0
4.558940708E0,-1.287919414E-1,-4.963555187E-1,-1.652983307E0,1.730696385E0
4.568906000E0,-2.239067273E0,2.566434751E0,5.448140261E-1,3.449178440E0
4.578871000E0,-5.555146061E0,4.019389488E0,2.461036642E0,7.285042277E0
4.588836000E0,-7.729406304E0,4.367191231E0,4.250015660E0,9.842698521E0
4.598802000E0,-9.599900186E0,3.637190915E0,5.118863082E0,1.147126848E1
4.608767000E0,-9.913528461E0,1.518330701E0,3.174235861E0,1.051946519E1
4.618732000E0,-7.137423667E0,-1.476404995E0,1.673929495E0,7.478277092E0
4.628698000E0,-2.715615349E0,-3.163238418E0,2.967431538E0,5.117254532E0
4.638663000E0,-4.123343919E-1,-2.726259620E0,2.787351329E0,3.920693638E0
4.648628000E0,-5.070806278E-1,-8.466768265E-3,2.245616155E0,2.302171662E0
4.658593000E0,-1.804048754E0,3.238120201E0,2.532025641E0,4.489005256E0
4.668559000E0,-2.163705580E0,5.067109961E0,3.131525459E0,6.337481905E0
4.678524000E0,-2.254633584E0,5.194639488E0,4.617739159E0,7.306925958E0
4.688489000E0,-2.412416021E0,3.351731601E0,6.152306993E0,7.409773081E0
4.698455000E0,-2.281641435E0,1.656209800E0,6.527734491E0,7.110572137E0
4.708420000E0,-1.514033290E0,-2.158908963E-2,6.105217026E0,6.290185834E0
4.718385000E0,-7.293163379E-1,-1.274778966E0,5.458541873E0,5.652666902E0
4.728351000E0,9.300084203E-2,-1.841452516E0,4.676582029E0,5.026929082E0
4.738316000E0,7.786348245E-1,-1.880798430E0,3.799985000E0,4.310865449E0
4.748281000E0,1.190876392E0,-1.450719931E0,3.221324658E0,3.728231143E0
4.758247000E0,1.440410705E0,-1.008045360E0,2.508326876E0,3.063109885E0
4.768212000E0,1.655425396E0,-7.428829014E-1,1.468455706E0,2.334238721E0
4.778177000E0,2.206762868E0,-4.239874542E-1,3.863196909E-1,2.280090047E0
4.788143000E0,2.605810486E0,-2.072042727E-1,-6.486661309E-1,2.693315735E0
4.798108000E0,2.209652270E0,-1.357945669E-1,-1.378783391E0,2.608073419E0
4.808073000E0,1.741670658E0,-2.564033300E-1,-1.492785385E0,2.308152411E0
4.818039000E0,1.247937030E0,-4.000776047E-1,-1.443114458E0,1.949355858E0
4.828004000E0,9.614883676E-1,-5.188702226E-1,-1.307685927E0,1.704033061E0
4.837969000E0,1.006602852E0,-6.620258492E-1,-9.107769281E-1,1.510311935E0
4.847935000E0,1.116099567E0,-6.711410737E-1,-8.154194389E-1,1.536560264E0
4.857900000E0,1.099518325E0,-3.284018505E-1,-8.527246016E-1,1.429659949E0
4.867865000E0,6.008399999E-1,4.379915357E-2,-1.063531490E0,1.222303686E0
4.877831000E0,3.722492436E-1,3.286041641E-1,-1.373135127E0,1.460154195E0
4.887796000E0,5.778271133E-1,6.083191735E-1,-1.148169279E0,1.422051013E0
4.897761000E0,6.039036486E-1,7.602959096E-1,-9.831531787E-1,1.381788573E0
4.907727000E0,4.967247704E-1,5.330386108E-1,-1.446708595E0,1.619824502E0
4.917692000E0,6.508617604E-1,2.060108560E-1,-1.736276163E0,1.865667821E0
4.927657000E0,6.726139873E-1,1.499038982E-1,-1.328727132E0,1.496795426E0
4.937623000E0,9.382842770E-1,2.542667574E-1,-9.334508224E-1,1.347723787E0
4.947588000E0,1.116876077E0,2.864492476E-1,-7.693183096E-1,1.386115437E0
4.957553000E0,9.806508628E-1,1.093101883E-1,-8.723864490E-1,1.317073631E0
4.967519000E0,1.135352109E0,-9.616798639E-2,-8.713421363E-1,1.434402249E0
4.977484000E0,1.636463168E0,-4.395094728E-1,-6.795843069E-1,1.825654707E0
4.987449000E0,2.246492945E0,-8.529427028E-1,-5.159349203E-1,2.457728758E0
4.997415000E0,2.375583386E0,-1.052748494E0,-4.366718191E-1,2.634835497E0
5.007380000E0,2.036143747E0,-1.005604733E0,-5.145187247E-1,2.328487010E0
5.017345000E0,1.532755490E0,-6.602383554E-1,-8.812730473E-1,1.887298668E0
5.027311000E0,9.949212849E-1,-1.953689235E-1,-1.347749294E0,1.686554339E0
5.037276000E0,5.152434871E-1,-2.391101897E-2,-1.808607682E0,1.880720430E0
5.047241000E0,1.889437106E-1,-3.612895149E-1,-1.961802832E0,2.003721585E0
5.057207000E0,4.451532054E-1,-1.203111398E0,-2.240523376E0,2.581779117E0
5.067172000E0,1.534521056E0,-2.249882868E0,-2.830565761E0,3.927954980E0
5.077137000E0,2.528856743E0,-3.131139543E0,-3.395587180E0,5.265848798E0
5.087103000E0,3.462117677E0,-3.650765811E0,-3.702563370E0,6.246865240E0
5.097068000E0,4.310471192E0,-3.807719112E0,-3.589373555E0,6.779564090E0
5.107033000E0,4.823537469E0,-3.701917253E0,-3.408351944E0,6.970478322E0
5.116999000E0,4.948630754E0,-3.491453742E0,-3.475679709E0,6.982803521E0
5.126964000E0,4.828094204E0,-3.443223569E0,-3.747105120E0,7.014775760E0
5.136929000E0,4.687700509E0,-3.787876586E0,-4.006735529E0,7.237159297E0
5.146895000E0,4.791906078E0,-4.496100116E0,-4.274402935E0,7.838864750E0
5.156860000E0,4.858679819E0,-4.999040185E0,-4.819534172E0,8.474967964E0
5.166825000E0,4.669184132E0,-5.145155672E0,-5.911622733E0,9.122564918E0
5.176791000E0,4.053456828E0,-5.198001053E0,-7.399269585E0,9.909536699E0
5.186756000E0,2.596067855E0,-5.337485797E0,-7.944993730E0,9.917219788E0
5.196721000E0,8.365129039E-1,-5.219979567E0,-6.852894060E0,8.655061959E0
5.206687000E0,-2.035643810E-1,-3.926894138E0,-5.985246195E0,7.161362164E0
5.216652000E0,-1.522041344E0,-2.129678147E0,-4.968192029E0,5.615609575E0
5.226617000E0,-3.428720135E0,-1.809800368E0,-2.469118956E0,4.596525596E0
5.236583000E0,-5.902526804E0,-2.884427388E0,1.253158886E0,6.688060349E0
5.246548000E0,-8.864081891E0,-4.759606059E0,5.119412720E0,1.128867504E1
5.256513000E0,-1.062516267E1,-6.024115561E0,7.170535280E0,1.416335505E1
5.266479000E0,-8.949577539E0,-5.132481247E0,8.146207530E0,1.314526527E1
5.276444000E0,-7.041334033E0,-3.062281562E0,8.027350008E0,1.110838879E1
5.286409000E0,-5.704427816E0,-9.317848045E-1,4.794327995E0,7.509613875E0
5.296375000E0,-3.926238957E0,1.173202890E-1,5.928757998E-1,3.972482613E0
5.306340000E0,-2.833021300E0,-4.447281128E-1,-9.513827710E-1,3.021410590E0
5.316305000E0,-1.490663723E0,-1.158017671E0,2.012830898E-1,1.898314554E0
5.326271000E0,-5.656801075E-2,-1.405249059E0,-1.361290276E-1,1.412960003E0
5.336236000E0,1.032460409E-1,-1.485289840E0,7.619535953E-1,1.672518739E0
5.346201000E0,-3.868436015E-1,-1.293979468E0,1.477001704E0,2.001390734E0
5.356167000E0,-1.256304396E0,-8.675250739E-1,1.124119900E0,1.895928807E0
5.366132000E0,-2.270498104E0,1.034851921E-1,1.422802985E0,2.681462131E0
5.376097000E0,-2.591996439E0,1.387758867E0,2.395616824E0,3.792532160E0
5.386063000E0,-2.587211370E0,2.400152802E0,2.839981825E0,4.529888841E0
5.396028000E0,-2.490438489E0,3.257326550E0,2.911238334E0,5.028694538E0
5.405993000E0,-1.960552259E0,4.018781962E0,2.687063395E0,5.216769432E0
5.415959000E0,-1.584330709E0,4.496818739E0,2.964954658E0,5.614484722E0
5.425924000E0,-1.226994643E0,4.504933505E0,3.256215287E0,5.692352741E0
5.435889000E0,-1.357393984E0,4.118059498E0,3.370231606E0,5.491756872E0
5.445855000E0,-1.936774410E0,3.859107367E0,3.991350627E0,5.880024202E0
5.455820000E0,-2.477482229E0,4.003885596E0,4.438072641E0,6.470356004E0
5.465785000E0,-3.003478453E0,4.402078643E0,4.499035126E0,6.974273888E0
5.475751000E0,-3.628613634E0,4.906481684E0,4.631052977E0,7.660747424E0
5.485716000E0,-3.872051348E0,5.445859262E0,4.966756538E0,8.325793370E0
5.495681000E0,-3.694455914E0,6.150879103E0,5.162321928E0,8.839224283E0
5.505647000E0,-3.130962372E0,6.646328888E0,4.753760305E0,8.750705692E0
5.515612000E0,-2.651074367E0,6.622344779E0,3.718028379E0,8.044089799E0
5.525577000E0,-2.255570601E0,6.226712227E0,2.622167780E0,7.122872157E0
5.535543000E0,-1.675795049E0,5.617227704E0,1.920282631E0,6.168388891E0
5.545508000E0,-9.750493763E-1,4.716584585E0,1.578759628E0,5.068468546E0
5.555473000E0,-1.219900216E-1,3.719201038E0,1.469047152E0,4.000679625E0
5.565439208E0,5.603829686E-1,2.763080707E0,1.080767766E0,3.019387856E0
5.575404208E0,6.378321174E-1,1.901061956E0,3.493322513E-1,2.035411357E0
5.585369208E0,5.441230313E-1,1.296323617E0,-4.812919217E-1,1.485990144E0
5.595335208E0,4.281357613E-1,8.802316582E-1,-1.716968510E0,1.976382774E0
5.605300208E0,1.846211565E-1,3.858875817E-1,-3.381031121E0,3.407985569E0
5.615265208E0,4.168792865E-1,-5.229942638E-1,-5.026675880E0,5.070974437E0
5.625231208E0,9.054773042E-1,-2.077861292E0,-7.261330844E0,7.606860215E0
5.635196208E0,1.466427891E0,-4.497139167E0,-1.001890230E1,1.107939867E1
5.645161208E0,2.350440359E0,-7.729577043E0,-1.171424869E1,1.423005810E1
5.655127208E0,3.553223729E0,-1.110687969E1,-1.164174438E1,1.647781501E1
5.665092208E0,2.674253607E0,-1.333080735E1,-8.776399968E0,1.618293093E1
5.675057208E0,1.680586258E-1,-1.082907847E1,-6.504284232E0,1.263340404E1
5.685023208E0,-6.267630458E-2,-4.445888321E0,-4.783460945E0,6.530800096E0
5.694988208E0,3.779423851E-1,6.701967484E-1,-2.621989732E0,2.732550874E0
5.704953208E0,-4.268686697E-1,4.090831354E0,-3.226715791E-1,4.125679941E0
5.714919208E0,-1.978396645E0,6.532274854E0,2.123324271E0,7.147948937E0
5.724884208E0,-4.000932460E0,7.767457645E0,5.403297379E0,1.027309502E1
5.734849208E0,-5.375141281E0,7.527683212E0,8.442399409E0,1.252326899E1
5.744814208E0,-5.581738613E0,5.228950950E0,9.147516899E0,1.192370745E1
5.754780208E0,-4.899613253E0,1.148922327E0,8.265978388E0,9.677428958E0
5.764745208E0,-6.359758018E0,-3.742885770E0,4.211179916E0,8.496455274E0
5.774711208E0,-7.354772274E0,-7.710421565E0,-9.862475252E-1,1.070121302E1
5.784676208E0,-5.072468934E0,-7.859678761E0,-2.198798522E0,9.609329126E0
5.794641208E0,-1.804349301E0,-3.202284955E0,-1.554666907E0,3.990901468E0
5.804606208E0,7.221384421E-1,1.743333898E0,3.560827155E-1,1.920284331E0
5.814572208E0,1.576094467E0,4.495697243E0,2.174775968E0,5.236890106E0
5.824537208E0,1.180084478E0,5.155256152E0,4.416344680E0,6.890091850E0
5.834502208E0,1.805971026E-2,3.746077180E0,6.837331696E0,7.796314841E0
5.844468208E0,-2.276601720E-1,1.790386443E0,7.058879188E0,7.285951425E0
5.854433208E0,-8.682998300E-2,4.034508634E-1,6.477256647E0,6.490390260E0
5.864398208E0,1.197071224E-1,-2.201967859E-1,5.808233435E0,5.813638453E0
5.874364208E0,5.097336558E-1,-4.844014710E-1,5.104795851E0,5.153000472E0
5.884329208E0,9.379980558E-1,-7.408656120E-1,4.272811908E0,4.436850663E0
5.894294208E0,1.258196847E0,-1.228416393E0,3.527415873E0,3.941412042E0
5.904260208E0,1.500468627E0,-1.359138501E0,2.553187884E0,3.258440108E0
5.914225208E0,1.946407990E0,-1.053292869E0,1.312114023E0,2.572853113E0
5.924190208E0,2.108110108E0,-6.378873736E-1,-7.422746996E-2,2.203755487E0
5.934156208E0,1.881802397E0,-1.607937527E-1,-1.399969023E0,2.350946226E0
5.944121208E0,1.078361052E0,2.428904146E-1,-2.639359471E0,2.861481562E0
5.954086208E0,4.242733830E-1,2.868550444E-1,-2.692259815E0,2.740539479E0
5.964052208E0,7.087994814E-3,-4.113165379E-2,-1.889493240E0,1.889954167E0
5.974017208E0,9.518185347E-2,-5.532886881E-1,-1.521708053E0,1.621968975E0
5.983982208E0,4.364320832E-1,-8.473983729E-1,-1.454084419E0,1.738654210E0
5.993948208E0,7.421826974E-1,-5.638627928E-1,-1.038314642E0,1.395304161E0
6.003913208E0,9.427837095E-1,-7.483968258E-2,-7.648163190E-1,1.216300170E0
6.013878208E0,9.125322622E-1,2.251230651E-1,-8.606287216E-1,1.274392922E0
6.023844208E0,1.083289963E0,5.678424078E-1,-8.429346085E-1,1.485429533E0
6.033809208E0,1.219221939E0,6.963870120E-1,-6.756919616E-1,1.558209432E0
6.043774208E0,1.110746149E0,5.123342049E-1,-4.822935498E-1,1.314857563E0
6.053740208E0,1.124960437E0,1.245936406E-1,-3.882878637E-1,1.196589748E0
6.063705208E0,1.415391931E0,-1.455933309E-1,-5.188446410E-1,1.514507015E0
6.073670208E0,1.542191142E0,-2.071726978E-1,-5.705884065E-1,1.657360906E0
6.083636208E0,1.322989259E0,-2.206446826E-2,-5.494501372E-1,1.432718700E0
6.093601208E0,1.054427229E0,1.858309454E-1,-6.213274741E-1,1.237900542E0
6.103566208E0,8.811180961E-1,3.295894200E-1,-7.907236505E-1,1.228919109E0
6.113532208E0,8.425650644E-1,3.463124567E-1,-8.460317324E-1,1.243228820E0
6.123497208E0,8.187379530E-1,2.046923089E-1,-7.884970307E-1,1.154971144E0
6.133462208E0,7.784734413E-1,-4.229524970E-2,-7.110999222E-1,1.055212247E0
6.143428208E0,7.415073439E-1,-4.468249243E-1,-7.818909927E-1,1.166550118E0
6.153393208E0,7.505795914E-1,-8.512668908E-1,-9.080035937E-1,1.453442661E0
6.163358208E0,7.132720166E-1,-1.173934377E0,-1.075103715E0,1.744341391E0
6.173324208E0,9.061587971E-1,-1.489460658E0,-1.259845178E0,2.151005972E0
6.183289208E0,1.414863928E0,-1.794571880E0,-1.683640697E0,2.838480960E0
6.193254208E0,2.002688026E0,-2.187831046E0,-2.367234147E0,3.794886233E0
6.203220208E0,2.503257633E0,-2.655038779E0,-2.924334635E0,4.676244514E0
6.213185208E0,2.802609054E0,-3.061351270E0,-3.372374611E0,5.347840651E0
6.223150208E0,2.953756947E0,-3.466455141E0,-3.616747295E0,5.815655797E0
6.233116208E0,3.117523132E0,-3.891651215E0,-3.530821584E0,6.109877307E0
6.243081208E0,3.381394526E0,-4.321182414E0,-3.539811385E0,6.529679245E0
6.253046208E0,3.626862393E0,-4.709513547E0,-3.979006863E0,7.153051397E0
6.263012208E0,3.796655303E0,-4.976864035E0,-4.921996686E0,7.963028224E0
6.272977208E0,3.992688178E0,-5.123197038E0,-5.804995247E0,8.711295919E0
6.282942208E0,4.340133533E0,-5.390335271E0,-6.290694215E0,9.352288871E0
6.292908208E0,4.885931060E0,-5.987364641E0,-6.527916924E0,1.011605442E1
6.302873208E0,5.619360183E0,-6.158554743E0,-7.242800433E0,1.104369338E1
6.312838208E0,6.111326197E0,-5.796640161E0,-8.225636108E0,1.177329327E1
6.322804208E0,5.571287885E0,-5.376537597E0,-8.355499844E0,1.139125906E1
6.332769208E0,3.491078351E0,-5.215463762E0,-7.259944469E0,9.596639204E0
6.342734208E0,1.578889144E0,-4.941757352E0,-5.478817677E0,7.545283281E0
6.352700208E0,-1.824033076E-1,-4.041754503E0,-7.082148768E0,8.156339963E0
6.362665208E0,-2.086431263E0,-3.289765733E0,-6.600448126E0,7.664311414E0
6.372630208E0,-3.670840764E0,-3.895264210E0,-2.097924843E0,5.748864568E0
6.382596208E0,-6.932540154E0,-5.936827741E0,3.172613844E0,9.662893729E0
6.392561208E0,-1.139262142E1,-8.103930992E0,8.708983326E0,1.647154853E1
6.402526208E0,-1.159957076E1,-8.441420585E0,1.159822356E1,1.844793790E1
6.412492208E0,-9.056947036E0,-6.307989110E0,1.185484967E1,1.619742192E1
6.422457208E0,-7.373389224E0,-2.675963625E0,1.011040070E1,1.279639998E1
6.432422208E0,-3.989503199E0,5.884871721E-1,6.526079729E0,7.671516770E0
6.442388208E0,-2.261253656E0,1.910296463E0,3.657830709E0,4.705552695E0
6.452353208E0,-9.641207841E-1,8.429351932E-1,2.577504700E0,2.878124234E0
6.462318208E0,-8.426773310E-1,-3.691809171E-1,5.585456273E-1,1.076277312E0
6.472284208E0,-6.321521321E-1,-1.123263575E0,6.655330092E-2,1.290645854E0
6.482249208E0,2.621961665E-1,-1.707629630E0,2.167840585E-1,1.741189568E0
6.492214208E0,8.229011706E-1,-1.717485697E0,2.492258728E-2,1.904611401E0
6.502180208E0,1.317074216E0,-1.452912052E0,7.925260547E-1,2.115120675E0
6.512145208E0,1.114157414E0,-8.117344505E-1,2.230837025E0,2.622383151E0
6.522110208E0,2.126082695E-1,3.478917897E-1,3.408912984E0,3.433208224E0
6.532076208E0,-6.649883410E-1,1.727433565E0,4.050756292E0,4.453634779E0
6.542041208E0,-7.645205230E-1,3.235049243E0,4.210718570E0,5.364716778E0
6.552006208E0,-6.006205831E-1,4.347846887E0,4.480017934E0,6.271768358E0
6.561972208E0,-1.084342608E0,4.921935875E0,4.715174237E0,6.901747586E0
6.571936833E0,-5.031608006E-1,5.619052035E0,5.152229633E0,7.640182377E0
6.581901833E0,-9.805798191E-1,5.959869279E0,6.101245013E0,8.585264661E0
6.591867833E0,-1.902793170E0,6.075220810E0,6.710129612E0,9.249582107E0
6.601832833E0,-3.027521034E0,6.400708993E0,6.895019156E0,9.883129483E0
6.611797833E0,-3.566886333E0,6.757417215E0,6.960020898E0,1.033572718E1
6.621763833E0,-4.215175610E0,7.279349039E0,7.035074004E0,1.096580568E1
6.631728833E0,-4.347351043E0,7.865761619E0,6.978356012E0,1.137836190E1
6.641693833E0,-3.651330067E0,8.270880108E0,6.866450830E0,1.135287699E1
6.651659833E0,-3.171097076E0,8.303247955E0,6.339652952E0,1.091746229E1
6.661624833E0,-2.590038207E0,8.008778667E0,5.495167662E0,1.005214909E1
6.671589833E0,-2.092327596E0,7.476839333E0,4.823934787E0,9.140640459E0
6.681555833E0,-1.776185602E0,6.916322317E0,4.418817759E0,8.397398411E0
6.691520833E0,-1.963871869E0,6.278788115E0,3.637480644E0,7.517395716E0
6.701485833E0,-2.115449533E0,5.233268534E0,2.236355627E0,6.071532983E0
6.711450833E0,-2.294498000E0,3.223059527E0,-8.204813004E-2,3.957216912E0
6.721416833E0,-2.683089919E0,3.091738665E-1,-3.631139631E0,4.525454123E0
6.731381833E0,-2.202793778E0,-3.143905184E0,-7.520351973E0,8.443466944E0
6.741346833E0,-5.692170882E-1,-7.058991455E0,-1.068714199E1,1.282062293E1
6.751312833E0,2.063363121E0,-1.131832670E1,-1.307429702E1,1.741548820E1
6.761277833E0,5.265677311E0,-1.506710062E1,-1.511201425E1,2.197994206E1
6.771242833E0,7.831891623E0,-1.660358868E1,-1.420416736E1,2.321155001E1
6.781208833E0,7.446873522E0,-1.403765386E1,-8.607842867E0,1.807226079E1
6.791173833E0,3.490057427E0,-9.127697761E0,-3.627709947E0,1.042380193E1
6.801138833E0,1.549444028E0,-4.493599262E0,-1.712684548E0,5.052375628E0
6.811104833E0,8.274324703E-1,-7.049449968E-1,-1.228046849E-1,1.093925469E0
6.821069833E0,-4.265210527E-1,2.669725231E0,1.654035075E0,3.169413991E0
6.831034833E0,-1.987618874E0,4.851795015E0,3.334220067E0,6.213498782E0
6.841000833E0,-4.353746143E0,5.947158017E0,4.896487331E0,8.848693810E0
6.850965833E0,-7.030737709E0,6.235995852E0,5.848996714E0,1.106931252E1
6.860930833E0,-8.472854047E0,5.073030267E0,5.317723378E0,1.121619694E1
6.870896833E0,-9.448200023E0,1.991062299E0,3.435745565E0,1.024876384E1
6.880861833E0,-8.615509737E0,-2.481472369E0,1.763047932E0,9.137453209E0
6.890826833E0,-5.705248765E0,-6.046799834E0,1.183988810E0,8.397349653E0
6.900792833E0,-3.229909540E0,-6.970687973E0,-5.838025291E-1,7.704779806E0
6.910757833E0,-2.144183043E0,-1.999513865E0,-1.286393437E0,3.201622197E0
6.920722833E0,-7.178153032E-1,3.068068551E0,1.626274395E0,3.545852768E0
6.930688833E0,4.980538425E-1,5.435253582E0,4.284097034E0,6.938553634E0
6.940653833E0,6.128563204E-1,5.939326841E0,5.978571013E0,8.449527061E0
6.950618833E0,1.698516744E-1,5.135470344E0,6.610992994E0,8.373000276E0
6.960584833E0,-2.625964084E-1,3.377415496E0,6.634064938E0,7.448940187E0
6.970549833E0,-3.137308940E-1,1.555966889E0,6.689942100E0,6.875666174E0
6.980514833E0,1.010050955E-1,3.168495065E-1,6.453591796E0,6.462154649E0
6.990480833E0,4.871695429E-1,-6.546028090E-1,5.856834322E0,5.913404035E0
7.000445833E0,6.609982011E-1,-1.595592885E0,4.939332511E0,5.232574981E0
7.010410833E0,1.009628494E0,-2.033762761E0,4.021454140E0,4.618185148E0
7.020376833E0,1.314748194E0,-2.225877709E0,2.781548553E0,3.797381563E0
7.030341833E0,1.716416241E0,-2.054218660E0,1.685324256E0,3.163260480E0
7.040306833E0,2.462749584E0,-1.410816777E0,6.236628520E-1,2.905941301E0
7.050272833E0,2.977448696E0,-7.118189836E-1,-4.838273475E-1,3.099350884E0
7.060237833E0,2.911538004E0,-4.123298603E-1,-1.912438298E0,3.507775607E0
7.070202833E0,2.413098245E0,-4.220379925E-1,-3.347483599E0,4.148108683E0
7.080168833E0,1.573940645E0,-6.702739316E-1,-4.246081361E0,4.577746523E0
7.090133833E0,1.129441451E0,-1.029919794E0,-4.530992791E0,4.781868719E0
7.100098833E0,9.678320119E-1,-9.464250630E-1,-3.714206931E0,3.953195205E0
7.110064833E0,7.329432195E-1,-8.592009777E-1,-2.798942850E0,3.018197005E0
7.120029833E0,8.569416136E-1,-6.252877933E-1,-2.312548063E0,2.544250832E0
7.129994833E0,8.012003991E-1,-2.321654516E-1,-1.663481982E0,1.860912460E0
7.139960833E0,6.057890832E-1,1.847269911E-1,-9.066121025E-1,1.105915901E0
7.149925833E0,8.457541358E-1,5.768254852E-1,-6.545947690E-1,1.215122220E0
7.159890833E0,1.278800389E0,1.080539725E0,-5.788585621E-1,1.771432688E0
7.169856833E0,1.268945492E0,1.381923346E0,-7.905317156E-1,2.035896655E0
7.179821833E0,8.976361880E-1,1.374271095E0,-7.427400832E-1,1.801675498E0
7.189786833E0,8.137689891E-1,1.228435104E0,-5.434449005E-1,1.570542942E0
7.199752833E0,8.636504164E-1,9.212112844E-1,-3.327537869E-1,1.305851199E0
7.209717833E0,8.727685645E-1,4.273887795E-1,-1.034237963E-1,9.772832843E-1
7.219682833E0,8.944710901E-1,-7.649502933E-2,3.186206281E-2,8.983012922E-1
7.229648833E0,1.067363609E0,-4.326775861E-1,1.698154217E-1,1.164178786E0
7.239613833E0,1.407199105E0,-5.993524683E-1,1.279033108E-1,1.534858938E0
7.249578833E0,1.554053680E0,-6.960958207E-1,2.010915935E-2,1.702949386E0
7.259544833E0,1.619766444E0,-7.468554997E-1,1.717968969E-1,1.791912566E0
7.269509833E0,1.031089237E0,-9.181835961E-1,-4.324933988E-1,1.446809134E0
7.279474833E0,3.302355373E-1,-1.033007709E0,-9.352541037E-1,1.432082636E0
7.289440833E0,-2.093811911E-1,-1.203176887E0,-1.626103656E0,2.033639153E0
7.299405833E0,-6.574211669E-1,-1.697382385E0,-2.248787684E0,2.893156684E0
7.309370833E0,-7.530933094E-1,-2.430308647E0,-2.849675632E0,3.820235707E0
7.319336833E0,4.550572193E-1,-3.207905298E0,-3.555610854E0,4.810415993E0
7.329301833E0,1.825770868E0,-3.900237851E0,-4.266612689E0,6.062118310E0
7.339266833E0,2.800900497E0,-4.467034777E0,-4.719858441E0,7.076475606E0
7.349232833E0,3.761970497E0,-5.015904724E0,-4.641037974E0,7.800702257E0
7.359197833E0,4.450240989E0,-5.724625853E0,-5.131092533E0,8.882797791E0
7.369162833E0,4.965688836E0,-6.417132068E0,-5.292844645E0,9.687716657E0
7.379128833E0,5.737874474E0,-6.939011267E0,-5.466558990E0,1.053358192E1
7.389093833E0,6.371661195E0,-7.708837554E0,-5.724009556E0,1.152339048E1
7.399058833E0,6.822095021E0,-8.479290662E0,-6.230518180E0,1.254028339E1
7.409024833E0,7.147441117E0,-8.194277490E0,-7.400840147E0,1.315311876E1
7.418989833E0,6.618164604E0,-7.507085225E0,-8.559475284E0,1.316894257E1
7.428954833E0,4.747649088E0,-7.342261571E0,-9.112760464E0,1.262898967E1
7.438920833E0,2.432457499E0,-7.324571990E0,-8.543712360E0,1.151352358E1
7.448885833E0,2.280677229E-1,-6.303810689E0,-6.972627495E0,9.402530419E0
7.458850833E0,-1.930051866E0,-4.292229926E0,-6.072198384E0,7.682443047E0
7.468816833E0,-3.804074543E0,-2.687235303E0,-4.801340561E0,6.689176921E0
7.478781833E0,-5.745782833E0,-2.724161054E0,-4.460022211E-1,6.374479728E0
7.488746833E0,-8.386351508E0,-4.583290873E0,5.703201070E0,1.112941819E1
7.498712833E0,-1.182408045E1,-6.143927933E0,1.067784024E1,1.707550881E1
7.508677833E0,-1.268371470E1,-5.887064427E0,1.068867513E1,1.760062278E1
7.518642833E0,-1.155738660E1,-4.201170652E0,9.795646255E0,1.572188619E1
7.528608833E0,-9.917167768E0,-1.495824183E0,8.149840990E0,1.292314260E1
7.538573833E0,-6.145489724E0,6.524750072E-1,4.835102092E0,7.846717774E0
7.548538833E0,-2.877437919E0,1.784255637E0,2.148695924E0,4.010001413E0
7.558504833E0,-2.010008447E0,2.044606422E0,1.759495602E0,3.363981890E0
7.568470458E0,-1.053386132E0,8.178903991E-1,4.328770346E0,4.529549620E0
7.578435458E0,5.721304634E-1,-5.035470092E-1,4.152905687E0,4.222264618E0
7.588401458E0,8.592655894E-1,-1.358546178E0,3.949113850E0,4.263740760E0
7.598366458E0,1.286288333E0,-7.896945405E-1,5.779513666E-1,1.616224899E0
7.608331458E0,1.319606937E0,4.649577248E-1,1.765236399E-1,1.410215853E0
7.618297458E0,1.095859137E0,1.427212955E0,1.999854465E0,2.690215967E0
7.628262458E0,1.098980966E0,2.692847461E0,1.676225989E0,3.356921235E0
7.638227458E0,2.058243299E-1,3.550013022E0,2.596781508E0,4.403206822E0
7.648193458E0,-2.862717846E-1,4.085933726E0,3.297382901E0,5.258282984E0
7.658158458E0,-5.016706377E-1,4.262773408E0,3.846347865E0,5.763445363E0
7.668123458E0,-6.427876326E-1,4.364137230E0,4.734340533E0,6.470923426E0
7.678089458E0,-8.939971733E-1,4.745351132E0,5.615410974E0,7.406107528E0
7.688054458E0,-1.547176478E0,5.309496930E0,6.358236573E0,8.426843123E0
7.698019458E0,-2.126099067E0,5.950556418E0,6.845921255E0,9.316440134E0
7.707985458E0,-2.672540081E0,6.708643835E0,6.983789245E0,1.004597854E1
7.717950458E0,-3.303061424E0,7.559318987E0,6.973472418E0,1.080198296E1
7.727915458E0,-3.522414165E0,8.437794142E0,6.656524093E0,1.130986669E1
7.737881458E0,-2.569711531E0,8.988334638E0,6.606874216E0,1.144746102E1
7.747846458E0,-1.557080199E0,9.074862905E0,6.060979332E0,1.102329832E1
7.757811458E0,-7.493315032E-1,8.691149318E0,5.078665813E0,1.009407849E1
7.767777458E0,-1.379086277E-1,7.857695970E0,4.155110672E0,8.889732811E0
7.777742458E0,1.387693378E-1,6.768357940E0,3.749373840E0,7.738716323E0
7.787707458E0,4.030263555E-1,5.666646032E0,3.552493119E0,6.700262297E0
7.797673458E0,4.593870825E-1,4.489859968E0,2.556285739E0,5.186952458E0
7.807638458E0,-3.333582428E-1,2.983810759E0,5.475566626E-2,3.002874047E0
7.817603458E0,-1.709267143E0,1.069342307E0,-3.807652161E0,4.308515071E0
7.827568458E0,-2.194582534E0,-1.374904348E0,-7.024143219E0,7.486330371E0
7.837534458E0,-1.581630611E0,-4.420284534E0,-9.691260592E0,1.076851905E1
7.847499458E0,-7.032025266E-1,-7.924173549E0,-1.176455930E1,1.420182649E1
7.857464458E0,1.462026107E-1,-1.134256692E1,-1.348991827E1,1.762535374E1
7.867430458E0,1.705241335E0,-1.365444606E1,-1.294135589E1,1.888995599E1
7.877395458E0,1.958805257E0,-1.419761731E1,-9.934455646E0,1.743853963E1
7.887361458E0,-5.412176961E-1,-1.151174792E1,-6.376856446E0,1.317108784E1
7.897326458E0,-2.239882960E0,-6.892004916E0,-3.593870648E0,8.089048997E0
7.907291458E0,-1.730882545E0,-2.076671383E0,-1.343630369E0,3.018917188E0
7.917256458E0,-1.936682316E0,2.042301450E0,1.227565624E0,3.070610846E0
7.927222458E0,-4.008935544E0,4.493614465E0,3.882938279E0,7.165287491E0
7.937187458E0,-5.452325698E0,5.541077660E0,6.794351152E0,1.032446632E1
7.947152458E0,-7.196510950E0,5.961236942E0,8.681865109E0,1.275542620E1
7.957118458E0,-8.310104401E0,4.735754097E0,8.044282376E0,1.249782705E1
7.967083458E0,-8.736570489E0,1.714107760E0,5.026532038E0,1.022408205E1
7.977048458E0,-6.705991538E0,-1.451888790E0,4.034548395E0,7.959640966E0
7.987014458E0,-2.028473369E0,-2.676913798E0,3.105353322E0,4.574253048E0
7.996979458E0,2.067440969E-1,-2.914690822E-1,3.022283099E0,3.043335748E0
8.006944458E0,1.443908802E0,3.168356486E0,4.230876846E0,5.479386310E0
8.016910458E0,2.459678627E0,5.241880313E0,4.665817305E0,7.436207319E0
8.026875458E0,2.507430206E0,5.672595574E0,5.286703899E0,8.149526667E0
8.036840458E0,1.637250496E0,4.009084355E0,5.651563139E0,7.119937673E0
8.046806458E0,9.474342924E-1,1.734039749E0,5.539311801E0,5.881198927E0
8.056771458E0,8.679279470E-1,-5.849729955E-2,5.806461729E0,5.871262101E0
8.066736458E0,8.888943082E-1,-1.898673953E0,5.942808273E0,6.301751030E0
8.076702458E0,1.051663835E0,-3.526716546E0,5.183982353E0,6.357468007E0
8.086667458E0,1.492912270E0,-4.642292202E0,4.060386071E0,6.345581059E0
8.096632458E0,1.675543619E0,-4.794285895E0,2.713709157E0,5.758197726E0
8.106598458E0,2.012408144E0,-4.279277759E0,1.107637476E0,4.856836980E0
8.116563458E0,2.792617332E0,-2.852883999E0,-1.796709768E-1,3.996240775E0
8.126528458E0,3.465342416E0,-1.467397360E0,-1.164722015E0,3.939343911E0
8.136494458E0,3.264637324E0,-3.354307884E-1,-2.644523147E0,4.214721028E0
8.146459458E0,2.363117123E0,3.357342589E-1,-4.662201971E0,5.237668112E0
8.156424458E0,1.239272919E0,3.020999050E-1,-5.679385360E0,5.820865897E0
8.166390458E0,7.836830181E-1,-6.245586455E-2,-4.761402909E0,4.825869607E0
8.176355458E0,5.166073501E-1,-4.963338840E-1,-3.389074259E0,3.463965186E0
8.186320458E0,8.506418234E-1,-7.979636729E-1,-1.942133968E0,2.265440770E0
8.196286458E0,1.188247776E0,-5.153689098E-1,-7.216540003E-1,1.482674066E0
8.206251458E0,1.272682739E0,-6.657581270E-2,5.575568631E-2,1.275641952E0
8.216216458E0,1.541832415E0,5.409504783E-1,5.206746733E-1,1.714927617E0
8.226182458E0,1.585504684E0,9.519278777E-1,1.211499229E0,2.210819343E0
8.236147458E0,1.639180369E0,1.159765989E0,1.623996758E0,2.582505547E0
8.246112458E0,1.949633607E0,1.646606918E0,2.493355080E-2,2.552059409E0
8.256078458E0,1.175180418E0,1.668567306E0,-3.597623684E-1,2.072340424E0
8.266043458E0,2.458339030E-1,1.363689973E0,-5.021957177E-1,1.473867426E0
8.276008458E0,-6.862765914E-1,7.307996303E-1,-1.751849198E-1,1.017709888E0
8.285974458E0,-9.860428727E-1,4.263234168E-1,-3.814327343E-1,1.139966286E0
8.295939458E0,-6.618480939E-1,3.648615789E-1,-7.139982408E-1,1.039692435E0
8.305904458E0,1.465201145E-1,1.092160481E-1,-8.252409339E-1,8.452330378E-1
8.315870458E0,9.438090187E-1,-5.477683318E-1,-7.817094366E-1,1.342346920E0
8.325835458E0,1.145052640E0,-1.252639654E0,-3.625044201E-1,1.735413814E0
8.335800458E0,1.297832783E0,-2.072026940E0,-6.463921487E-1,2.528930284E0
8.345766458E0,1.060424134E0,-2.635780975E0,-2.024931419E0,3.488866283E0
8.355731458E0,8.871740574E-1,-2.944574772E0,-3.427070051E0,4.604607207E0
8.365696458E0,1.065094889E0,-3.225531730E0,-4.829017771E0,5.904057478E0
8.375662458E0,1.206218609E0,-3.650323761E0,-5.865754250E0,7.013337281E0
8.385627458E0,1.617131689E0,-4.023252159E0,-5.441197861E0,6.957607850E0
8.395592458E0,2.389462337E0,-4.453581503E0,-4.181096576E0,6.559381605E0
8.405558458E0,3.235317630E0,-4.983003611E0,-3.246135564E0,6.770155187E0
8.415523458E0,4.112930905E0,-5.950659914E0,-3.606542149E0,8.082926470E0
8.425488458E0,4.432188880E0,-7.012727115E0,-4.062818221E0,9.237376887E0
8.435454458E0,4.768932953E0,-7.856517171E0,-4.893268439E0,1.041209199E1
8.445419458E0,5.091373567E0,-8.462119144E0,-6.139533750E0,1.162856052E1
8.455384458E0,4.977561023E0,-8.828773479E0,-7.509018899E0,1.261383049E1
8.465350458E0,4.978036401E0,-8.257177743E0,-9.030853837E0,1.321053185E1
8.475315458E0,5.195756891E0,-7.164805008E0,-9.364520520E0,1.288505200E1
8.485280458E0,4.220626093E0,-6.686415644E0,-8.793244042E0,1.182552238E1
8.495246458E0,2.135468060E0,-6.473957648E0,-7.750749226E0,1.032213471E1
8.505211458E0,-2.295640254E-1,-5.508585852E0,-6.650270496E0,8.638478767E0
8.515176458E0,-1.893347724E0,-3.852806407E0,-5.376942809E0,6.880435799E0
8.525142458E0,-3.240159709E0,-2.554599987E0,-3.132947502E0,5.180731231E0
8.535107458E0,-5.175399225E0,-2.721776560E0,9.659951091E-1,5.926716742E0
8.545072458E0,-6.905415505E0,-4.331536079E0,5.908840628E0,1.006783818E1
8.555038458E0,-9.504669508E0,-5.999378915E0,9.130429580E0,1.448088513E1
8.565003458E0,-1.250544713E1,-6.463924996E0,1.005401133E1,1.729889239E1
8.574968458E0,-1.264771924E1,-4.855771122E0,1.041417057E1,1.708795670E1
8.584934458E0,-9.931734352E0,-1.454692529E0,7.845013944E0,1.273969079E1
8.594899458E0,-6.101578889E0,1.871629996E0,4.306256519E0,7.699097933E0
8.604864458E0,-3.223164777E0,3.157239175E0,1.669822264E0,4.810951754E0
8.614830458E0,-4.898051169E0,1.671430103E0,-6.025424168E-2,5.175733225E0
8.624795458E0,-3.809446380E0,5.182375538E-1,1.538109054E0,4.140800809E0
8.634760458E0,-3.294812465E-1,-3.847795343E-1,3.459098175E0,3.495993902E0
8.644726458E0,1.192182952E0,-1.405528556E0,4.421431172E0,4.790184164E0
8.654691458E0,1.888047223E0,-1.974362651E0,4.392376066E0,5.172600670E0
8.664656458E0,1.226741166E0,-1.751774939E0,2.961789852E0,3.653191543E0
8.674622458E0,8.869179493E-1,-6.921618140E-1,9.494477811E-1,1.472128566E0
8.684587458E0,7.008662716E-1,1.166561623E0,-1.457222620E-1,1.368690808E0
8.694552458E0,4.638932392E-1,2.588154818E0,2.177181512E-2,2.629489744E0
8.704518458E0,4.296145222E-1,3.359689661E0,1.748837882E0,3.811891551E0
8.714483458E0,2.951969746E-1,4.292511177E0,3.043570764E0,5.270305158E0
8.724448458E0,3.013198864E-1,4.789525092E0,4.146064445E0,6.341939346E0
8.734414458E0,2.031389961E-1,5.260238231E0,5.791937245E0,7.826743177E0
8.744379458E0,5.827533925E-1,5.779103776E0,6.469585100E0,8.694433469E0
8.754344458E0,-2.562685516E-1,6.038645307E0,7.842955139E0,9.901659256E0
8.764310458E0,-1.894977343E0,6.799169843E0,9.050319802E0,1.147727922E1
8.774275458E0,-1.436251288E0,7.726647588E0,8.047248083E0,1.124820441E1
8.784240458E0,-2.101339032E0,8.478655069E0,8.108947318E0,1.191881891E1
8.794206458E0,-1.739337034E0,9.191704892E0,7.884613042E0,1.223437187E1
8.804171458E0,-9.708076599E-1,9.513267254E0,7.759925262E0,1.231507862E1
8.814136458E0,-1.581888181E-1,9.463060722E0,6.675981873E0,1.158202383E1
8.824102458E0,2.275850353E-1,8.851840160E0,5.633884667E0,1.049511913E1
8.834067458E0,5.063413936E-1,8.081642575E0,4.544657149E0,9.285646823E0
8.844032458E0,4.716124409E-1,7.169869866E0,3.576550026E0,8.026279480E0
8.853998458E0,5.040919697E-1,5.946666266E0,2.910654197E0,6.639943994E0
8.863963458E0,-2.793682694E-2,4.606603137E0,2.124183227E0,5.072842133E0
8.873928458E0,-9.832824022E-1,3.524909171E0,-8.676274002E-2,3.660513177E0
8.883894458E0,-1.223447430E0,1.955959709E0,-3.034411393E0,3.811857094E0
8.893859458E0,-1.486965067E0,-4.165427792E-1,-7.303209772E0,7.464679898E0
8.903824458E0,-1.448882736E0,-4.416567459E0,-1.240600354E1,1.324817923E1
8.913789458E0,-1.440967945E0,-9.712512882E0,-1.657414093E1,1.926425297E1
8.923755458E0,-7.595942438E-1,-1.533509137E1,-1.675085197E1,2.272296311E1
8.933720458E0,6.549466252E-3,-2.016419334E1,-1.286805403E1,2.392031669E1
8.943685458E0,-1.983610023E0,-2.023795714E1,-9.499488291E0,2.244437336E1
8.953651458E0,-2.600174940E0,-1.272054632E1,-6.858768758E0,1.468386588E1
8.963616458E0,-9.103693771E-1,-3.887335385E0,-4.304776297E0,5.871221999E0
8.973581458E0,-6.885400486E-1,1.414332708E0,-1.157363952E0,1.952924916E0
8.983547458E0,-2.583018624E0,3.990513598E0,2.975365333E0,5.607939270E0
8.993512458E0,-4.889598434E0,4.975900998E0,7.011050134E0,9.890530196E0
9.003477458E0,-6.296431503E0,5.609391266E0,1.101462349E1,1.387199519E1
9.013443458E0,-5.818552601E0,5.178433346E0,1.282318951E1,1.500353010E1
9.023408458E0,-4.807039842E0,3.934044113E0,1.059052260E1,1.227776462E1
9.033373458E0,-4.591046035E0,3.007900702E0,1.274986396E0,5.634781330E0
9.043339458E0,-5.556655812E0,1.811697789E0,-6.527246833E-1,5.880877673E0
9.053304458E0,-2.859821135E0,3.417157266E0,3.897449899E0,5.919937197E0
9.063269458E0,4.135419881E-1,5.342436050E0,6.942343011E0,8.769764330E0
9.073235458E0,1.460374269E0,5.453914386E0,8.104113425E0,9.876969654E0
9.083200458E0,1.264860919E0,4.275112787E0,7.813338407E0,8.995816781E0
9.093165458E0,2.339067525E-1,2.530542203E0,6.725735246E0,7.189844978E0
9.103131458E0,-7.668061996E-1,5.298583102E-1,6.660376239E0,6.725277185E0
9.113096458E0,2.629194671E-1,-7.951236802E-1,6.694005915E0,6.746188813E0
9.123061458E0,5.657701546E-1,-1.869118032E0,5.944763582E0,6.257308697E0
9.133027458E0,1.006463104E0,-2.864438097E0,5.275466720E0,6.086749765E0
9.142992458E0,1.667163389E0,-3.541672554E0,4.232297720E0,5.764999760E0
9.152957458E0,2.148126698E0,-3.273685305E0,2.540554390E0,4.667534723E0
9.162923458E0,2.296686906E0,-2.841666700E0,1.610694489E0,3.993016042E0
9.172888458E0,2.304046796E0,-3.140729561E0,7.552563407E-2,3.895961747E0
9.182853458E0,2.958561897E0,-3.169576800E0,-1.873443948E0,4.723250768E0
9.192819458E0,3.908739703E0,-2.019400830E0,-2.137456260E0,4.891313222E0
9.202784458E0,4.161275100E0,-1.572270096E0,-2.799806483E0,5.256154493E0
9.212749458E0,3.454326262E0,-1.742521135E0,-4.463659179E0,5.907029973E0
9.222715458E0,2.065297964E0,-1.608243921E0,-6.174557987E0,6.706494653E0
9.232680458E0,1.502115787E0,-1.291227184E0,-6.444351441E0,6.741905144E0
9.242645458E0,6.969822586E-1,-1.472185060E0,-4.515443290E0,4.800243872E0
9.252611458E0,7.465537834E-1,-1.478781888E0,-2.930813350E0,3.366571746E0
9.262576458E0,1.286852297E0,-1.014855613E0,-1.037732259E0,1.939796121E0
9.272541458E0,1.511043316E0,-4.290569901E-1,-8.162245274E-2,1.572896700E0
9.282507458E0,2.078001625E0,4.405292273E-3,-2.613430578E-1,2.094375886E0
9.292472458E0,2.328533766E0,8.937024736E-1,-1.460915136E-1,2.498422770E0
9.302437458E0,2.004050719E0,1.416382742E0,-3.346877535E-1,2.476767096E0
9.312403458E0,1.868216391E0,1.384304332E0,-9.490780909E-1,2.511429910E0
9.322368458E0,1.340760117E0,1.134227690E0,-8.769392373E-1,1.962939777E0
9.332333458E0,1.444484460E-1,8.014310718E-1,-4.190022643E-1,9.158165831E-1
9.342299458E0,-9.786151546E-1,3.351740956E-2,-4.471238633E-1,1.076443583E0
9.352264458E0,-9.179561394E-1,-5.006239861E-1,-1.090829070E0,1.511018170E0
9.362229458E0,-7.689205527E-1,-6.037817341E-1,-1.163377814E0,1.519618089E0
9.372195458E0,-5.777306342E-1,-6.738430721E-1,-1.343361543E0,1.610110992E0
9.382160458E0,-4.738577718E-1,-6.388995266E-1,-8.233689478E-1,1.144845063E0
9.392125458E0,-5.283830577E-1,-5.858348751E-1,-1.589142237E0,1.774193959E0
9.402091458E0,-6.742482841E-1,-6.571153575E-1,-2.458261262E0,2.632386706E0
9.412056458E0,-7.828474510E-1,-1.695679091E0,-3.110972204E0,3.628543201E0
9.422021458E0,-1.716941321E-1,-3.507458156E0,-3.809924097E0,5.181434475E0
9.431987458E0,4.650062567E-1,-4.561733358E0,-4.381582983E0,6.342232374E0
9.441952458E0,1.524508284E0,-4.930570459E0,-4.504671550E0,6.850307754E0
9.451917458E0,2.719097950E0,-5.346822047E0,-4.654507913E0,7.592525507E0
9.461883458E0,3.660870384E0,-6.151707653E0,-5.031512112E0,8.749948180E0
9.471848458E0,3.966186842E0,-7.103494028E0,-5.374571178E0,9.750706683E0
9.481813458E0,3.801613449E0,-8.099899337E0,-6.560201740E0,1.109490338E1
9.491779458E0,3.968222258E0,-9.059671254E0,-8.419170760E0,1.298872078E1
9.501744458E0,3.983447238E0,-9.701652848E0,-8.837250772E0,1.371447852E1
9.511709458E0,4.222778453E0,-9.799011912E0,-8.546647078E0,1.367105221E1
9.521675458E0,4.049725428E0,-9.432040658E0,-9.023361214E0,1.366692045E1
9.531640458E0,3.007696050E0,-8.383667051E0,-8.963520225E0,1.263632872E1
9.541605458E0,5.146497023E-1,-6.359016591E0,-7.297083060E0,9.692748707E0
9.551571458E0,-1.280546075E0,-4.329201871E0,-5.208562878E0,6.892816140E0
9.561536458E0,-2.373923947E0,-3.189555566E0,-3.143098269E0,5.068317900E0
9.571501708E0,-4.130502958E0,-3.137035291E0,-1.172939765E-1,5.188044234E0
9.581467708E0,-7.163685266E0,-3.875731586E0,4.327912560E0,9.223367554E0
9.591432708E0,-1.081030657E1,-4.900040392E0,7.409182370E0,1.399175140E1
9.601397708E0,-1.391986053E1,-5.227211403E0,7.708332939E0,1.674827313E1
9.611363708E0,-1.571682685E1,-3.716832331E0,7.790529588E0,1.793114162E1
9.621328708E0,-1.380011189E1,-3.657801765E-1,6.841263363E0,1.540713367E1
9.631293708E0,-9.213618502E0,1.755412492E0,3.479349421E0,1.000390480E1
9.641259708E0,-5.786606923E0,1.623461300E0,1.556469457E0,6.208304394E0
9.651224708E0,-4.392152410E0,1.278773199E0,1.404789760E0,4.785362886E0
9.661189708E0,-3.078446190E0,7.134240443E-1,2.459543556E0,4.004392502E0
9.671155708E0,-2.855838597E-2,-8.412055868E-1,5.126894233E0,5.195525661E0
9.681120708E0,1.996168088E0,-1.819935932E0,6.769555449E0,7.288603077E0
9.691085708E0,2.554692957E0,-2.089931114E0,6.404710243E0,7.205177407E0
9.701051708E0,2.724301388E0,-1.231645226E0,4.647660531E0,5.526256999E0
9.711016708E0,2.444758871E0,5.959435415E-1,1.699976209E0,3.036760405E0
9.720981708E0,1.603283143E0,2.121696698E0,-6.288151261E-1,2.732676742E0
9.730947708E0,1.375197294E0,3.356255592E0,-3.832531187E-1,3.647259539E0
9.740912708E0,9.801775306E-1,3.791939231E0,1.871364240E0,4.340686034E0
9.750877708E0,1.445073275E0,4.201989262E0,3.369295467E0,5.576477605E0
9.760843708E0,1.906713874E0,4.742772510E0,4.508355296E0,6.815769682E0
9.770808708E0,1.159551980E0,4.978210648E0,6.542164834E0,8.302232397E0
9.780773708E0,9.549122965E-1,5.420905684E0,7.742791166E0,9.499941630E0
9.790739708E0,2.217182314E-1,6.111180017E0,9.039668514E0,1.091381175E1
9.800704708E0,4.773082137E-3,7.159322659E0,9.775562823E0,1.211682930E1
9.810669708E0,-4.251738542E-1,8.425195731E0,9.574724414E0,1.276087942E1
9.820635708E0,-6.928307354E-1,9.367737658E0,9.201069793E0,1.314892424E1
9.830600708E0,-2.218357605E-1,9.885457149E0,8.530537414E0,1.305915551E1
9.840565708E0,4.500280291E-1,9.669265705E0,7.461702061E0,1.222187474E1
9.850531708E0,1.104922614E0,9.088691570E0,6.447894269E0,1.119823687E1
9.860496708E0,1.724337464E0,8.519187384E0,5.549053262E0,1.031222020E1
9.870461708E0,1.937457365E0,7.672632764E0,4.936139347E0,9.326762902E0
9.880427708E0,1.486721823E0,7.065391817E0,3.774846943E0,8.147366001E0
9.890392708E0,1.079764969E0,5.847659456E0,1.639713928E0,6.168441883E0
9.900357708E0,1.281417310E-1,3.997325605E0,-6.374500018E-1,4.049861084E0
9.910323708E0,-1.095468836E0,2.069175838E0,-4.418793494E0,5.000727603E0
9.920288708E0,-2.327419286E0,-5.141790015E-1,-9.534273376E0,9.827697055E0
9.930253708E0,-3.143539733E0,-4.097114772E0,-1.529254586E1,1.614094639E1
9.940219708E0,-3.284020259E0,-9.620047352E0,-1.812211175E1,2.077837901E1
9.950184708E0,-3.736235147E0,-1.636772954E1,-1.758247105E1,2.431060080E1
9.960149708E0,-4.948093395E0,-2.151202567E1,-1.470359559E1,2.652256775E1
9.970115708E0,-6.813699589E0,-1.916410663E1,-1.073827121E1,2.299999899E1
9.980080708E0,-4.639325910E0,-9.657315166E0,-6.314730949E0,1.243635429E1
9.990045708E0,-9.994902992E-1,-1.339452680E0,-3.173129568E0,3.586344322E0
1.000001171E1,-2.795852011E-1,4.208992472E0,-3.805669078E-1,4.235400416E0
1.000997671E1,-2.276143883E0,6.908573002E0,3.238258195E0,7.962130873E0
1.001994171E1,-4.519466175E0,7.685109553E0,8.029589492E0,1.199836617E1
1.002990671E1,-4.345453037E0,6.170467860E0,1.245439743E1,1.456261141E1
1.003987271E1,-2.786003546E0,1.953598604E0,1.725641861E1,1.758869940E1
1.004983771E1,-5.455221239E0,-7.491458541E-1,1.582519680E1,1.675582025E1
1.005980371E1,-7.308430751E0,7.244898999E-1,5.390497824E0,9.110187289E0
1.006976871E1,-5.477619583E0,1.237809361E0,-1.312719795E0,5.767124203E0
1.007973371E1,-1.808883525E0,2.984635216E0,4.629258174E0,5.797425137E0
1.008969871E1,1.829962737E0,4.663264410E0,5.800829691E0,7.664491091E0
1.009966471E1,2.274410768E0,5.153279209E0,6.684690131E0,8.741528075E0
1.010962971E1,1.152059358E0,4.528016558E0,7.447562324E0,8.791834808E0
1.011959571E1,-7.854038537E-2,2.815644836E0,7.698321337E0,8.197449349E0
1.012956071E1,-8.343251681E-1,1.210643781E0,7.188594990E0,7.337414720E0
1.013952571E1,-1.206495182E0,-3.466790771E-1,6.776558075E0,6.891847093E0
1.014949171E1,-1.095871709E0,-1.952999264E0,6.074708594E0,6.474351352E0
1.015945671E1,-6.607043785E-1,-3.183214261E0,5.141851995E0,6.083422166E0
1.016942171E1,4.031655192E-2,-3.720617234E0,4.162153351E0,5.582843231E0
1.017938671E1,8.513154227E-1,-3.901199718E0,2.834364113E0,4.896704720E0
1.018935271E1,1.552004231E0,-4.157508323E0,1.271641935E0,4.616347669E0
1.019931771E1,2.276943197E0,-4.057281200E0,6.071514845E-2,4.652922456E0
1.020928271E1,3.378671477E0,-3.241641979E0,-4.344580632E-1,4.702384233E0
1.021924871E1,4.492157924E0,-2.564357235E0,-1.090295219E0,5.286223085E0
1.022921371E1,5.340870751E0,-2.370400414E0,-2.443322795E0,6.333523883E0
1.023917871E1,4.853783653E0,-1.773652881E0,-4.074050429E0,6.580497489E0
1.024914471E1,3.969150796E0,-5.845280224E-1,-5.644623663E0,6.925143129E0
1.025910971E1,2.754665394E0,-3.348764724E-1,-4.813460085E0,5.556052706E0
1.026907471E1,7.438301504E-1,-8.076624495E-1,-2.364389038E0,2.606901887E0
1.027904071E1,4.734554833E-1,-7.733983505E-1,-1.963725981E0,2.162989790E0
1.028900571E1,1.341296307E0,-3.054842734E-1,-9.669423580E-1,1.681479690E0
1.029897071E1,9.817796677E-1,1.229599285E-1,5.609836239E-1,1.137415090E0
1.030893671E1,9.611758339E-1,5.200946295E-1,1.175678601E0,1.605172134E0
1.031890171E1,1.313881636E0,1.092247020E0,1.059581404E0,2.010472894E0
1.032886671E1,1.544936117E0,1.929644315E0,-1.341591007E-1,2.475551141E0
1.033883271E1,1.404299471E0,2.470423470E0,-7.898319501E-1,2.949386993E0
1.034879771E1,1.197940705E0,2.481544874E0,-9.641060199E-1,2.919353921E0
1.035876271E1,4.147482687E-1,2.141871346E0,-1.234674230E0,2.506800639E0
1.036872871E1,-3.733365333E-1,1.542336445E0,-1.116039340E0,1.940032393E0
1.037869371E1,-8.444876289E-1,4.609915584E-1,-1.193288953E0,1.532844120E0
1.038865871E1,-5.013554728E-1,-8.964109039E-1,-1.543258112E0,1.853794870E0
1.039862471E1,1.553897560E-2,-2.086228073E0,-1.380076795E0,2.501439784E0
1.040858971E1,2.878742141E-1,-2.943715816E0,-1.448151249E0,3.293247092E0
1.041855471E1,4.228045624E-1,-3.538550726E0,-1.882022983E0,4.030150797E0
1.042852071E1,7.186982328E-1,-3.664400348E0,-2.876783323E0,4.713834888E0
1.043848571E1,1.304937735E0,-3.792892327E0,-4.477769095E0,6.011598021E0
1.044845071E1,1.823108046E0,-4.122472392E0,-3.552447803E0,5.739197414E0
1.045841671E1,2.146464334E0,-4.514283788E0,-6.615711113E0,8.291785138E0
1.046838171E1,1.769116026E0,-5.148231307E0,-6.133480128E0,8.200831396E0
1.047834671E1,2.012033338E0,-6.081070365E0,-5.934674211E0,8.732013108E0
1.048831271E1,2.279989012E0,-7.004793613E0,-6.451414293E0,9.792151441E0
1.049827771E1,1.885068651E0,-7.803719153E0,-7.352691250E0,1.088639449E1
1.050824271E1,1.309330164E0,-8.248774125E0,-8.578631347E0,1.197286665E1
1.051820871E1,8.965810579E-1,-8.229145607E0,-9.154728854E0,1.234227513E1
1.052817371E1,5.545323908E-1,-8.052643894E0,-8.695921816E0,1.186472233E1
1.053813871E1,7.210254246E-1,-8.464272673E0,-8.037373306E0,1.169457820E1
1.054810471E1,1.435527111E0,-8.957258441E0,-8.271900448E0,1.227670778E1
1.055806971E1,2.102147702E0,-8.117773690E0,-9.212275397E0,1.245725863E1
1.056803471E1,1.959648718E0,-6.574536189E0,-9.393480025E0,1.163194808E1
1.057800088E1,1.430900794E0,-5.398703806E0,-7.480462852E0,9.335459515E0
1.058796587E1,1.233961893E0,-4.899897135E0,-4.288742647E0,6.627591370E0
1.059793087E1,-7.172709274E-1,-4.536133663E0,-2.754634988E-1,4.600746280E0
1.060789688E1,-4.232098330E0,-4.621160949E0,4.907200892E0,7.959045507E0
1.061786188E1,-6.842562615E0,-5.049506918E0,8.472656411E0,1.200433630E1
1.062782688E1,-1.060615688E1,-5.891422942E0,9.975029476E0,1.570670688E1
1.063779288E1,-1.510363636E1,-6.153565314E0,1.036518494E1,1.932416250E1
1.064775788E1,-1.731572224E1,-4.022520087E0,8.190277995E0,1.957282704E1
1.065772288E1,-1.477355870E1,-3.870885998E-1,4.162591892E0,1.535366554E1
1.066768887E1,-9.190631343E0,1.708103839E0,6.295360878E-1,9.369185605E0
1.067765387E1,-7.623102170E0,2.297175733E0,5.337353066E-1,7.979572446E0
1.068761888E1,-6.101260216E0,1.961730911E0,1.639203758E0,6.615191104E0
1.069758488E1,-2.239133347E0,6.679525870E-1,5.339431751E0,5.828328253E0
1.070754987E1,1.091479865E0,-7.545714855E-1,7.378155874E0,7.496525230E0
1.071751487E1,3.342545040E0,-2.158221915E0,6.453260844E0,7.581233719E0
1.072748088E1,4.341210882E0,-2.006708863E0,5.063133270E0,6.964790800E0
1.073744588E1,2.930393520E0,-6.411852032E-1,2.672342445E0,4.017429376E0
1.074741088E1,1.474825078E0,8.965711176E-1,-1.267720208E-1,1.730612586E0
1.075737688E1,1.058389302E0,3.017277882E0,-8.347470447E-1,3.304687029E0
1.076734188E1,1.195003649E0,3.719175310E0,1.720776802E0,4.268649846E0
1.077730688E1,1.990387530E0,4.224357786E0,3.839380323E0,6.045467929E0
1.078727287E1,2.355095327E0,5.205438711E0,5.251428816E0,7.760191414E0
1.079723787E1,2.410880688E0,6.053046999E0,6.694003576E0,9.341381458E0
1.080720288E1,2.528019129E0,6.771378027E0,8.417802511E0,1.109512687E1
1.081716888E1,2.455938748E0,7.519032841E0,1.006416677E1,1.280058369E1
1.082713387E1,1.733566124E0,8.346914962E0,1.086470906E1,1.381007400E1
1.083709887E1,8.376341075E-1,9.345491341E0,1.105793615E1,1.450233744E1
1.084706488E1,2.360947806E-1,1.023480256E1,1.037222382E1,1.457360460E1
1.085702988E1,6.119228125E-2,1.056654317E1,9.828514624E0,1.443105258E1
1.086699488E1,3.469831324E-1,1.050188933E1,9.037751797E0,1.385969099E1
1.087696088E1,7.952798009E-1,1.011773662E1,8.546534227E0,1.326816911E1
1.088692588E1,1.016215675E0,9.713850140E0,8.510791951E0,1.295473498E1
1.089689088E1,1.048290576E0,9.265122532E0,7.717385598E0,1.210369568E1
1.090685687E1,1.049687476E0,8.594888946E0,5.352516650E0,1.017955767E1
1.091682187E1,1.086683394E0,6.876013366E0,2.331241319E0,7.341330036E0
1.092678688E1,9.589679253E-1,4.013793118E0,-2.467651305E0,4.808269714E0
1.093675288E1,-9.234343958E-1,4.344463688E-1,-9.043088551E0,9.100490386E0
1.094671787E1,-4.446429774E0,-4.325036899E0,-1.731791611E1,1.839529561E1
1.095668287E1,-5.624685827E0,-1.153010233E1,-2.217080339E1,2.561493457E1
1.096664888E1,-1.958586279E0,-2.011514222E1,-1.813080188E1,2.715107703E1
1.097661388E1,-1.252592291E0,-2.652322280E1,-1.197683662E1,2.912893665E1
1.098657888E1,-3.079803913E0,-2.318075319E1,-9.212495252E0,2.513369410E1
1.099654488E1,-3.678428403E0,-1.230481513E1,-7.819751633E0,1.503621716E1
1.100650988E1,-2.187068569E0,-4.342018967E0,-4.811856194E0,6.840347774E0
1.101647588E1,-1.668636303E0,1.721507412E0,-1.332473151E0,2.742885265E0
1.102644087E1,-2.758699388E0,6.028503896E0,1.858042967E0,6.885172852E0
1.103640587E1,-5.432134677E0,8.444347701E0,6.089183961E0,1.174279594E1
1.104637088E1,-6.925557994E0,9.305717411E0,9.038121926E0,1.470535202E1
1.105633688E1,-6.508944463E0,6.652799417E0,1.155360229E1,1.483616608E1
1.106630187E1,-5.781630943E0,1.869488161E0,1.127981343E1,1.281235471E1
1.107626687E1,-8.123841931E0,-9.208072418E-1,4.086277542E0,9.140150865E0
1.108623288E1,-7.972239416E0,-1.741546404E0,8.855434151E-1,8.208152796E0
1.109619788E1,-1.407206122E0,1.616707765E0,3.483590991E0,4.090156386E0
1.110616288E1,3.336113103E0,4.131543177E0,7.345531919E0,9.064002363E0
1.111612888E1,5.703619146E0,4.400744308E0,8.602793212E0,1.122077862E1
1.112609388E1,5.913007354E0,3.928904411E0,9.278561772E0,1.168296428E1
1.113605888E1,4.558124456E0,2.542464091E0,9.070744711E0,1.046513410E1
1.114602487E1,3.002829412E0,7.350949949E-1,8.263743582E0,8.823083765E0
1.115598987E1,1.619311531E0,-1.233712217E0,7.302582951E0,7.581024562E0
1.116595488E1,7.033399361E-1,-2.938508871E0,6.351748502E0,7.033792042E0
1.117592088E1,4.377582318E-1,-4.266695135E0,5.206526878E0,6.745683196E0
1.118588587E1,4.240587902E-1,-4.898656356E0,3.732839084E0,6.173390282E0
1.119585087E1,6.591507733E-1,-5.076556723E0,1.964726440E0,5.483252491E0
1.120581688E1,1.148883736E0,-4.828473980E0,-4.141705638E-1,4.980525281E0
1.121578188E1,2.311140053E0,-3.206537050E0,-2.279983165E0,4.563066012E0
1.122574688E1,3.134311658E0,-9.045648462E-1,-3.676663713E0,4.915282615E0
1.123571288E1,2.337136189E0,5.493833327E-1,-4.683080040E0,5.262629217E0
1.124567788E1,1.555383337E0,8.392672348E-1,-3.313876727E0,3.755711088E0
1.125564288E1,1.363354928E0,1.028787773E0,-2.064089345E0,2.679105404E0
1.126560887E1,1.507511598E0,6.733068824E-1,-1.310058142E0,2.107649333E0
1.127557387E1,1.311607654E0,2.350475442E-1,-4.227887750E-1,1.397967215E0
1.128553888E1,8.840686011E-1,2.027937180E-1,3.443230878E-1,9.701860504E-1
1.129550488E1,6.447590214E-1,3.325562972E-1,6.982807790E-1,1.006927968E0
1.130546987E1,8.541361195E-1,7.163131535E-1,1.055296125E0,1.535025393E0
1.131543487E1,1.175793791E0,1.071832051E0,1.112350332E0,1.941298083E0
1.132540088E1,1.555275164E0,1.128723705E0,1.016839134E0,2.174134279E0
1.133536588E1,1.445466793E0,1.271682281E0,1.029642051E-1,1.927991623E0
1.134533187E1,1.390454434E0,1.362545673E0,-8.346110970E-1,2.118128874E0
1.135529688E1,1.204092561E0,1.259672685E0,-8.062086855E-1,1.920048596E0
1.136526188E1,5.900103718E-1,7.083773124E-1,-7.518118921E-1,1.189593114E0
1.137522688E1,3.325750083E-1,-9.267252088E-3,-1.182076771E0,1.228005501E0
1.138519287E1,4.724252039E-1,-4.512705624E-1,-1.306078088E0,1.460366621E0
1.139515787E1,9.034445196E-1,-8.342164099E-1,-1.356062281E0,1.830582947E0
1.140512388E1,1.187456063E0,-1.088232322E0,-1.495297641E0,2.197775358E0
1.141508888E1,1.117613411E0,-1.556176804E0,-1.686080886E0,2.552178430E0
1.142505387E1,7.312212145E-1,-1.955660917E0,-1.731338920E0,2.712347423E0
1.143501988E1,4.293388259E-1,-2.305817918E0,-1.951914313E0,3.051409114E0
1.144498488E1,7.052209854E-2,-2.507855006E0,-2.368555179E0,3.450270096E0
1.145494988E1,-5.122394800E-1,-2.554711668E0,-3.021688145E0,3.989929854E0
1.146491587E1,-1.075526322E0,-2.811167623E0,-4.011879324E0,5.015435773E0
1.147488088E1,-1.462057098E0,-3.614752809E0,-3.838288063E0,5.471426147E0
1.148484588E1,-3.482765365E-1,-4.434474556E0,-5.818311111E0,7.323838155E0
1.149481188E1,9.960421962E-1,-5.190646425E0,-5.395636357E0,7.552999541E0
1.150477687E1,2.737998490E0,-6.000865862E0,-6.457572581E0,9.230778432E0
1.151474187E1,3.551207024E0,-7.593305343E0,-6.735258606E0,1.075328163E1
1.152470788E1,2.954415636E0,-9.100476049E0,-6.962944506E0,1.183342014E1
1.153467288E1,2.308976583E0,-1.013606179E1,-7.921196732E0,1.306967786E1
1.154463787E1,2.244767724E0,-1.034539913E1,-8.559547790E0,1.361367414E1
1.155460388E1,2.711235784E0,-9.751972817E0,-8.534798280E0,1.323988501E1
1.156456888E1,2.970443439E0,-8.592165313E0,-8.567646183E0,1.249213353E1
1.157453396E1,2.793120777E0,-7.577192171E0,-8.755778008E0,1.191129772E1
1.158449996E1,1.424482890E0,-6.928312032E0,-8.425293379E0,1.100073760E1
1.159446496E1,-3.136031324E-1,-6.429700658E0,-7.438847634E0,9.837471809E0
1.160442996E1,-5.428186637E-1,-5.407182854E0,-5.573986959E0,7.784703536E0
1.161439596E1,-6.688542277E-1,-3.923640162E0,-2.631208452E0,4.771328538E0
1.162436096E1,-2.984239359E0,-2.997093878E0,1.393072232E0,4.452966036E0
1.163432596E1,-6.043195610E0,-3.221737472E0,5.331536840E0,8.679002857E0
1.164429196E1,-8.914987165E0,-4.006710970E0,7.943941816E0,1.259511574E1
1.165425696E1,-1.335930902E1,-4.693626078E0,1.003562300E1,1.735554644E1
1.166422196E1,-1.608579902E1,-3.724303903E0,1.155439517E1,2.015260324E1
1.167418796E1,-1.379466931E1,-6.730800104E-1,9.917508076E0,1.700302633E1
1.168415296E1,-8.193495133E0,1.344564900E0,5.464247586E0,9.939779622E0
1.169411796E1,-3.519888752E0,6.757019019E-1,2.894538686E0,4.607010320E0
1.170408396E1,-5.368632746E-1,-7.620646924E-1,3.287802530E0,3.417398169E0
1.171404896E1,9.490656656E-1,-1.448383968E0,4.058325512E0,4.412317727E0
1.172401396E1,3.026431698E0,-1.803573083E0,4.788446573E0,5.944862091E0
1.173397996E1,4.271282276E0,-2.421874623E0,4.430888459E0,6.613781181E0
1.174394496E1,3.732829728E0,-2.376092094E0,2.865302023E0,5.271601948E0
1.175390996E1,2.482299165E0,-1.604145607E0,1.189848451E0,3.186036976E0
1.176387596E1,6.669386798E-1,-4.904276115E-1,2.902981773E-1,8.772681896E-1
1.177384096E1,-3.288351291E-1,4.604436743E-1,1.311050999E0,1.427934047E0
1.178380596E1,-1.129684988E0,1.385022955E0,4.178936030E0,4.545105400E0
1.179377196E1,-9.733041286E-1,2.779207327E0,5.816651087E0,6.519566256E0
1.180373696E1,-3.593377143E-1,4.618836681E0,6.071462220E0,7.637108705E0
1.181370196E1,8.887738556E-1,5.660080778E0,5.643455974E0,8.042078632E0
1.182366796E1,1.345741360E0,5.873089582E0,6.819394777E0,9.099909130E0
1.183363296E1,1.604666010E0,6.496422651E0,8.173754933E0,1.056355669E1
1.184359796E1,1.399194852E0,7.132144800E0,8.889520787E0,1.148254395E1
1.185356396E1,3.599657053E-1,7.691829758E0,9.609098441E0,1.231375626E1
1.186352896E1,4.429148912E-2,8.566197828E0,9.560078309E0,1.283654176E1
1.187349396E1,-4.914409339E-2,9.432030718E0,9.510900886E0,1.339488164E1
1.188345996E1,4.063569295E-1,1.000349255E1,8.799399406E0,1.332908171E1
1.189342496E1,5.342782205E-1,9.740366678E0,7.555280900E0,1.233865737E1
1.190338996E1,6.313589573E-1,9.061690298E0,6.259894007E0,1.103173233E1
1.191335596E1,9.336950898E-1,8.544863677E0,5.249005730E0,1.007167032E1
1.192332096E1,9.332331598E-1,7.958432971E0,4.521599531E0,9.200676160E0
1.193328596E1,1.888551253E-1,6.825353090E0,3.358640671E0,7.609308655E0
1.194325196E1,-1.300741189E0,5.493749712E0,5.857752335E-1,5.675944517E0
1.195321696E1,-2.339558691E0,3.535072802E0,-2.876609076E0,5.123002475E0
1.196318196E1,-3.330623737E0,6.311695075E-1,-6.208374774E0,7.073566764E0
1.197314796E1,-4.923975384E0,-3.017905873E0,-1.017653154E1,1.170107190E1
1.198311296E1,-5.484581278E0,-7.514005405E0,-1.383068815E1,1.666819858E1
1.199307796E1,-4.578263437E0,-1.168504068E1,-1.556973195E1,1.999793051E1
1.200304396E1,-2.717806301E0,-1.465483332E1,-1.487919917E1,2.106041734E1
1.201300896E1,-2.810679966E0,-1.542049347E1,-1.116784510E1,1.924609843E1
1.202297396E1,-4.524426953E0,-1.184244304E1,-6.418764610E0,1.420965994E1
1.203293996E1,-3.471917025E0,-5.898190509E0,-3.464657707E0,7.671161069E0
1.204290496E1,-1.076544907E0,-6.790658051E-1,-1.866129520E0,2.258875537E0
1.205286996E1,-2.105558968E-1,3.576026115E0,-4.495602518E-2,3.582501585E0
1.206283596E1,-7.373947048E-1,6.502429495E0,2.542476662E0,7.020650103E0
1.207280096E1,-2.169852027E0,7.449708837E0,6.108779150E0,9.875403905E0
1.208276596E1,-2.860706404E0,6.426703375E0,1.053006590E1,1.266366634E1
1.209273196E1,-3.646530088E0,2.941726593E0,1.319420938E1,1.400136058E1
1.210269696E1,-4.428129743E0,-2.249143195E-1,1.244792807E1,1.321400139E1
1.211266196E1,-6.740879534E0,-1.786805608E0,3.458433931E0,7.784143911E0
1.212262796E1,-7.643131807E0,-3.654431430E0,-4.850622064E0,9.762216311E0
1.213259296E1,-3.991864890E0,-2.074493880E0,1.350440183E0,4.697041499E0
1.214255796E1,2.857260055E0,1.525219890E0,5.383636701E0,6.282815839E0
1.215252396E1,5.172687287E0,2.738724130E0,6.722033958E0,8.913082753E0
1.216248896E1,4.618768269E0,3.076789674E0,7.131960028E0,9.036841753E0
1.217245396E1,3.098538977E0,2.698612815E0,7.670759901E0,8.701954515E0
1.218241996E1,1.892824983E0,1.780285962E0,7.616035810E0,8.047124081E0
1.219238496E1,8.555300957E-1,4.467974424E-1,6.907148620E0,6.974257076E0
1.220234996E1,1.560902524E-1,-8.772671199E-1,6.103507301E0,6.168205828E0
1.221231596E1,1.354144979E-1,-2.069423175E0,4.941299515E0,5.358851580E0
1.222228096E1,6.509354353E-2,-2.918465200E0,3.898628697E0,4.870419080E0
1.223224596E1,8.642184734E-2,-3.269026828E0,2.877121292E0,4.355666662E0
1.224221196E1,3.309085518E-1,-3.113076324E0,1.581098807E0,3.507223704E0
1.225217696E1,8.933639199E-1,-2.866240209E0,-2.324519835E-1,3.011223331E0
1.226214196E1,1.843576809E0,-1.946166793E0,-1.359982254E0,3.005976109E0
1.227210796E1,2.592427964E0,-5.394693786E-1,-2.093999022E0,3.375876458E0
1.228207296E1,2.750456568E0,6.296427995E-1,-2.963534954E0,4.091943402E0
1.229203796E1,2.450758114E0,8.441022974E-1,-2.883843251E0,3.877534774E0
1.230200396E1,1.822136239E0,4.740717798E-1,-2.408652315E0,3.057209593E0
1.231196896E1,1.283701233E0,3.062888503E-2,-2.058287737E0,2.425979265E0
1.232193396E1,6.935242152E-1,-4.520330393E-1,-1.091508078E0,1.369926856E0
1.233189996E1,7.168949515E-1,-6.984066403E-1,-3.252401148E-1,1.052374144E0
1.234186496E1,1.067619132E0,-5.071290135E-1,-1.649251029E-2,1.182058565E0
1.235182996E1,1.474018162E0,5.221446633E-2,1.121642143E-1,1.479201373E0
1.236179596E1,1.878508660E0,7.096905971E-1,-2.194413257E-1,2.020051986E0
1.237176096E1,1.971510379E0,1.145499952E0,-9.790355694E-1,2.481437882E0
1.238172596E1,1.429048396E0,1.158669636E0,-1.385515437E0,2.303116946E0
1.239169196E1,9.171006918E-1,8.906718618E-1,-8.430819583E-1,1.531390621E0
1.240165696E1,8.554885805E-1,3.566316229E-1,-4.443154456E-1,1.027843880E0
1.241162196E1,9.939196569E-1,-3.347121656E-1,-7.765454681E-1,1.304964131E0
1.242158796E1,1.075931534E0,-6.376979238E-1,-8.749997158E-1,1.526404865E0
1.243155296E1,1.181290174E0,-7.342974347E-1,-8.646168150E-1,1.637742787E0
1.244151796E1,1.300494436E0,-8.006101227E-1,-1.198999051E0,1.941613008E0
1.245148396E1,1.100010953E0,-1.019447431E0,-1.443075574E0,2.081289089E0
1.246144896E1,6.006669223E-1,-1.357056307E0,-1.559510594E0,2.152783284E0
1.247141396E1,2.225947291E-1,-1.797701894E0,-1.910978249E0,2.633081537E0
1.248137996E1,-1.985065395E-1,-2.155442149E0,-2.169535254E0,3.064672727E0
1.249134496E1,-4.539491719E-1,-2.571600181E0,-2.946452898E0,3.937103253E0
1.250130996E1,-3.659859985E-1,-3.102427375E0,-2.810056360E0,4.201835089E0
1.251127596E1,-3.194521022E-1,-3.809413635E0,-4.752740843E0,6.099362869E0
1.252124096E1,-1.840785348E-1,-4.483412828E0,-5.153890827E0,6.833554430E0
1.253120596E1,8.093850392E-1,-4.952642528E0,-5.295567693E0,7.295670589E0
1.254117196E1,1.846125026E0,-5.360301048E0,-4.758875450E0,7.401884928E0
1.255113696E1,2.859726411E0,-6.694329266E0,-5.257857245E0,8.979818610E0
1.256110196E1,3.098615575E0,-8.472306163E0,-6.177301501E0,1.093345527E1
1.257106796E1,2.502967318E0,-9.794039440E0,-7.067478104E0,1.233439503E1
1.258103246E1,2.131341096E0,-1.065757379E1,-7.566647887E0,1.324313612E1
1.259099846E1,2.680564215E0,-1.059536526E1,-7.804617285E0,1.342978930E1
1.260096346E1,3.683377486E0,-9.313430473E0,-7.940468570E0,1.278116966E1
1.261092846E1,3.650500347E0,-7.936794180E0,-8.087444767E0,1.190485689E1
1.262089346E1,1.902817290E0,-7.152818801E0,-8.530919822E0,1.129425179E1
1.263085946E1,-1.014595411E0,-6.195802091E0,-7.746416439E0,9.971175209E0
1.264082446E1,-3.128082034E0,-3.945028108E0,-5.689061918E0,7.596944747E0
1.265079046E1,-4.010359633E0,-1.516985841E0,-4.034465364E0,5.887371332E0
1.266075546E1,-5.089109525E0,-6.871332085E-1,-1.216583383E-1,5.136729364E0
1.267072046E1,-6.793928398E0,-1.795061291E0,5.553038725E0,8.956335590E0
1.268068646E1,-8.598318338E0,-3.203490651E0,8.736543592E0,1.266967342E1
1.269065146E1,-1.155804383E1,-4.096501399E0,9.317817639E0,1.540102031E1
1.270061646E1,-1.349086903E1,-3.526391441E0,9.455134821E0,1.684750896E1
1.271058246E1,-1.107195427E1,-1.640736313E0,8.141052625E0,1.384040913E1
1.272054746E1,-8.048555521E0,-1.496518832E-1,5.946456935E0,1.000809631E1
1.273051246E1,-4.586986898E0,4.788951480E-1,2.974572450E0,5.487975093E0
1.274047846E1,-3.245156155E0,4.370004326E-1,1.686892480E0,3.683424234E0
1.275044346E1,-2.102587413E0,-1.628338462E-1,2.431151816E0,3.218367263E0
1.276040846E1,2.645461625E-1,-1.328197959E0,4.314034193E0,4.521613154E0
1.277037446E1,1.925588686E0,-2.312852118E0,4.512798595E0,5.424253669E0
1.278033946E1,2.836108922E0,-2.669065665E0,3.011644967E0,4.923152521E0
1.279030446E1,2.907849580E0,-2.033435317E0,1.094705189E0,3.713331095E0
1.280027046E1,1.899634066E0,-4.577644801E-1,-4.562482971E-1,2.006569314E0
1.281023546E1,1.277760462E0,4.720299321E-1,-4.941239288E-1,1.449014324E0
1.282020046E1,5.851536745E-1,1.490786222E0,2.645013436E0,3.092077693E0
1.283016646E1,4.746787208E-1,3.027445605E0,4.038995202E0,5.069933828E0
1.284013146E1,1.055266889E0,4.367554343E0,4.988883571E0,6.714021033E0
1.285009646E1,1.940032479E0,5.299137418E0,5.381291383E0,7.797620172E0
1.286006246E1,1.914912255E0,5.740735517E0,6.351166120E0,8.772698803E0
1.287002746E1,2.233471488E0,6.215705429E0,7.532605398E0,1.001816016E1
1.287999246E1,1.787311977E0,6.680250340E0,9.018613275E0,1.136466516E1
1.288995846E1,1.097553953E0,7.017765661E0,9.144068795E0,1.157875873E1
1.289992346E1,3.563293219E-3,7.494018452E0,9.491488130E0,1.209333172E1
1.290988846E1,-5.557959741E-1,8.271906880E0,9.713939602E0,1.277082516E1
1.291985446E1,-4.530446076E-1,9.067170308E0,9.340742233E0,1.302567819E1
1.292981946E1,-8.174992204E-3,9.445924287E0,8.718496746E0,1.285448319E1
1.293978446E1,5.610052586E-1,9.313757333E0,8.244380527E0,1.245112898E1
1.294975046E1,1.157339394E0,9.043114863E0,7.254693670E0,1.165109184E1
1.295971546E1,1.082371073E0,8.734721600E0,6.278758879E0,1.081155408E1
1.296968046E1,8.496706009E-1,8.082869906E0,5.598477437E0,9.869026075E0
1.297964646E1,8.956583673E-1,6.819219360E0,4.762795131E0,8.365893500E0
1.298961146E1,3.471655655E-1,5.065723001E0,1.732380017E0,5.364998973E0
1.299957646E1,-1.516549054E0,2.455240590E0,-2.381262495E0,3.741462075E0
1.300954246E1,-3.642540532E0,-9.385757607E-1,-8.857997278E0,9.623572194E0
1.301950746E1,-5.428097175E0,-5.769454116E0,-1.529194243E1,1.722191461E1
1.302947246E1,-5.602611419E0,-1.175683747E1,-1.832743673E1,2.248349214E1
1.303943846E1,-3.257829410E0,-1.702950805E1,-1.842763578E1,2.530208208E1
1.304940346E1,-8.806462258E-1,-1.957252295E1,-1.520464584E1,2.480000902E1
1.305936846E1,-1.710984762E0,-1.684975879E1,-1.022964063E1,1.978604022E1
1.306933446E1,-3.797600505E0,-9.865768404E0,-5.961984217E0,1.213673810E1
1.307929946E1,-2.395350484E0,-3.690207619E0,-3.112773439E0,5.389313007E0
1.308926446E1,-1.811303687E-1,2.022501608E0,-1.373967332E0,2.451755941E0
1.309923046E1,7.648520601E-1,6.695922047E0,3.562740657E-1,6.748874125E0
1.310919546E1,9.948166198E-1,9.912602262E0,3.107151926E0,1.043569532E1
1.311916046E1,1.144861436E-1,1.161824208E1,6.832543995E0,1.347888399E1
1.312912646E1,-4.798710483E-1,1.048600362E1,1.007861056E1,1.455214551E1
1.313909146E1,-2.583200473E0,5.827450309E0,1.294195581E1,1.442658387E1
1.314905646E1,-5.628832088E0,4.819813085E-1,1.474995466E1,1.579484786E1
1.315902246E1,-9.120557141E0,-3.500191237E0,8.281618520E0,1.280707252E1
1.316898746E1,-1.261766222E1,-6.977149732E0,-4.894959161E0,1.522651120E1
1.317895346E1,-1.218472268E1,-8.744815063E0,-3.666748882E0,1.543969898E1
1.318891846E1,-1.240208473E0,-2.191493742E0,-9.030169420E-1,2.675107750E0
1.319888346E1,3.598986377E0,2.164622862E0,3.215157015E0,5.289189892E0
1.320884946E1,5.601258958E0,3.813427749E0,5.035028043E0,8.442028222E0
1.321881446E1,5.100223913E0,4.575462620E0,6.721093726E0,9.597929101E0
1.322877946E1,3.962269793E0,4.556198968E0,7.699389038E0,9.784637066E0
1.323874546E1,2.902705784E0,3.581782115E0,8.070904748E0,9.294857043E0
1.324871046E1,1.832025050E0,2.103401930E0,7.885131691E0,8.363965402E0
1.325867546E1,9.041251355E-1,5.750602108E-1,7.004041661E0,7.085530050E0
1.326864146E1,4.007664067E-1,-7.170931721E-1,6.076309562E0,6.131588230E0
1.327860646E1,-1.669532096E-1,-2.309898105E0,5.142881105E0,5.640277359E0
1.328857146E1,-3.983240247E-1,-3.294425379E0,4.162161537E0,5.323108985E0
1.329853746E1,-3.592786574E-1,-3.188679653E0,3.102171267E0,4.463208001E0
1.330850246E1,-1.201292914E-1,-2.994800600E0,1.827602216E0,3.510468849E0
1.331846746E1,4.129075652E-1,-2.972321565E0,-2.638573970E-1,3.012442342E0
1.332843346E1,1.693325586E0,-2.086797007E0,-2.071767908E0,3.393272101E0
1.333839846E1,3.026710610E0,-7.649871308E-1,-2.529758091E0,4.018190940E0
1.334836346E1,3.315741404E0,-2.498649734E-1,-3.178944624E0,4.600245916E0
1.335832946E1,2.633037461E0,-5.294449121E-1,-3.640879338E0,4.524290060E0
1.336829446E1,1.894085058E0,-9.054162008E-1,-3.925297263E0,4.451437443E0
1.337825946E1,1.354100540E0,-1.006019300E0,-3.531697204E0,3.913891701E0
1.338822546E1,9.614939225E-1,-1.335737359E0,-2.128278178E0,2.690396413E0
1.339819046E1,9.942307287E-1,-1.044886912E0,-9.258241528E-1,1.713894327E0
1.340815546E1,9.917620343E-1,-3.782423472E-1,-6.076543450E-2,1.063179968E0
1.341812146E1,1.517062440E0,1.675022632E-1,5.585025041E-1,1.625257057E0
1.342808646E1,2.246230112E0,5.184597480E-1,9.874255930E-1,2.507859551E0
1.343805146E1,2.391635748E0,7.594106412E-1,9.396843928E-1,2.679483687E0
1.344801746E1,2.037366984E0,9.254891074E-1,1.614923488E-1,2.243540527E0
1.345798246E1,1.245241172E0,9.152178884E-1,-4.686835706E-2,1.546106724E0
1.346794746E1,6.248141688E-1,6.551085931E-1,-2.425477678E-1,9.372243242E-1
1.347791346E1,-2.634802151E-1,4.638128400E-1,-5.824920219E-1,7.898361412E-1
1.348787846E1,-1.126164964E0,2.508356112E-1,-8.071321070E-1,1.408058333E0
1.349784346E1,-1.278817053E0,1.698218536E-1,-1.122047939E0,1.709738020E0
1.350780946E1,-9.097144890E-1,2.348370445E-1,-1.211487535E0,1.533111521E0
1.351777446E1,-3.713712841E-1,-1.953005111E-1,-1.313207598E0,1.378612751E0
1.352773946E1,3.261167586E-2,-1.152494391E0,-1.610792284E0,1.980898439E0
1.353770546E1,2.963363045E-1,-2.131902428E0,-1.701739730E0,2.743855185E0
1.354767046E1,6.436843032E-1,-2.849529451E0,-2.444843071E0,3.809383837E0
1.355763546E1,9.172731847E-1,-3.544811924E0,-3.836745275E0,5.303555032E0
1.356760146E1,9.350019425E-1,-4.316408163E0,-3.332518235E0,5.532746682E0
1.357756671E1,1.374702619E0,-4.676579105E0,-6.201635858E0,7.887996370E0
1.358753171E1,1.229320958E0,-4.378251239E0,-6.122322471E0,7.626476668E0
1.359749771E1,1.685383898E0,-4.511809831E0,-5.598444693E0,7.385088342E0
1.360746271E1,2.087722036E0,-5.181467466E0,-4.676288206E0,7.285180834E0
1.361742871E1,2.695536010E0,-6.312390309E0,-4.729380632E0,8.335420023E0
1.362739371E1,2.850804144E0,-7.305046967E0,-4.949952224E0,9.273231502E0
1.363735871E1,2.687808330E0,-8.417974420E0,-5.462673515E0,1.038881172E1
1.364732471E1,2.673178012E0,-9.371602083E0,-6.248260971E0,1.157642309E1
1.365728971E1,2.501757529E0,-9.563047525E0,-6.499141606E0,1.183002580E1
1.366725471E1,2.473734164E0,-8.965140488E0,-7.445478376E0,1.191336447E1
1.367722071E1,1.411600889E0,-8.262622086E0,-7.934238362E0,1.154190969E1
1.368718571E1,-4.682362586E-1,-6.864736426E0,-8.399053414E0,1.085762173E1
1.369715071E1,-3.168603823E0,-4.464466095E0,-7.313549404E0,9.135617800E0
1.370711671E1,-4.622701106E0,-1.899858014E0,-6.069142045E0,7.862144183E0
1.371708171E1,-4.080505756E0,-2.933705968E-1,-3.846360437E0,5.615254414E0
1.372704671E1,-5.040709782E0,-2.300855970E-1,-5.206711650E-1,5.072750038E0
1.373701271E1,-6.894054950E0,-1.564031369E0,3.211655703E0,7.764594009E0
1.374697771E1,-9.051726642E0,-2.961726995E0,7.170318933E0,1.192136970E1
1.375694271E1,-1.115626059E1,-3.251969916E0,9.185493979E0,1.481252033E1
1.376690871E1,-1.138125443E1,-2.116203239E0,8.668152219E0,1.446195462E1
1.377687371E1,-8.375787343E0,-3.919879818E-1,7.451398097E0,1.121743294E1
1.378683871E1,-5.408938188E0,5.802618939E-1,5.717596915E0,7.892035901E0
1.379680471E1,-3.000054324E0,5.359739131E-1,3.273219867E0,4.472310619E0
1.380676971E1,-2.607959923E0,2.176497388E-1,1.929154611E0,3.251224981E0
1.381673471E1,-2.115062447E0,-2.091373622E-1,2.574001633E0,3.338070101E0
1.382670071E1,2.369063741E-1,-1.398889042E0,4.077996131E0,4.317761877E0
1.383666571E1,1.733670205E0,-2.449368231E0,4.611470944E0,5.501879804E0
1.384663071E1,1.612888949E0,-2.723340105E0,3.033907363E0,4.384356963E0
1.385659671E1,1.235017315E0,-2.145462121E0,1.113106377E0,2.714273621E0
1.386656171E1,1.243466542E0,-5.035955411E-1,-2.752070984E-1,1.369509568E0
1.387652671E1,1.289916823E0,9.038415456E-1,3.334249011E-1,1.609964942E0
1.388649271E1,1.128605007E0,1.759245341E0,2.578977906E0,3.319611494E0
1.389645771E1,1.968400245E0,2.861117463E0,3.038103033E0,4.614180610E0
1.390642271E1,2.322602350E0,3.814414174E0,4.113836347E0,6.071893169E0
1.391638871E1,2.070054674E0,4.305715944E0,5.368898794E0,7.186751033E0
1.392635371E1,2.112071012E0,4.546289107E0,6.441177573E0,8.162006930E0
1.393631871E1,2.177839324E0,4.933128031E0,7.384380235E0,9.143730516E0
1.394628471E1,1.465774757E0,5.314841870E0,8.168219959E0,9.854737796E0
1.395624971E1,6.207801747E-1,6.105611129E0,8.338523623E0,1.035349369E1
1.396621471E1,-2.898464799E-2,7.129981331E0,8.457475870E0,1.106193346E1
1.397618071E1,-5.159863758E-1,7.963927599E0,9.036648427E0,1.205617682E1
1.398614571E1,-2.423635805E-1,8.705046396E0,9.064113969E0,1.256959565E1
1.399611071E1,4.493287021E-1,9.097263004E0,8.270903497E0,1.230324897E1
1.400607671E1,7.505193651E-1,8.759507362E0,7.234455872E0,1.138549956E1
1.401604171E1,7.274947840E-1,8.172885452E0,5.998295426E0,1.016389951E1
1.402600771E1,8.507184219E-1,7.704324673E0,5.221136731E0,9.345619790E0
1.403597271E1,1.276874024E0,6.970840001E0,5.039711663E0,8.696074473E0
1.404593771E1,1.412207245E0,5.910412359E0,4.211029935E0,7.393245341E0
1.405590371E1,8.177091354E-1,4.713100230E0,2.358524135E0,5.333347738E0
1.406586871E1,1.023672044E-1,3.500751985E0,-9.789668646E-1,3.636498264E0
1.407583371E1,-6.589911443E-1,1.063442466E0,-5.401559587E0,5.544549141E0
1.408579971E1,-2.235113386E0,-2.576083242E0,-1.180900165E1,1.229164174E1
1.409576471E1,-3.843335672E0,-7.582314332E0,-1.827667237E1,2.015687160E1
1.410572971E1,-3.581119625E0,-1.417674275E1,-2.049204673E1,2.517396337E1
1.411569571E1,-2.631341769E0,-2.084913852E1,-1.556117514E1,2.614881849E1
1.412566071E1,-3.950073085E0,-2.186023204E1,-1.011502234E1,2.440873817E1
1.413562571E1,-5.619284170E0,-1.408207399E1,-6.649316815E0,1.655580190E1
1.414559171E1,-3.124810517E0,-5.619116939E0,-4.705626026E0,7.967548697E0
1.415555671E1,-8.678495944E-1,6.159082747E-1,-2.014233207E0,2.278078430E0
1.416552171E1,-1.511460807E0,4.921941138E0,1.683973696E0,5.417175071E0
1.417548771E1,-3.842091385E0,7.171797693E0,5.124745381E0,9.615579212E0
1.418545271E1,-5.887112959E0,8.232497231E0,8.706667829E0,1.335058704E1
1.419541771E1,-6.510946550E0,7.686199474E0,1.107323247E1,1.496952119E1
1.420538371E1,-5.038747457E0,3.948859788E0,1.114085435E1,1.284916749E1
1.421534871E1,-4.146305643E0,1.315573236E0,7.181834439E0,8.396506972E0
1.422531371E1,-4.406065859E0,1.346091024E0,-8.784564435E-3,4.607109134E0
1.423527971E1,-3.235728105E0,1.873612202E0,3.163650647E-2,3.739165672E0
1.424524471E1,2.828730905E-1,3.121261257E0,6.150392615E0,6.902870297E0
1.425520971E1,2.987961697E0,3.358564657E0,8.016288831E0,9.190688672E0
1.426517571E1,4.186132198E0,3.153265407E0,8.010341628E0,9.572479224E0
1.427514071E1,2.502848035E0,2.617502578E0,8.707758919E0,9.430834185E0
1.428510571E1,1.061247422E0,1.338803054E0,8.071683598E0,8.250497913E0
1.429507171E1,3.166395915E-1,-1.765467364E-1,7.487539737E0,7.496311139E0
1.430503671E1,-4.642513812E-2,-1.729378349E0,6.674453995E0,6.895015656E0
1.431500171E1,2.714634186E-1,-2.817484955E0,5.717126799E0,6.379455517E0
1.432496771E1,1.024566084E0,-3.263442737E0,4.901289357E0,5.976824535E0
1.433493271E1,1.333578567E0,-3.583413488E0,3.984450620E0,5.522239651E0
1.434489771E1,1.094130408E0,-3.720054731E0,2.653458277E0,4.698592277E0
1.435486371E1,1.189190347E0,-3.514660757E0,7.755220592E-1,3.790573622E0
1.436482871E1,1.782967495E0,-2.733986131E0,-1.158609994E0,3.463528601E0
1.437479471E1,2.444510365E0,-1.099977624E0,-2.621644746E0,3.749480347E0
1.438475971E1,2.220454416E0,2.677440047E-3,-3.684953896E0,4.302244786E0
1.439472471E1,1.224186518E0,-2.685626149E-3,-3.817709080E0,4.009182268E0
1.440469071E1,4.814726007E-1,-4.687566608E-1,-3.119485458E0,3.191040299E0
1.441465571E1,3.895684040E-1,-9.143466532E-1,-2.545409918E0,2.732563813E0
1.442462071E1,6.713159055E-1,-1.121794755E0,-1.479092960E0,1.974032548E0
1.443458671E1,9.924081516E-1,-7.436026937E-1,-5.869657997E-1,1.371986791E0
1.444455171E1,1.445941002E0,-3.954664904E-1,1.123149262E-1,1.503247740E0
1.445451671E1,1.968155832E0,-1.005077899E-2,5.540108192E-1,2.044667793E0
1.446448271E1,2.446342297E0,1.799071312E-1,8.982539463E-1,2.612243741E0
1.447444771E1,2.413951646E0,2.835420120E-1,1.283603584E0,2.748671822E0
1.448441271E1,2.252567325E0,3.554709506E-1,1.436395276E0,2.695116053E0
1.449437871E1,2.316237071E0,2.438078427E-1,1.060787830E0,2.559231770E0
1.450434371E1,1.898040699E0,4.229934275E-2,2.646416183E-1,1.916867997E0
1.451430871E1,1.294349012E0,5.380198538E-2,-3.455096340E-1,1.340750136E0
1.452427471E1,5.472169393E-1,1.881581372E-1,-7.067840923E-1,9.134514856E-1
1.453423971E1,-1.081033230E-2,4.520763087E-1,-1.090801004E0,1.180820343E0
1.454420471E1,-4.788495398E-1,5.227545279E-1,-1.047041611E0,1.264462460E0
1.455417071E1,-6.876588732E-1,4.114270502E-1,-9.718019789E-1,1.259581688E0
1.456413571E1,-5.220668954E-1,1.573947662E-1,-1.114858349E0,1.241062486E0
1.457410063E1,-1.309776306E-1,-2.807897276E-1,-1.229041461E0,1.267493954E0
1.458406663E1,2.856633818E-1,-1.205505833E0,-1.571759634E0,2.001318622E0
1.459403162E1,7.030814892E-1,-2.251030676E0,-1.580791974E0,2.839078363E0
1.460399662E1,8.514580947E-1,-2.846385988E0,-1.564796770E0,3.357898600E0
1.461396263E1,1.254483865E0,-3.144415646E0,-2.282885723E0,4.083215246E0
1.462392763E1,1.587454730E0,-3.339954139E0,-3.303257598E0,4.958509547E0
1.463389263E1,1.547897147E0,-3.869313097E0,-3.112123228E0,5.201238353E0
1.464385863E1,1.538073240E0,-4.472215995E0,-4.779857306E0,6.724092583E0
1.465382363E1,1.160333169E0,-4.808708637E0,-5.396634477E0,7.320772876E0
1.466378863E1,1.308913842E0,-5.219609438E0,-5.312023512E0,7.561426580E0
1.467375462E1,1.629692677E0,-5.687849790E0,-5.269176285E0,7.922862625E0
1.468371962E1,1.620694982E0,-6.638732770E0,-5.167587345E0,8.567577487E0
1.469368463E1,1.400903408E0,-7.592968544E0,-5.459770957E0,9.456468716E0
1.470365063E1,9.960410267E-1,-7.877093523E0,-6.149299185E0,1.004263813E1
1.471361562E1,7.975619692E-1,-7.674810852E0,-6.251142479E0,9.930539210E0
1.472358062E1,1.485271713E0,-7.111275503E0,-6.200413790E0,9.550989609E0
1.473354663E1,2.560809730E0,-6.117059392E0,-7.037214085E0,9.669464523E0
1.474351163E1,2.694649572E0,-5.481413257E0,-7.100100304E0,9.365812935E0
1.475347663E1,1.826924524E0,-5.032221379E0,-7.367391150E0,9.107104786E0
1.476344263E1,1.390543896E-1,-4.753435493E0,-6.776680866E0,8.278761301E0
1.477340763E1,-7.983969516E-1,-4.325868373E0,-5.878980651E0,7.342546450E0
1.478337263E1,-6.950205177E-1,-3.180344447E0,-4.602735204E0,5.637625003E0
1.479333862E1,-1.014997115E0,-1.798764333E0,-2.423625280E0,3.184294548E0
1.480330362E1,-3.174983720E0,-1.594261474E0,9.346283054E-1,3.673652316E0
1.481326863E1,-6.252941667E0,-2.682886729E0,4.949038889E0,8.413688051E0
1.482323463E1,-8.813673629E0,-4.131042071E0,8.027682130E0,1.261705321E1
1.483319962E1,-1.155876421E1,-4.925681017E0,1.012942404E1,1.613916339E1
1.484316563E1,-1.230620794E1,-3.505723287E0,1.093404886E1,1.683111030E1
1.485313063E1,-9.373730469E0,-7.381349623E-1,9.375874643E0,1.327850487E1
1.486309563E1,-5.013065316E0,8.294456667E-1,5.562556822E0,7.533979186E0
1.487306162E1,-3.060426825E0,5.941355824E-1,3.168395078E0,4.444990080E0
1.488302663E1,-2.781165560E0,3.434584308E-1,1.391250240E0,3.128645521E0
1.489299163E1,-5.204589111E-1,-8.442970097E-2,1.444116086E0,1.537360440E0
1.490295763E1,1.185315982E0,-1.086026752E0,3.064863985E0,3.460898630E0
1.491292262E1,3.005423237E0,-2.049051476E0,3.334483484E0,4.934567954E0
1.492288762E1,3.381604441E0,-2.687560993E0,2.887417654E0,5.195711058E0
1.493285363E1,2.983072255E0,-2.121338264E0,2.000690032E0,4.171517315E0
1.494281863E1,1.723417697E0,-9.559069079E-1,9.435078871E-1,2.184979109E0
1.495278362E1,5.572852600E-1,1.933311689E-1,1.244246268E0,1.376986775E0
1.496274963E1,3.751632035E-2,1.398327125E0,3.441134359E0,3.714583677E0
1.497271463E1,5.785200083E-1,2.799309470E0,4.934026748E0,5.702231042E0
1.498267963E1,9.858072299E-1,4.201272393E0,4.896344951E0,6.526614705E0
1.499264562E1,9.434511691E-1,5.056621810E0,5.053476008E0,7.210904521E0
1.500261063E1,1.408576124E0,5.389973329E0,5.415831470E0,7.769628672E0
1.501257563E1,1.611137123E0,5.522350783E0,6.383507654E0,8.593095540E0
1.502254163E1,1.269042848E0,5.820983289E0,7.446589932E0,9.536562159E0
1.503250662E1,7.530675817E-1,6.301253702E0,8.192301716E0,1.036275622E1
1.504247162E1,2.028358179E-1,6.982097645E0,8.416858771E0,1.093774846E1
1.505243763E1,-3.994332415E-1,7.732573156E0,7.919020983E0,1.107533872E1
1.506240263E1,-6.214368170E-1,8.406752443E0,7.641143754E0,1.137746669E1
1.507236762E1,-3.266815996E-1,8.507016989E0,6.814699463E0,1.090486991E1
1.508233363E1,-2.885261786E-1,7.981221324E0,5.750438386E0,9.841274451E0
1.509229863E1,-2.888857824E-1,7.209712209E0,4.322731049E0,8.411266781E0
1.510226363E1,-2.097361171E-1,6.210179810E0,3.499410633E0,7.131353118E0
1.511222962E1,-2.595432848E-1,5.187705275E0,2.917336980E0,5.957390687E0
1.512219463E1,-3.851233506E-1,3.966344717E0,1.863482778E0,4.399179295E0
1.513215963E1,-9.989435846E-1,2.434415147E0,1.782564622E-1,2.637430712E0
1.514212563E1,-1.489775239E0,9.404538864E-1,-1.867929878E0,2.567692700E0
1.515209062E1,-1.699763371E0,-7.143923432E-1,-4.141115946E0,4.533033556E0
1.516205562E1,-1.682889476E0,-2.217513852E0,-6.541805230E0,7.109479611E0
1.517202163E1,-1.247589998E0,-3.955146130E0,-8.670201083E0,9.611037849E0
1.518198663E1,-1.489787518E0,-5.641115919E0,-1.011499077E1,1.167710126E1
1.519195162E1,-1.298297637E0,-7.041902382E0,-1.100634968E1,1.313063971E1
1.520191763E1,-1.424666492E0,-8.160369487E0,-1.052326675E1,1.339255196E1
1.521188263E1,-1.303597553E0,-8.312623381E0,-8.556359303E0,1.200043160E1
1.522184862E1,-1.780037456E0,-6.996039162E0,-5.279289629E0,8.943377230E0
1.523181362E1,-1.892482336E0,-4.589816950E0,-3.161618739E0,5.885893482E0
1.524177863E1,-1.162612998E0,-2.032590394E0,-2.019094874E0,3.091898576E0
1.525174463E1,-2.680737877E-1,7.671348131E-1,-7.207416885E-1,1.086198858E0
1.526170963E1,3.957541734E-1,3.436869984E0,3.727730079E-1,3.479605778E0
1.527167462E1,2.185250670E-1,5.132158481E0,2.053295385E0,5.531982087E0
1.528164063E1,-1.416252934E0,5.264794382E0,4.923139232E0,7.345824131E0
1.529160563E1,-3.880666051E0,3.998327817E0,8.176592002E0,9.894586960E0
1.530157063E1,-5.699287528E0,2.193539098E0,9.511929996E0,1.130355273E1
1.531153662E1,-7.809412002E0,6.567575079E-1,7.040400817E0,1.053496511E1
1.532150163E1,-9.846053932E0,-1.080901083E0,2.289873438E-1,9.907853470E0
1.533146663E1,-9.060294567E0,-3.409730718E0,-5.953377700E0,1.136476604E1
1.534143262E1,-3.215827691E0,-3.091373799E0,-2.387199465E0,5.059334046E0
1.535139762E1,1.888956465E0,-3.888971436E-1,4.718933412E0,5.097816205E0
1.536136263E1,5.191564438E0,7.975444275E-1,6.265745316E0,8.176061569E0
1.537132863E1,7.690711185E0,1.758662959E0,5.832844366E0,9.811320367E0
1.538129363E1,7.477959659E0,1.950691368E0,7.357000648E0,1.067007666E1
1.539125862E1,5.848866906E0,1.532769231E0,6.573664370E0,8.931499809E0
1.540122463E1,3.648012357E0,2.580054671E-1,6.806097039E0,7.726416885E0
1.541118963E1,2.003563061E0,-1.465265465E0,6.376332536E0,6.842432640E0
1.542115463E1,6.219788539E-1,-3.031854991E0,5.765137117E0,6.543378971E0
1.543112062E1,-3.025273365E-1,-4.096387963E0,4.846081116E0,6.352670251E0
1.544108563E1,-4.905515724E-1,-4.447253062E0,3.673135504E0,5.788836245E0
1.545105063E1,-3.000674129E-2,-4.101817102E0,2.463596846E0,4.784883840E0
1.546101662E1,8.932867366E-1,-2.740916251E0,1.353502954E0,3.184737562E0
1.547098162E1,1.929677060E0,-1.038618697E0,5.982051989E-2,2.192250179E0
1.548094663E1,2.047589672E0,3.927475351E-1,-1.374838859E0,2.497409854E0
1.549091263E1,9.599572742E-1,1.525020500E0,-2.023581589E0,2.709628746E0
1.550087763E1,-2.794004291E-1,2.051957542E0,-1.463884937E0,2.536050761E0
1.551084262E1,-6.240581238E-1,1.687017610E0,-2.425682696E-1,1.815025158E0
1.552080863E1,-4.789647299E-1,4.442679369E-1,5.375747345E-2,6.554930040E-1
1.553077363E1,7.291360974E-2,-3.531589615E-1,3.716490269E-1,5.178422982E-1
1.554073962E1,7.124820578E-1,-8.539753211E-1,8.551873758E-1,1.402943327E0
1.555070462E1,1.087355824E0,-7.882298130E-1,8.458506149E-1,1.587171128E0
1.556066963E1,1.294078871E0,-3.472047418E-1,5.989957881E-1,1.467646828E0
1.557063563E1,1.377945485E0,5.494219244E-2,6.283226444E-1,1.515434509E0
1.558060033E1,1.553350845E0,3.472737390E-1,9.318673964E-1,1.844417182E0
1.559056533E1,1.696895896E0,6.986878914E-1,-1.241369730E0,2.215540399E0
1.560053133E1,8.588337725E-1,6.122134191E-1,-2.444027969E0,2.661892829E0
1.561049633E1,9.436178148E-2,1.929008138E-1,-1.874395144E0,1.886656308E0
1.562046133E1,-2.042724788E-2,-2.659144109E-1,-1.146231000E0,1.176848865E0
1.563042733E1,5.508217478E-1,-4.962327272E-1,-6.579164261E-1,9.912141752E-1
1.564039233E1,1.336817924E0,-7.054314852E-1,-1.720671844E-1,1.521289867E0
1.565035733E1,1.941894817E0,-4.246587145E-1,-1.849927470E-2,1.987871406E0
1.566032333E1,2.301341874E0,-2.440002161E-1,-3.427243128E-2,2.314494572E0
1.567028833E1,2.175709183E0,-5.828995728E-1,-2.726726228E-1,2.268883585E0
1.568025333E1,1.713624780E0,-1.362638644E0,-4.503601509E-1,2.235199818E0
1.569021933E1,1.303449034E0,-2.194424366E0,-6.699688531E-1,2.638813360E0
1.570018433E1,1.096526597E0,-2.911823933E0,-1.243123456E0,3.350588772E0
1.571014933E1,9.104149854E-1,-3.454912153E0,-1.599837086E0,3.914684168E0
1.572011533E1,1.090168920E0,-3.796098356E0,-1.836249079E0,4.355530011E0
1.573008033E1,1.461955356E0,-3.849872274E0,-1.984988796E0,4.571543559E0
1.574004533E1,1.797038235E0,-3.828950937E0,-2.332752532E0,4.830315318E0
1.575001133E1,1.618141503E0,-3.875715798E0,-2.966326414E0,5.141852513E0
1.575997633E1,9.297558206E-1,-3.791744519E0,-3.891523746E0,5.512325230E0
1.576994133E1,-6.948421776E-2,-3.528850195E0,-5.116407251E0,6.215724810E0
1.577990733E1,-8.597207952E-1,-3.596033533E0,-5.251142303E0,6.422232673E0
1.578987233E1,-6.932324392E-1,-3.910399143E0,-4.341407641E0,5.883843384E0
1.579983733E1,3.224376905E-1,-4.310481425E0,-4.034038517E0,5.912502257E0
1.580980333E1,1.576204103E0,-5.092597974E0,-4.788514109E0,7.165810552E0
1.581976833E1,2.173006015E0,-5.863690183E0,-6.128591271E0,8.755823700E0
1.582973333E1,2.002753222E0,-7.221392607E0,-7.149868881E0,1.035761346E1
1.583969933E1,1.703750002E0,-8.887823925E0,-7.321670017E0,1.164057688E1
1.584966433E1,1.734543194E0,-9.543196228E0,-7.090807325E0,1.201502321E1
1.585962933E1,1.763181102E0,-8.924056197E0,-6.983174703E0,1.146788191E1
1.586959533E1,2.105645506E0,-7.272780277E0,-6.439208815E0,9.939340326E0
1.587956033E1,2.235832009E0,-5.686962183E0,-5.025428669E0,7.911726546E0
1.588952633E1,2.579274067E0,-4.707441879E0,-3.318306577E0,6.310611880E0
1.589949133E1,2.265413073E0,-4.422585998E0,-8.335171560E-1,5.038463471E0
1.590945633E1,5.960025984E-1,-4.532979090E0,1.376247454E0,4.774638791E0
1.591942233E1,-2.875303978E0,-4.736027747E0,3.528939657E0,6.568922810E0
1.592938733E1,-6.600509521E0,-5.510031284E0,6.789430135E0,1.095552519E1
1.593935233E1,-9.187905956E0,-6.241642508E0,1.012022637E1,1.502646661E1
1.594931833E1,-9.523315694E0,-5.327269542E0,1.144519608E1,1.581347071E1
1.595928333E1,-7.245222350E0,-2.014920108E0,9.436795029E0,1.206674150E1
1.596924833E1,-3.903357925E0,1.136614523E0,5.806162936E0,7.087991514E0
1.597921433E1,-1.477989006E0,8.773320240E-1,4.384379998E0,4.709241016E0
1.598917933E1,6.682250673E-1,-7.225199729E-1,4.510800309E0,4.616912310E0
1.599914433E1,3.385603936E0,-2.554190682E0,5.142529687E0,6.665719439E0
1.600911033E1,4.024894057E0,-4.144196552E0,4.540968141E0,7.348096957E0
1.601907533E1,3.855227154E0,-4.961600463E0,3.086274150E0,7.000381682E0
1.602904033E1,3.069934983E0,-4.302922145E0,1.315256609E0,5.446975282E0
1.603900633E1,2.059470629E0,-2.896438739E0,5.118199423E-1,3.590645665E0
1.604897133E1,1.296340574E0,-2.322049204E0,1.752340364E0,3.184824664E0
1.605893633E1,6.028058338E-1,-1.354046745E0,5.121044093E0,5.331220317E0
1.606890233E1,1.202917855E0,2.516916436E-1,6.354890796E0,6.472634477E0
1.607886733E1,1.637244941E0,1.551753386E0,6.893965487E0,7.253638377E0
1.608883233E1,1.854674824E0,2.458117420E0,7.043822023E0,7.687495603E0
1.609879833E1,2.425717413E0,3.317870375E0,6.742224979E0,7.896199495E0
1.610876333E1,2.111740644E0,3.852806407E0,6.749083763E0,8.053179335E0
1.611872833E1,2.253668940E0,3.921055693E0,7.192264702E0,8.496021009E0
1.612869433E1,1.278360386E0,3.983691067E0,8.461922677E0,9.439710546E0
1.613865933E1,5.290350223E-1,4.177697005E0,8.863706499E0,9.813170906E0
1.614862533E1,-2.947750980E-1,4.801504868E0,8.469585453E0,9.740391117E0
1.615859033E1,-1.245357531E0,5.514356470E0,7.310313554E0,9.241197266E0
1.616855533E1,-1.328649364E0,5.721602842E0,6.589406828E0,8.827362605E0
1.617852133E1,-1.305863934E0,5.732007378E0,6.003830985E0,8.402807607E0
1.618848633E1,-1.202567022E0,5.845475521E0,5.459313705E0,8.088254301E0
1.619845133E1,-1.233111123E0,6.059556704E0,4.810152607E0,7.834306517E0
1.620841733E1,-1.608077860E0,6.204741899E0,4.183449203E0,7.654148135E0
1.621838233E1,-1.749028502E0,6.259123344E0,3.732160222E0,7.494314222E0
1.622834733E1,-1.602706023E0,6.180831465E0,3.058194651E0,7.079823354E0
1.623831333E1,-1.596794488E0,5.837045590E0,2.029391090E0,6.382733118E0
1.624827833E1,-1.478764932E0,4.952510966E0,6.626553020E-1,5.210875420E0
1.625824333E1,-1.408062739E0,3.524371812E0,-7.992263791E-1,3.878479103E0
1.626820933E1,-1.717430148E0,1.805634812E0,-2.137811771E0,3.283309695E0
1.627817433E1,-1.442802216E0,-4.640163231E-1,-3.389922982E0,3.713296003E0
1.628813933E1,-9.763464350E-1,-3.002100264E0,-4.436488045E0,5.445023832E0
1.629810533E1,-4.359075880E-1,-5.384967527E0,-5.907032669E0,8.005056255E0
1.630807033E1,1.566042227E-1,-7.661039490E0,-7.960390034E0,1.104915655E1
1.631803533E1,5.736551249E-1,-9.833943179E0,-8.971213406E0,1.332359518E1
1.632800133E1,6.482644272E-1,-1.124609020E1,-8.154190149E0,1.390631542E1
1.633796633E1,6.626000458E-1,-1.110509395E1,-6.622022012E0,1.294655653E1
1.634793133E1,3.229072219E-1,-8.245166978E0,-5.359435076E0,9.839237363E0
1.635789733E1,4.448889112E-1,-4.451485861E0,-4.050921768E0,6.035198396E0
1.636786233E1,7.359136051E-1,-8.619129163E-1,-2.930811596E0,3.142311143E0
1.637782833E1,1.219584759E0,1.308384669E0,-3.936323650E-1,1.831448570E0
1.638779333E1,1.340006411E-1,1.603369682E0,3.993477552E0,4.305416759E0
1.639775833E1,-2.600467300E0,3.601990092E-1,8.058446671E0,8.475301543E0
1.640772433E1,-5.094392484E0,-1.321136861E0,9.358378605E0,1.073673542E1
1.641768933E1,-7.105934656E0,-1.965484824E0,4.424445412E0,8.598439110E0
1.642765433E1,-9.637762077E0,-1.833712556E0,-2.169248010E0,1.004761646E1
1.643762033E1,-9.151056218E0,-5.513181764E-1,-4.606786155E0,1.026003218E1
1.644758533E1,-2.394692087E0,2.953860151E0,-1.062974835E0,3.948386440E0
1.645755033E1,1.681328854E0,5.970037002E0,5.473047645E0,8.271786932E0
1.646751633E1,5.129816086E0,7.156527690E0,7.726055850E0,1.171421532E1
1.647748133E1,6.170504113E0,6.817835909E0,7.906160617E0,1.212705171E1
1.648744633E1,5.143921909E0,5.430974590E0,8.851097564E0,1.158867316E1
1.649741233E1,3.795111930E0,2.930104083E0,8.947327530E0,1.015101248E1
