"Time (s)","Linear Acceleration x (m/s^2)","Linear Acceleration y (m/s^2)","Linear Acceleration z (m/s^2)","Absolute acceleration (m/s^2)"
1.376458327E-3,2.183347401E-1,-3.646762222E-2,1.472659854E0,1.489203475E0
1.138045837E-2,5.599996836E-1,1.272950542E-1,8.590700001E-1,1.033346477E0
2.138445829E-2,4.739736197E-1,2.433836272E-1,2.692888391E-1,5.969950260E-1
3.138845833E-2,3.471134522E-1,1.339015308E-1,-3.451582164E-1,5.074953822E-1
4.139245837E-2,1.174178644E-1,-8.023008451E-2,-9.015623009E-1,9.127093753E-1
5.139745830E-2,-3.664528987E-1,-2.482704377E-1,-1.301107809E0,1.374338920E0
6.140145834E-2,-6.288860236E-1,-2.576886941E-1,-1.220748940E0,1.397186125E0
7.140545826E-2,-5.131180242E-1,-1.059280126E-1,-7.768505466E-1,9.370206093E-1
8.140945830E-2,-2.643698689E-1,6.160655648E-2,-4.838816535E-1,5.548227195E-1
9.141445835E-2,6.024357051E-2,1.528599581E-1,-3.901841158E-1,4.233663883E-1
1.014184583E-1,3.438712442E-1,6.347108737E-2,-3.667829740E-1,5.067600631E-1
1.114224583E-1,7.017788757E-1,1.766054278E-1,-5.357341772E-1,9.003855709E-1
1.214264584E-1,5.394885282E-1,1.108211088E-1,-6.318103623E-1,8.381607985E-1
1.314304583E-1,3.941860963E-1,7.696200259E-2,-2.807102054E-1,4.900041304E-1
1.414354583E-1,3.696830468E-1,8.116395794E-2,1.480403906E-1,4.064100151E-1
1.514394584E-1,1.687503514E-1,9.048266552E-2,4.168158442E-1,4.586929712E-1
1.614434583E-1,8.319403812E-2,1.351841541E-1,6.544092661E-1,6.733850986E-1
1.714474583E-1,2.876362324E-1,2.111868479E-1,9.497626537E-1,1.014585425E0
1.814524584E-1,4.831418346E-1,2.293625157E-1,9.993862188E-1,1.133492836E0
1.914564583E-1,4.399532765E-1,2.334819157E-1,7.749718362E-1,9.212242058E-1
2.014604583E-1,2.790303004E-1,1.686142940E-1,5.911137414E-1,6.750586226E-1
2.114644584E-1,1.858938029E-1,8.292422567E-2,5.741492146E-1,6.091635690E-1
2.214684583E-1,1.684457114E-1,-5.771368129E-2,7.596199715E-1,7.802097973E-1
2.314734583E-1,1.597377455E-1,-1.797154887E-1,8.957449061E-1,9.274549806E-1
2.414774583E-1,9.369870722E-2,-2.559418019E-1,8.490110350E-1,8.916868235E-1
2.514814583E-1,1.688718273E-1,-2.287907311E-1,6.591688997E-1,7.178903335E-1
2.614854584E-1,4.641142640E-1,-5.616564922E-2,4.463244027E-1,6.463451884E-1
2.714904583E-1,1.058461516E0,1.295068732E-1,4.234547728E-1,1.147356420E0
2.814944583E-1,1.683657508E0,1.588521116E-1,1.466183478E-1,1.697478582E0
2.914984584E-1,1.688561275E0,-3.588713989E-2,-3.090797263E-1,1.716990781E0
3.015024583E-1,1.548856675E0,-4.191094876E-1,-6.641659302E-1,1.736584621E0
3.115074583E-1,1.748671529E0,-7.970862982E-1,-1.166860415E0,2.248279767E0
3.215114584E-1,1.568269431E0,-8.578293671E-1,-1.850028627E0,2.572536910E0
3.315154583E-1,1.379762946E0,-6.487461647E-1,-1.072608562E0,1.864163753E0
3.415194583E-1,5.188533387E-1,-5.165640807E-1,1.769507790E-1,7.532322449E-1
3.515234584E-1,-1.131270533E0,-3.150685908E-1,-3.474590957E-2,1.174839783E0
3.615284583E-1,-2.635878331E0,-7.936498895E-3,-1.738160866E-1,2.641614960E0
3.715324583E-1,-4.146555904E0,4.385595196E-1,-6.934265667E-1,4.226949339E0
3.815364583E-1,-4.920137272E0,1.282513956E0,-1.270875365E0,5.240965275E0
3.915404583E-1,-3.369776401E0,1.642024455E0,-1.490464625E0,4.033995798E0
4.015454584E-1,-1.755875006E-1,1.482379680E0,-4.793364374E0,5.020420551E0
4.115494583E-1,2.796403696E0,1.487855598E0,-2.764648345E0,4.204386802E0
4.215534583E-1,3.154006542E0,9.039254531E-1,1.000408897E0,3.430110268E0
4.315574584E-1,1.491168338E0,2.724232391E-2,2.965789640E-1,1.520619689E0
4.415624583E-1,2.100875348E-1,-1.900841369E-1,5.245829523E-2,2.881329973E-1
4.515664583E-1,-4.388309035E-1,6.447359249E-2,-9.889074236E-1,1.083820695E0
4.615704584E-1,-5.862459344E-1,2.355477735E-1,-8.555564082E-1,1.063552451E0
4.715744583E-1,-6.161257911E-1,3.088144089E-1,-8.743283093E-1,1.113295703E0
4.815784583E-1,-8.549377728E-1,3.751113094E-1,-4.736156970E-1,1.046871013E0
4.915834583E-1,-1.315916760E0,3.603633159E-1,6.270296788E-1,1.501554147E0
5.015874583E-1,-1.673404707E0,2.996323800E-1,3.418691576E-1,1.734052306E0
5.115914583E-1,-1.573648869E0,2.900077169E-1,1.296912432E-1,1.605395608E0
5.215954583E-1,-1.418926865E0,4.849158798E-1,-5.821639931E-1,1.608543371E0
5.316004583E-1,-1.102198396E0,8.403334746E-1,-1.398024239E0,1.968622215E0
5.416044584E-1,-7.131638432E-1,1.266063984E0,-1.629740624E0,2.183477772E0
5.516084583E-1,1.455318182E0,1.556992199E0,-1.029104692E0,2.366692245E0
5.616124583E-1,5.398171125E0,1.629513168E0,-2.130908402E0,6.027962780E0
5.716174584E-1,2.909536502E0,-8.293135196E-2,-1.473885430E0,3.262609159E0
5.816214583E-1,2.198703943E0,-2.067122295E0,3.040002501E-1,3.033102334E0
5.916254583E-1,3.391652296E0,-3.159441821E0,1.051805338E0,4.753069786E0
6.016294584E-1,4.140785871E0,-4.704195505E0,1.056863179E0,6.355511211E0
6.116334583E-1,4.082304359E0,-6.653427408E0,5.595001853E-1,7.826004447E0
6.216384583E-1,3.692085160E0,-7.691077221E0,3.811507523E-1,8.539873392E0
6.316424584E-1,3.418158894E0,-7.016751169E0,1.242248567E0,7.903277086E0
6.416464583E-1,4.769843949E0,-6.706511940E0,1.087407280E0,8.301275100E0
6.516504583E-1,4.889073354E0,-6.589798007E0,-7.493698025E-1,8.239540711E0
6.616554583E-1,4.592594962E0,-6.032419192E0,-1.528235300E0,7.734178232E0
6.716594583E-1,4.453201434E0,-5.823809248E0,-1.479841404E0,7.479150203E0
6.816634584E-1,3.980173967E0,-6.079271761E0,-1.099682924E0,7.349056571E0
6.916674583E-1,2.978931842E0,-5.996321990E0,-2.295733809E-1,6.699448953E0
7.016724583E-1,1.214050369E0,-5.372503018E0,9.385570496E-1,5.587360406E0
7.116764584E-1,-8.768934828E-1,-4.477693666E0,2.071468531E0,5.010954462E0
7.216804583E-1,-2.360387058E0,-3.378524420E0,2.825428398E0,4.996889027E0
7.316844583E-1,-3.596786655E0,-2.086445589E0,2.865901655E0,5.050101160E0
7.416884584E-1,-5.054556574E0,-1.006716873E0,2.837682407E0,5.883405686E0
7.516934583E-1,-6.079316200E0,-1.107959658E-1,2.653247193E0,6.634009487E0
7.616974583E-1,-6.360450913E0,6.993825406E-1,2.220450908E0,6.773099290E0
7.717014584E-1,-6.725338220E0,9.123112375E-1,1.891527486E0,7.045591685E0
7.817054583E-1,-7.185065610E0,9.248982462E-1,9.268596947E-1,7.303401501E0
7.917104583E-1,-6.973376523E0,7.566083631E-1,1.192374741E0,7.114927538E0
8.017144583E-1,-7.930588530E0,1.343872005E0,-1.062069540E0,8.113459071E0
8.117187499E-1,-8.634376947E0,1.634809283E0,-3.509774238E0,9.462747057E0
8.217227500E-1,-8.083654017E0,1.492956416E0,-4.404283628E0,9.325883090E0
8.317277500E-1,-7.250346850E0,1.098118209E0,-6.270280416E0,9.648306045E0
8.417317499E-1,-5.343349970E0,2.540147424E-2,-4.963565712E0,7.293080194E0
8.517357500E-1,-4.866910653E0,-1.919088922E0,-1.109764109E0,5.348018134E0
8.617397500E-1,-4.633713752E0,-2.281243824E0,4.471634781E-1,5.184142330E0
8.717447500E-1,-3.462110075E0,-1.555734755E0,5.043059778E-1,3.828947809E0
8.817487500E-1,-2.923432410E0,-1.086530782E0,3.614953369E-1,3.139695061E0
8.917527500E-1,-2.062048666E0,-4.935102636E-1,-3.572894347E-1,2.150175068E0
9.017567500E-1,-1.907832447E0,-9.459917843E-1,-1.064241781E0,2.380616657E0
9.117607500E-1,-1.685200295E0,-1.532241812E0,-1.194556337E0,2.571892270E0
9.217657500E-1,-1.184614901E0,-3.447851640E-1,-2.033101441E0,2.378169620E0
9.317697500E-1,-1.065851519E0,7.761757779E-1,-2.660669648E0,2.969453026E0
9.417737500E-1,-1.049595090E0,2.343109120E0,-3.975677458E0,4.732633670E0
9.517777500E-1,-1.735859695E0,3.220859805E0,-4.055727010E0,5.462240231E0
9.617827500E-1,-2.678907114E0,3.034472204E0,-2.926269479E0,4.994759048E0
9.717867500E-1,-1.724174911E0,2.506220709E0,-5.883041543E-1,3.098390412E0
9.817907499E-1,9.917532635E-1,3.499439870E0,1.108217520E0,3.802341385E0
9.917947500E-1,2.884169234E0,4.691929216E0,-1.346665805E0,5.669756672E0
1.001799750E0,2.561238623E0,4.357900590E0,-2.474430567E-1,5.060876298E0
1.011803750E0,3.879860597E0,5.908628374E0,1.438367688E0,7.213467205E0
1.021807750E0,2.126201978E0,8.282510220E0,-6.740246866E0,1.088814209E1
1.031811750E0,3.023180062E0,8.062325714E0,-5.584369276E0,1.026284044E1
1.041815750E0,4.051414104E0,7.746131680E0,-6.474402037E0,1.087816133E1
1.051820750E0,4.177858388E0,6.848991628E0,-5.818764271E0,9.910661162E0
1.061824750E0,4.243561211E0,5.662881010E0,-5.416619675E0,8.911554398E0
1.071828750E0,3.941135324E0,4.648989603E0,-3.934059316E0,7.254135005E0
1.081832750E0,2.317916391E0,3.820480075E0,-1.641744958E0,4.760685971E0
1.091837750E0,6.546089485E-1,3.038310317E0,-8.306729972E-2,3.109138568E0
1.101841750E0,6.041083011E-1,1.599111739E0,1.616862717E0,2.352945014E0
1.111845750E0,6.067778474E-1,2.889313906E-1,2.397601662E0,2.490010930E0
1.121849750E0,6.946477577E-1,-9.093753505E-1,6.313837495E0,6.416700316E0
1.131854750E0,1.038326921E0,-2.485218680E0,9.974499718E0,1.033175103E1
1.141858750E0,1.481448219E0,-5.307929876E0,1.299611740E1,1.411622740E1
1.151862750E0,2.044316400E0,-7.618931935E0,1.348629651E1,1.562394146E1
1.161866750E0,-1.147988527E0,-7.406100887E0,4.908158666E0,8.958695748E0
1.171871750E0,-3.419384471E0,-4.810955138E0,3.985579133E-1,5.915769426E0
1.181875750E0,-4.086319934E0,-2.764860014E0,-2.162467579E0,5.386903334E0
1.191879750E0,-4.956195881E0,-3.550908816E0,-2.856340288E0,6.732867953E0
1.201883750E0,-5.067891734E0,-4.845136791E0,-2.306044790E0,7.380834622E0
1.211887750E0,-4.450753790E0,-5.307303640E0,-1.865139002E0,7.173243668E0
1.221892750E0,-3.115190385E0,-4.757671216E0,-1.771306393E0,5.956288515E0
1.231896750E0,-2.031060762E0,-4.332667515E0,-1.723444009E0,5.086007754E0
1.241900750E0,-1.486182417E0,-4.208673214E0,-9.726024628E-1,4.568109451E0
1.251904750E0,-7.686869565E-1,-3.897591401E0,5.678780758E-1,4.013051691E0
1.261909750E0,-5.650680502E-1,-2.950659385E0,1.119284545E0,3.206008515E0
1.271913750E0,-6.815135957E-1,-1.154290071E0,-8.793382037E-1,1.603147537E0
1.281917750E0,-9.441811940E-1,-2.995253760E-1,-1.757163148E0,2.017130612E0
1.291921750E0,-8.330074981E-1,-2.052741069E-1,-4.181098330E-1,9.543871244E-1
1.301926750E0,-3.344433399E-1,8.369920832E-1,-2.516115367E-2,9.016879607E-1
1.311930750E0,5.049428858E-1,1.751743948E-1,2.197470181E0,2.261532353E0
1.321934750E0,1.295855986E0,-5.728090328E-1,3.830127397E0,4.083776291E0
1.331938750E0,2.203015534E0,1.551618900E0,2.689722124E0,3.807282989E0
1.341942750E0,9.816539526E-1,4.296655684E0,-1.081070652E0,4.538018103E0
1.351947750E0,2.766797197E-1,6.146403059E0,-3.723937867E0,7.191838115E0
1.361951750E0,-1.113925280E-1,5.891911184E0,-3.592494214E0,6.901669390E0
1.371955750E0,9.818425253E-2,5.354183691E0,-1.540118011E0,5.572152783E0
1.381959750E0,8.603710055E-2,5.458731907E0,-1.469231631E0,5.653653509E0
1.391964750E0,1.024030186E-1,5.683553841E0,-3.137986633E0,6.493091001E0
1.401968750E0,6.833423124E-1,5.860460765E0,-3.774376534E0,7.004132731E0
1.411972750E0,7.927552655E-1,5.526116390E0,-2.905330015E0,6.293438310E0
1.421976750E0,4.604235014E-1,4.600921397E0,-1.454009575E0,4.847124028E0
1.431981750E0,5.294697627E-1,4.000731608E0,-3.685546803E-1,4.052409676E0
1.441985750E0,1.094573042E0,3.456876817E0,3.103514957E-1,3.639286403E0
1.451989750E0,9.899157760E-1,1.843990792E0,4.895090139E-1,2.149384647E0
1.461993750E0,1.619614124E0,3.147445089E-1,6.540227652E-1,1.774812608E0
1.471998750E0,2.207717280E0,-4.813632578E-1,1.315901265E0,2.614827396E0
1.482002750E0,2.715438763E0,-3.929903115E0,1.721576409E0,5.077555662E0
1.492006750E0,2.286938720E0,-4.924420942E0,-3.689242244E-2,5.429675071E0
1.502010750E0,1.231879407E0,-3.820931481E0,-2.205168625E0,4.580372574E0
1.512014750E0,-8.945514894E-1,-3.461684983E0,-2.664271533E0,4.458904360E0
1.522019750E0,-1.569461386E0,-3.254201213E0,-2.106759401E0,4.182280449E0
1.532023750E0,-8.503254890E-1,-2.862074068E0,-1.570942778E0,3.373778685E0
1.542027750E0,-3.431325947E-1,-1.943722072E0,-1.576023424E0,2.525795974E0
1.552031750E0,6.525691473E-1,-7.955031645E-1,-2.343312603E0,2.559254918E0
1.562036750E0,1.330112922E0,-1.492338073E-1,-1.653165740E0,2.127070304E0
1.572040750E0,1.614360693E0,5.434273589E-1,-6.478375804E-1,1.822407000E0
1.582044750E0,1.966630001E0,9.431617320E-2,1.080132759E0,2.245710551E0
1.592048750E0,2.867535659E0,2.027726680E-1,6.840657592E-1,2.954965901E0
1.602053750E0,2.123682705E0,8.233055055E-2,4.397980914E0,4.884571903E0
1.612057750E0,4.454215926E-1,-1.428011100E0,3.872771725E0,4.151623409E0
1.622061750E0,9.604256362E-2,-9.057863295E-2,2.769895636E0,2.773039938E0
1.632065750E0,-1.663273821E0,1.220394598E0,1.254762778E0,2.414595703E0
1.642069750E0,-2.167991151E0,2.060065291E0,-8.691915303E-1,3.114409824E0
1.652074750E0,-1.110336843E0,2.260413119E0,-2.801684024E0,3.767193749E0
1.662078750E0,-8.645429939E-2,1.846826692E0,-3.941274195E0,4.353376328E0
1.672082750E0,1.247639553E0,1.157953352E0,-3.667198241E0,4.042994355E0
1.682086750E0,2.317591579E0,-1.432357335E-1,-2.025878960E0,3.081547138E0
1.692091750E0,2.289159493E0,-2.276822160E0,-5.774037749E-1,3.279872779E0
1.702095750E0,2.112599600E0,-4.290614340E0,7.631937897E-1,4.843027281E0
1.712099750E0,1.025847501E0,-5.652392274E0,3.313585535E0,6.631873839E0
1.722103750E0,-4.953553525E-1,-5.983984950E0,3.913659550E0,7.167299623E0
1.732108750E0,-1.550343037E0,-4.873552505E0,2.819572411E0,5.839954292E0
1.742112750E0,-6.789558774E-1,-3.219904954E0,4.240938735E-1,3.317924745E0
1.752116750E0,1.794541766E0,-1.808040941E0,-1.493927346E0,2.953169672E0
1.762120750E0,1.684349526E0,-1.598878435E0,-1.671633586E0,2.861433980E0
1.772125750E0,5.899510810E0,-1.118019208E0,-3.895355426E0,7.157373027E0
1.782129750E0,1.007117875E1,-1.234954165E0,-5.215980071E0,1.140877738E1
1.792133750E0,8.678131077E0,-1.556025361E0,-1.837705328E0,9.006016588E0
1.802137750E0,5.292783834E0,-1.643918953E0,1.132702151E0,5.656769785E0
1.812141375E0,2.913249191E0,-1.222311316E0,2.256265689E0,3.882241706E0
1.822146375E0,1.161815584E0,-3.049083227E-1,1.498106644E0,1.920184380E0
1.832150375E0,1.852341639E-1,1.794132169E0,2.489317578E0,3.074072859E0
1.842154375E0,-1.944378422E0,3.567038360E0,1.239261809E0,4.247368590E0
1.852158375E0,-4.192336094E0,5.018047144E0,1.340117508E0,6.674757973E0
1.862163375E0,-5.886348728E0,5.723687375E0,7.670006195E-1,8.246089283E0
1.872167375E0,-7.847145254E0,5.548693074E0,-1.522467021E0,9.730549280E0
1.882171375E0,-1.016650240E1,4.576126864E0,1.465885270E0,1.124488896E1
1.892175375E0,-1.236119749E1,3.709215163E0,8.527459440E-1,1.293385697E1
1.902180375E0,-1.318438021E1,3.229604316E0,9.493913555E-1,1.360733513E1
1.912184375E0,-1.233999432E1,2.251669192E0,1.445878729E0,1.262679846E1
1.922188375E0,-9.812715447E0,9.238121259E-1,5.670945489E-1,9.872406470E0
1.932192375E0,-7.663240966E0,-7.998716193E-1,-1.892137497E0,7.933803692E0
1.942197375E0,-7.220185742E0,-2.970115410E0,-4.097688968E0,8.817240077E0
1.952201375E0,-6.107731914E0,-3.645246039E0,-3.245544995E0,7.818297138E0
1.962205375E0,-2.578781439E0,-4.550105585E0,-3.946302801E0,6.551860830E0
1.972209375E0,1.193361312E0,-5.331285410E0,-5.290591713E0,7.605069100E0
1.982214375E0,5.941911310E0,-6.020187401E0,-6.287331482E0,1.053942615E1
1.992218375E0,6.700408031E0,-5.208506745E0,-4.765658512E0,9.733216907E0
2.002222375E0,2.407307747E0,-4.839854416E0,-1.823716156E0,5.704845483E0
2.012226375E0,-9.590045435E-1,-5.240393951E0,4.165117890E-1,5.343678559E0
2.022230375E0,-1.939195157E0,-1.140228102E0,-8.637974739E-1,2.409718668E0
2.032235375E0,-2.372034419E0,9.777333945E-1,2.528838178E-1,2.578072943E0
2.042239375E0,-4.686803547E0,2.014716625E-1,-1.294333810E-1,4.692917143E0
2.052243375E0,-6.298474520E0,-2.974674484E0,3.061356533E-1,6.972315871E0
2.062247375E0,-6.770552400E0,-6.488397932E0,-1.441344506E0,9.487737428E0
2.072252375E0,-4.801020426E0,-7.056777699E0,-2.284486690E0,8.835541187E0
2.082256375E0,6.693920253E-1,-9.721680146E0,1.194521838E0,9.817638870E0
2.092260375E0,3.742942780E0,-9.563029398E0,6.822643490E0,1.232921798E1
2.102264375E0,2.482354129E0,-5.298752087E0,7.012397332E0,9.133048343E0
2.112269375E0,2.016567152E1,4.212210195E0,1.402820125E-1,2.060137621E1
2.122273375E0,2.157656957E1,8.874179447E0,3.740276157E0,2.362814172E1
2.132277375E0,9.085738142E0,4.226700765E0,1.447418886E0,1.012475473E1
2.142281375E0,5.805013373E0,4.128626586E0,1.155968222E-1,7.124401756E0
2.152286375E0,2.405420266E0,5.866774004E0,-6.641665149E-1,6.375437321E0
2.162290375E0,1.069355609E0,7.352819889E0,-3.634270231E0,8.271360338E0
2.172294375E0,-1.362384729E0,8.993660867E0,-4.898735586E0,1.033148771E1
2.182298375E0,-2.925687096E0,1.032812880E1,-5.114179462E0,1.189053073E1
2.192302375E0,-2.188571303E0,9.259449563E0,-8.903660524E-1,9.556149971E0
2.202307375E0,-6.516586628E-1,5.645353981E0,1.283275555E0,5.825931405E0
2.212311375E0,-2.129334477E-1,1.246708238E0,-1.130581951E0,1.696419061E0
2.222315375E0,-1.367961657E0,6.620468992E-1,-1.749295135E0,2.317252394E0
2.232319375E0,-1.412009025E-1,-1.248971111E-1,-1.503838962E0,1.515608329E0
2.242324375E0,2.265470229E0,-3.530117871E0,-8.886072099E-1,4.287622922E0
2.252328375E0,2.034071348E0,-3.836486828E0,-1.778493206E0,4.692453038E0
2.262332375E0,-1.330202969E0,-4.015039160E0,1.577421493E0,4.514226175E0
2.272336375E0,-1.868444725E0,-4.116822812E0,2.420206997E0,5.128032534E0
2.282341375E0,-3.363877437E0,-4.651746565E0,1.776515093E0,6.009194904E0
2.292345375E0,-3.172908251E0,-4.351538234E0,6.473329657E-1,5.424230060E0
2.302349375E0,-2.583758297E0,-3.091203060E0,-3.155408996E-1,4.041151984E0
2.312353375E0,-2.614794733E0,-2.141586587E0,-6.101262555E-1,3.434501223E0
2.322358375E0,-2.357362293E0,-2.603863363E0,-6.564601770E-1,3.573262005E0
2.332362375E0,-1.622843249E0,-3.086136448E0,-9.556285805E-1,3.615395465E0
2.342366375E0,-9.312462759E-1,-2.474595459E0,-6.174332285E-1,2.715154895E0
2.352370375E0,-4.299709100E-1,-8.498512799E-1,-6.220788413E-1,1.137587037E0
2.362375375E0,5.316703624E-1,2.025612912E0,-6.436521435E-1,2.190906005E0
2.372379375E0,1.162196968E0,4.563144876E0,-7.944863337E-1,4.775374486E0
2.382383375E0,2.329406755E0,4.936345754E0,-1.217576825E0,5.592507358E0
2.392387375E0,1.937082558E0,3.294209032E0,-7.721230727E-1,3.898753137E0
2.402391375E0,2.440829396E0,2.366485704E0,-9.444106972E-1,3.528429437E0
2.412396375E0,3.908640300E0,2.406221627E0,-7.571629715E-1,4.651953061E0
2.422400375E0,3.023187371E0,3.376343116E0,4.419360673E-1,4.553532936E0
2.432404375E0,2.349789418E0,3.632815443E0,1.510785162E0,4.582720825E0
2.442408375E0,1.856839610E0,2.896446340E0,2.184979651E0,4.075707400E0
2.452413375E0,8.273871544E-1,6.579971176E-1,2.578888151E0,2.787147970E0
2.462417375E0,-5.185492104E-1,-1.917191500E0,2.788927739E0,3.423833300E0
2.472421375E0,-1.430092416E0,-2.847489942E0,2.014508172E0,3.769828440E0
2.482425375E0,-1.476354417E0,-2.307205462E0,5.621758711E-1,2.796222652E0
2.492430375E0,-9.803397909E-1,-1.764107886E0,-1.209101871E0,2.352672963E0
2.502434375E0,-3.011786762E-1,-1.621710643E0,-2.475422840E0,2.974621361E0
2.512438375E0,5.423453316E-1,-9.253142756E-1,-2.845981361E0,3.041373846E0
2.522442375E0,1.772623186E0,4.340259540E-1,-2.730487742E0,3.284225144E0
2.532447375E0,2.672646500E0,1.975981745E0,-2.188784727E0,3.979738905E0
2.542451375E0,3.614717141E0,2.865926213E0,-1.648697005E0,4.898766670E0
2.552455375E0,4.585939077E0,2.718102754E0,8.465037489E-1,5.397729930E0
2.562459375E0,3.830252527E0,1.716289356E0,5.420278863E0,6.855356047E0
2.572464375E0,4.442875836E0,8.076852536E-1,1.500443484E0,4.758448467E0
2.582468375E0,2.395434099E0,1.257417998E0,-1.091471094E0,2.917278474E0
2.592472375E0,3.171070763E0,1.702124476E-2,-8.643590990E-1,3.286806377E0
2.602476375E0,2.989700074E0,-3.036776007E0,-2.770278921E0,5.082790607E0
2.612480375E0,-5.550322912E-1,-6.688421239E0,2.318295291E-1,6.715413945E0
2.622485375E0,-6.011179765E0,-8.558139780E0,6.724281043E0,1.243350289E1
2.632489375E0,-7.172424515E0,-4.366341630E0,2.347518213E0,8.718913603E0
2.642493375E0,-6.119262623E0,2.669160390E-1,-2.801264487E0,6.735258120E0
2.652497375E0,-5.612665706E0,1.302781282E0,-3.555474614E0,6.770572733E0
2.662502375E0,-5.421033738E0,2.228175080E-1,-2.271392435E0,5.881877084E0
2.672506375E0,-2.825106801E0,7.022389054E-2,-2.156515698E0,3.554816421E0
2.682510375E0,-1.503376739E0,1.310794306E0,-1.339028172E0,2.402357130E0
2.692514375E0,-6.817305274E-1,1.890182042E0,-7.976406142E-1,2.161891582E0
2.702519375E0,3.801236158E-1,1.851181698E0,-3.762282738E-1,1.926892668E0
2.712523375E0,1.449642582E0,2.174291233E0,-1.965442139E-1,2.620617410E0
2.722527375E0,1.614504827E0,1.610652974E0,2.632913500E-2,2.280684560E0
2.732531375E0,1.381195660E0,1.075247995E0,-4.897765240E-1,1.817619527E0
2.742536375E0,-1.934010614E-1,-2.065645874E-2,-4.094372427E-1,4.532874536E-1
2.752540375E0,-3.617740664E-1,-1.036532410E0,1.390973666E-1,1.106629111E0
2.762544375E0,2.689309895E-2,-1.064354632E0,-1.280964151E-1,1.072372469E0
2.772548375E0,-3.209916741E-1,-4.351696694E-1,1.499371689E0,1.593902054E0
2.782553375E0,-2.713082481E-1,1.333895486E0,6.287796043E-1,1.499416261E0
2.792557375E0,-5.572206482E-2,2.914686145E0,-7.339392927E-1,3.006188144E0
2.802561375E0,9.751139881E-1,2.925949636E0,-1.394056903E0,3.384586121E0
2.812566250E0,1.427713476E0,4.038005853E0,-1.835792119E0,4.659827223E0
2.822570250E0,1.664899640E0,4.899252187E0,-2.046591698E0,5.564449693E0
2.832575250E0,1.919594121E0,4.714740958E0,-2.734100736E0,5.778315562E0
2.842579250E0,4.486455280E-1,3.968653198E0,2.223403752E-2,3.993993661E0
2.852583250E0,-1.708683591E0,2.252025288E0,1.543948961E0,3.221024046E0
2.862587250E0,-2.702443326E0,-4.256632662E-1,2.377099423E0,3.624222788E0
2.872592250E0,-2.827053924E0,-1.609950723E0,2.661918029E0,4.203567867E0
2.882596250E0,-2.057005882E0,-2.371358773E0,2.403545356E0,3.953687634E0
2.892600250E0,-9.674600559E-1,-4.193481563E0,1.535305168E0,4.569291908E0
2.902604250E0,-7.341011144E-1,-6.005528432E0,1.095485354E0,6.148606700E0
2.912609250E0,-9.406854361E-1,-6.238663936E0,1.192614038E0,6.420914658E0
2.922613250E0,-7.981458136E-1,-5.287667520E0,3.751269507E-1,5.360707488E0
2.932617250E0,5.326923095E-3,-3.663710377E0,-1.673554981E-1,3.667534589E0
2.942621250E0,1.279955506E0,-2.442376131E0,-6.102393991E-1,2.824159944E0
2.952626250E0,1.574322030E0,-1.010784781E0,-4.897774011E-1,1.933922861E0
2.962630250E0,1.545039466E0,-2.234940308E-1,3.501154858E-1,1.599899181E0
2.972634250E0,9.396973298E-1,1.041470969E-1,7.921861122E-1,1.233465251E0
2.982638250E0,4.499595436E-1,8.906537354E-2,7.985157231E-1,9.208819640E-1
2.992643250E0,-1.487867877E-1,-1.957665342E-1,9.424852822E-1,9.740331366E-1
3.002647250E0,-8.555078763E-1,-5.486150086E-1,1.241134672E0,1.604146947E0
3.012651250E0,-1.260949863E0,-3.900355965E-1,8.879534912E-1,1.590780854E0
3.022655250E0,-1.027541951E0,-6.828203022E-2,3.251612870E-1,1.079923497E0
3.032659250E0,-7.643215714E-1,3.765782297E-2,2.737876868E-1,8.127516679E-1
3.042664250E0,-6.761715064E-1,1.939270002E-1,8.023085196E-2,7.079919329E-1
3.052668250E0,-7.326335364E-1,6.963185996E-1,-1.713772130E-1,1.025173956E0
3.062672250E0,-7.028228961E-1,8.498366618E-1,-1.960425228E-1,1.120095998E0
3.072676250E0,-8.246661526E-1,9.983617866E-1,-3.591137294E-1,1.343786884E0
3.082681250E0,-7.190372982E-1,9.780275095E-1,-5.822944226E-1,1.346335486E0
3.092685250E0,-6.636996878E-1,7.469970024E-1,-5.568028647E-1,1.143910498E0
3.102689250E0,-1.006012941E0,6.478978068E-1,-3.783511055E-1,1.254983333E0
3.112693250E0,-1.486128330E0,9.782953119E-1,-3.028577042E-1,1.804816312E0
3.122698250E0,-2.054391153E0,1.751137007E0,1.425217885E-1,2.703204818E0
3.132702250E0,-1.886837727E0,2.756302029E0,6.878606021E-1,3.410353309E0
3.142706250E0,-1.113823977E0,3.080680411E0,7.919340241E-1,3.370215890E0
3.152710250E0,-1.081075330E0,1.973015453E0,6.748213112E-1,2.348807708E0
3.162715250E0,-5.294978294E-1,2.498359128E0,4.797757387E-2,2.554303844E0
3.172719250E0,5.385621831E-1,4.521508607E0,-2.748670828E-1,4.561758567E0
3.182723250E0,1.518779767E0,6.104414788E0,3.028296375E-1,6.297799432E0
3.192727250E0,1.725430162E0,5.741868707E0,1.231659844E0,6.120714947E0
3.202732250E0,1.025019535E0,3.273016968E0,2.263680543E0,4.109447009E0
3.212736250E0,-1.244082838E-2,5.478665650E-2,3.023402256E0,3.023924197E0
3.222740250E0,1.756345707E-1,-9.734596646E-1,3.441254811E0,3.580601332E0
3.232744250E0,2.111507048E0,-9.623201340E-1,2.833965333E0,3.662769657E0
3.242749250E0,1.692328051E0,-1.449269237E0,1.721427305E0,2.815611394E0
3.252753250E0,1.204291366E0,-1.435011386E0,5.162437264E-1,1.943214594E0
3.262757250E0,8.146975270E-1,-1.074084983E0,7.025553860E-2,1.349935722E0
3.272761250E0,4.106386994E-1,-3.456663394E-1,5.732493281E-2,5.398106219E-1
3.282766250E0,-1.202834094E0,-1.348667307E0,-1.028437525E0,2.079278025E0
3.292770250E0,-4.338381414E0,-6.854855216E0,-1.789389492E0,8.307376727E0
3.302774250E0,-5.968588647E0,-1.262461573E1,-4.636549652E-1,1.397211325E1
3.312778250E0,-6.149683932E0,-1.203554383E1,-5.130838180E-1,1.352539030E1
3.322783250E0,-1.553052637E0,-4.423118094E0,-1.604423935E0,4.954808001E0
3.332787250E0,2.460051679E0,3.944157457E-1,-2.100805181E0,3.258956958E0
3.342791250E0,4.186166697E0,1.934114512E0,-2.264560549E0,5.137414236E0
3.352795250E0,3.673813196E0,1.364113896E0,-2.170198182E0,4.479673009E0
3.362799250E0,2.661980594E0,-2.254602156E0,-1.916312079E0,3.980153709E0
3.372804250E0,2.622293787E0,-4.674328512E0,-2.418040604E0,5.879854769E0
3.382808250E0,3.874749838E0,-3.201640007E0,-3.219926004E0,5.969263649E0
3.392812250E0,4.228609881E0,-2.061234149E0,-3.615495991E0,5.933096915E0
3.402816250E0,3.405544111E0,-2.870178893E0,-3.701775166E0,5.791269028E0
3.412821250E0,2.449842587E0,-3.518013550E0,-4.141717333E0,5.960869945E0
3.422825250E0,1.337678927E0,-2.961115960E0,-4.273788393E0,5.368692566E0
3.432829250E0,8.090137410E-1,-5.533892602E-1,-3.042439620E0,3.196432660E0
3.442833250E0,8.276344916E-1,2.218144181E0,2.432916798E-2,2.367643210E0
3.452838250E0,4.044194546E-1,3.495951421E0,2.059335558E0,4.077510806E0
3.462842250E0,-3.164644673E-1,4.164860612E0,3.867598693E0,5.692497987E0
3.472846250E0,-3.500423956E-1,4.131095281E0,5.300198103E0,6.729084472E0
3.482850250E0,-9.135036309E-1,2.285442125E0,4.468977807E0,5.101911135E0
3.492855250E0,-1.451367072E0,1.241213025E0,3.301802226E0,3.814311745E0
3.502859250E0,-1.255136999E0,2.699829036E-1,2.613128861E0,2.911477649E0
3.512863250E0,-9.830178156E-2,3.731681335E-1,2.645134181E0,2.673135337E0
3.522867250E0,1.178233396E0,2.419375523E0,1.623119237E0,3.142630732E0
3.532871250E0,1.100327433E0,2.009167618E-1,1.243962386E0,1.672880875E0
3.542876250E0,1.363961284E0,-1.471931291E0,2.014531853E0,2.843468076E0
3.552880250E0,3.586932050E-1,-2.730632168E0,6.552518499E-1,2.830965885E0
3.562884250E0,7.744388625E-2,-2.005139471E0,-3.648487151E-1,2.039533387E0
3.572888250E0,4.531057110E-1,-1.875527750E0,-2.769966205E-1,1.949265568E0
3.582893250E0,-3.962818846E-2,-2.302390280E0,-6.204106307E-1,2.384843966E0
3.592897250E0,-2.011190754E-1,-2.021021093E0,-7.640141541E-1,2.169952250E0
3.602901250E0,-2.393402776E-1,-1.455172586E0,-8.474329446E-1,1.700868490E0
3.612905250E0,-4.633126107E-1,-1.247916273E0,-1.390988284E0,1.925305692E0
3.622910250E0,-2.835276863E-1,-7.117476475E-1,-2.125735955E0,2.259585363E0
3.632914250E0,8.747639269E-2,-2.687497258E-2,-3.304293140E0,3.305560095E0
3.642918250E0,4.243521743E-1,5.512754917E-1,-4.614341927E0,4.666490207E0
3.652922250E0,5.170084691E-1,1.050732958E0,-5.564454244E0,5.686342281E0
3.662927250E0,6.729244745E-1,1.222682614E0,-4.835504673E0,5.032880444E0
3.672931250E0,8.287549643E-1,1.315879045E0,-3.788047324E0,4.094835160E0
3.682935250E0,1.140448688E0,1.744500418E0,-2.991615622E0,3.646048402E0
3.692939250E0,1.657388599E0,2.636963282E0,-2.914440269E0,4.265498142E0
3.702944250E0,2.165896094E0,3.818663346E0,-3.301856605E0,5.493227892E0
3.712948250E0,2.175584638E0,4.904418202E0,-3.465871004E0,6.387389783E0
3.722952250E0,1.739152847E0,5.892402350E0,-3.436145514E0,7.039329093E0
3.732956250E0,6.212181312E-1,6.547481707E0,-3.162905127E0,7.297903638E0
3.742960250E0,-5.509371572E-1,7.174623653E0,-3.067926756E0,7.822463224E0
3.752965250E0,-1.961492199E0,8.030718005E0,-3.490553856E0,8.973508207E0
3.762969250E0,-2.794734316E0,8.764451768E0,-3.511220840E0,9.846564196E0
3.772973250E0,-3.047854727E0,8.815087486E0,-2.303506513E0,9.607358018E0
3.782977250E0,-3.124390102E0,7.875714165E0,-5.361043060E-1,8.489764128E0
3.792982250E0,-3.780079324E0,6.058959119E0,1.568533140E0,7.311653815E0
3.802986250E0,-1.851270576E0,4.138846934E0,4.285116788E0,6.238548115E0
3.812989583E0,-1.620030738E0,2.996145460E0,6.368701919E0,7.222309281E0
3.822993583E0,-1.199214668E0,3.124227549E0,9.987486384E0,1.053322353E1
3.832998583E0,3.196219638E-1,3.627504417E0,1.098857882E1,1.157626067E1
3.843002583E0,8.866451036E-1,3.601994770E0,9.828418729E0,1.050515686E1
3.853006583E0,2.906089276E0,2.665455594E0,7.330263669E0,8.323627446E0
3.863010583E0,4.243350711E0,7.186695814E-1,4.474550788E0,6.208390772E0
3.873015583E0,3.884156839E0,-1.897292840E0,2.480377770E0,4.983840723E0
3.883019583E0,2.162560111E0,-4.498334337E0,1.832528203E0,5.316938749E0
3.893023583E0,-5.605344115E-1,-6.462491258E0,2.574890994E0,6.979115684E0
3.903027583E0,-3.134017543E0,-8.451840323E0,3.632792639E0,9.718685774E0
3.913032583E0,-4.925176402E0,-1.149953425E1,4.105658138E0,1.316636166E1
3.923036583E0,-5.812358646E0,-1.538334610E1,3.773357949E0,1.687213918E1
3.933040583E0,-6.505389941E0,-1.958294502E1,3.054003367E0,2.085998012E1
3.943044583E0,-6.872802075E0,-2.365830465E1,2.237270424E0,2.473774780E1
3.953049583E0,-6.990049274E0,-2.629077727E1,1.525430975E0,2.724688418E1
3.963053583E0,-7.614615521E0,-2.743684791E1,6.205492097E-1,2.848066140E1
3.973057583E0,-7.015420343E0,-2.642759743E1,-7.098519802E-2,2.734298937E1
3.983061583E0,-4.960129303E0,-2.439600574E1,3.647656846E-1,2.489781181E1
3.993065583E0,-3.735877882E0,-2.266483230E1,1.638989165E0,2.302906191E1
4.003070583E0,-3.006040703E0,-2.129759658E1,2.963339657E0,2.171186962E1
4.013074583E0,-1.893575765E0,-1.975226402E1,4.159671208E0,2.027413198E1
4.023078583E0,-9.225004493E-1,-1.758726693E1,5.138260050E0,1.834569927E1
4.033082583E0,6.301336733E-1,-1.503343586E1,5.181176859E0,1.591370025E1
4.043087583E0,2.387891775E0,-1.180010453E1,4.909156201E0,1.300170406E1
4.053091583E0,2.827839789E0,-8.666481670E0,3.642791378E0,9.817052074E0
4.063095583E0,3.730077444E0,-4.944182777E0,3.217654946E0,6.979378512E0
4.073099583E0,5.273201509E0,-3.775798577E-1,3.531462731E0,6.357707898E0
4.083104583E0,7.745271555E0,4.855631958E0,2.879263127E0,9.584182246E0
4.093108583E0,8.654493708E0,7.943267632E0,-4.594146375E-1,1.175613984E1
4.103112583E0,6.466621732E0,9.278645972E0,-1.351544137E0,1.139022121E1
4.113116583E0,3.376708275E0,1.017353309E1,-8.762280697E-1,1.075503184E1
4.123121583E0,1.465357851E0,1.115194769E1,-4.522488016E-1,1.125689743E1
4.133125583E0,-8.193060100E-2,1.215308924E1,-1.044037312E0,1.219812709E1
4.143129583E0,-1.877709784E0,1.379345776E1,-1.661945334E0,1.401953399E1
4.153133583E0,-2.950231076E0,1.539915698E1,-1.544359728E0,1.575509270E1
4.163138583E0,-2.937429475E0,1.705038846E1,-2.333981032E0,1.745828474E1
4.173142583E0,-1.767656561E0,1.595668431E1,-4.741143476E0,1.673973791E1
4.183146583E0,4.166518298E-1,1.367974813E1,-4.599116362E0,1.443817783E1
4.193150583E0,1.183239343E0,1.686546792E1,-2.639832510E0,1.711177312E1
4.203154583E0,-2.404821657E-1,1.645236448E1,-2.485885847E0,1.664084604E1
4.213159583E0,-2.375173643E0,1.324228869E1,-2.654844652E0,1.371305435E1
4.223163583E0,-3.880023442E0,1.160082206E1,-2.439456031E0,1.247335561E1
4.233167583E0,-4.510282538E0,1.072313862E1,-1.992627014E0,1.180249604E1
4.243171583E0,-3.733958241E0,1.017436457E1,-1.097625874E0,1.089334297E1
4.253176583E0,-1.977172238E0,9.880515082E0,-4.231505714E-1,1.008527862E1
4.263180583E0,-1.208521169E0,9.174180202E0,-1.106619184E-1,9.254099192E0
4.273184583E0,-9.574655563E-1,8.383769962E0,6.733068824E-3,8.438269041E0
4.283188583E0,-8.284206498E-1,7.883293911E0,9.080097333E-2,7.927221990E0
4.293193583E0,-4.430452842E-1,7.654160240E0,2.599841648E-1,7.671378616E0
4.303197583E0,-5.262262026E-2,7.792712354E0,2.034059215E-1,7.795544172E0
4.313201583E0,9.013069969E-2,8.081665379E0,-9.607033789E-2,8.082738914E0
4.323205583E0,2.389850044E-1,8.273294424E0,-5.535436998E-1,8.295235083E0
4.333210583E0,4.376142441E-1,8.309900333E0,-9.963434739E-1,8.380850201E0
4.343214583E0,6.627745121E-1,8.545679364E0,-1.323532466E0,8.672925921E0
4.353218583E0,1.150437048E0,9.642888331E0,-1.377074250E0,9.808421598E0
4.363222583E0,1.302971317E0,1.061920202E1,-1.281469350E0,1.077531204E1
4.373227583E0,6.633144294E-1,1.104700186E1,-1.087226601E0,1.112017526E1
4.383231583E0,-3.023033516E-1,1.112405764E1,-6.309198314E-1,1.114603541E1
4.393235583E0,-9.585111847E-1,1.101881828E1,-1.799088854E-1,1.106189257E1
4.403239583E0,-1.582119146E0,1.086306483E1,1.202024547E-1,1.097832989E1
4.413243583E0,-2.077316770E0,1.062517086E1,2.550490417E-1,1.082933750E1
4.423248583E0,-2.397073950E0,1.046776498E1,2.520283701E-1,1.074167518E1
4.433252583E0,-2.680206365E0,1.039018880E1,1.787037011E-1,1.073179689E1
4.443256583E0,-2.958829992E0,1.044994969E1,2.513712162E-1,1.086366931E1
4.453260583E0,-3.081828512E0,1.027481973E1,-1.436391183E-1,1.072801098E1
4.463265583E0,-3.074959203E0,1.006692432E1,-6.229225945E-1,1.054449486E1
4.473269583E0,-2.311594674E0,1.029804721E1,-5.634236670E-1,1.056932791E1
4.483273583E0,-9.076901829E-1,1.040510154E1,-5.427099786E-1,1.045870803E1
4.493277583E0,3.103329674E-1,1.008784098E1,-8.630040067E-1,1.012944313E1
4.503282583E0,8.816215414E-1,9.698619897E0,-1.354871203E0,9.832403594E0
4.513286583E0,1.124292612E0,9.107206194E0,-1.941198560E0,9.379418446E0
4.523290583E0,8.710152038E-1,8.043505281E0,-1.945078041E0,8.321056019E0
4.533294583E0,5.824866132E-1,7.136180549E0,-1.128335596E0,7.248275981E0
4.543299583E0,9.696797320E-1,6.335132470E0,3.215902828E-1,6.416977676E0
4.553303583E0,7.561253246E0,-3.916391369E0,1.993287603E0,8.745505559E0
4.563307583E0,2.802450010E1,-5.242815166E1,8.292307230E0,6.002371241E1
4.573311583E0,3.253120180E1,-1.028767261E2,2.132123570E1,1.099840668E2
4.583316583E0,1.599820305E1,-1.077033267E2,2.084621492E1,1.108625895E2
4.593320583E0,-4.975185299E0,-6.279656075E1,1.058338666E1,6.387619732E1
4.603324583E0,-3.471334643E0,-2.574217044E1,4.579577598E0,2.637578500E1
4.613328583E0,-7.399514583E0,-1.987781075E1,2.792829001E0,2.139345859E1
4.623332583E0,-1.542006779E1,-2.273214311E1,5.803194889E-1,2.747481741E1
4.633337583E0,-1.824647384E1,-2.754363210E1,-4.826285368E0,3.338979645E1
4.643341583E0,-1.229047308E1,-2.541317335E1,-8.706030482E0,2.954115900E1
4.653345583E0,-1.618123669E0,-1.861050628E1,-8.225251946E0,2.041137031E1
4.663349583E0,4.384968813E0,-1.392102998E1,-1.066437410E1,1.807628009E1
4.673354583E0,1.345592841E0,-1.297576909E1,-9.408170570E0,1.608399444E1
4.683358583E0,-1.542622958E0,-9.843778195E0,-1.959873397E0,1.015483917E1
4.693362583E0,-5.761246233E-1,-4.528622330E0,2.889966456E0,5.402984907E0
4.703366583E0,1.545590274E0,5.241444111E-1,3.916139354E0,4.242608172E0
4.713371583E0,3.554336454E0,5.100249056E0,2.922574623E0,6.869300582E0
4.723375583E0,3.759653830E0,7.794050782E0,1.948423233E0,8.870094566E0
4.733379583E0,1.980838589E0,9.408955266E0,6.409739725E-1,9.636545457E0
4.743383583E0,2.285152542E-1,1.029982710E1,-1.366615774E0,1.039260777E1
4.753388583E0,-7.972267775E-1,1.119600529E1,-2.839645318E0,1.157798300E1
4.763392583E0,-2.388769881E0,1.318555199E1,-3.336590821E0,1.380933891E1
4.773396583E0,-3.065418301E0,1.492691479E1,-3.212611722E0,1.557338912E1
4.783400583E0,-2.942060469E0,1.646185100E1,-2.222438230E0,1.686972109E1
4.793404583E0,-2.639729599E0,1.511199788E1,-1.615206639E0,1.542561327E1
4.803409583E0,-2.124758739E0,1.188553001E1,5.896531069E-1,1.208834621E1
4.813413458E0,-1.867916283E0,1.662834228E1,2.618101333E0,1.693650887E1
4.823417458E0,-5.473898415E0,1.272894643E1,2.208378162E0,1.403091498E1
4.833421458E0,-6.295602368E0,1.253309745E1,1.670082319E0,1.412452887E1
4.843426458E0,-6.292087607E0,1.258443132E1,1.771851938E0,1.418089339E1
4.853430458E0,-5.634334903E0,1.197838847E1,1.861499110E0,1.336759885E1
4.863434458E0,-4.158030480E0,1.166624071E1,1.248285817E0,1.244783544E1
4.873438458E0,-2.759998055E0,1.137999728E1,9.001624775E-1,1.174445486E1
4.883443458E0,-1.923143089E0,1.162963714E1,6.556243175E-1,1.180579445E1
4.893447458E0,-1.218328338E0,1.190977490E1,4.572961181E-1,1.198065866E1
4.903451458E0,-4.562399648E-1,1.139147069E1,3.280820078E-1,1.140532320E1
4.913455458E0,-9.681527317E-2,9.955364120E0,5.106806123E-1,9.968923846E0
4.923460458E0,-1.536650466E-1,9.415874861E0,8.553973639E-1,9.455898529E0
4.933464458E0,-1.592074031E-1,9.301853571E0,1.049519076E0,9.362228215E0
4.943468458E0,1.325419801E-1,9.619463800E0,9.328232700E-1,9.665495871E0
4.953472458E0,4.745621420E-1,1.015845663E1,7.294284582E-1,1.019566164E1
4.963477458E0,6.347284153E-1,1.059782577E1,3.958419182E-1,1.062419324E1
4.973481458E0,5.543407483E-1,1.117372740E1,2.068949916E-1,1.118938261E1
4.983485458E0,4.991870329E-2,1.160734404E1,4.039712290E-1,1.161447891E1
4.993489458E0,-6.993692382E-1,1.176925695E1,7.805799007E-1,1.181582970E1
5.003493458E0,-1.349274394E0,1.175647728E1,1.053556579E0,1.188045794E1
5.013498458E0,-1.842675753E0,1.146461468E1,1.078321291E0,1.166171602E1
5.023502458E0,-2.054746664E0,1.077578227E1,6.889557856E-1,1.099154800E1
5.033506458E0,-2.496177531E0,1.011827223E1,1.220308059E-1,1.042234266E1
5.043510458E0,-3.000256053E0,9.602497519E0,-1.192574716E-1,1.006099982E1
5.053515458E0,-3.328841506E0,9.375426747E0,-6.744804186E-1,9.971696761E0
5.063519458E0,-3.508612104E0,9.128118176E0,-1.825084405E0,9.948056766E0
5.073523458E0,-3.454973256E0,8.982272830E0,-3.059346260E0,1.009839913E1
5.083527458E0,-3.551350281E0,8.865454232E0,-3.970155348E0,1.034265445E1
5.093532458E0,-3.591377103E0,8.833831905E0,-4.834458606E0,1.069142486E1
5.103536458E0,-3.331995494E0,9.205174538E0,-5.534398971E0,1.124575494E1
5.113540458E0,-3.100829916E0,9.495906871E0,-5.418280284E0,1.136420497E1
5.123544458E0,-2.219253691E0,8.252095343E0,-3.695888774E0,9.310303880E0
5.133549458E0,-1.267066197E0,6.951523139E0,-1.584458617E0,7.241521927E0
5.143553458E0,-1.690440278E0,5.795675370E0,1.883912949E-1,6.040110314E0
5.153557458E0,-2.670909292E0,2.845343429E0,1.865201567E0,4.325356929E0
5.163561458E0,-2.609937159E0,2.860224009E-2,3.061120305E0,4.022815877E0
5.173566458E0,5.778141909E0,-1.225064185E1,7.427485909E0,1.544774082E1
5.183570458E0,3.230085892E1,-9.538238256E1,1.961208053E1,1.025952148E2
5.193574458E0,2.087315889E1,-1.446150028E2,3.274967950E1,1.497388704E2
5.203578458E0,4.975806273E0,-9.261116721E1,1.916573566E1,9.470434184E1
5.213582458E0,-6.481476583E0,-4.152943285E1,6.005737762E0,4.245906520E1
5.223587458E0,-3.334386420E0,-2.032605831E1,4.760349825E0,2.114066483E1
5.233591458E0,-3.707433224E0,-1.456482011E1,2.025093533E0,1.516509314E1
5.243595458E0,-4.831370399E0,-1.524971384E1,7.172136247E-1,1.601281697E1
5.253599458E0,-2.037323715E0,-1.597195490E1,-1.172602527E0,1.614400904E1
5.263604458E0,1.385538095E0,-1.526434357E1,-1.415117989E0,1.539228571E1
5.273608458E0,7.418407522E0,-1.371608273E1,-8.515843361E0,1.776747826E1
5.283612458E0,1.352201949E1,-1.038785226E1,-1.590953704E1,2.332093168E1
5.293616458E0,6.094009668E0,-4.623544859E0,-2.653611474E0,8.096652071E0
5.303621458E0,2.684024889E0,9.660529965E-1,1.731551028E0,3.336992202E0
5.313625458E0,1.445641332E0,5.256618220E0,7.218740018E-1,5.499365059E0
5.323629458E0,5.146646127E-1,8.544420458E0,4.224472976E-1,8.570324518E0
5.333633458E0,-5.357004096E-1,1.075244252E1,2.521670222E-2,1.076580843E1
5.343638458E0,-1.582348357E0,1.199590205E1,-4.916075796E-1,1.210979646E1
5.353642458E0,-2.207661001E0,1.264581071E1,-5.899366969E-1,1.285061559E1
5.363646458E0,-2.309129050E0,1.263190720E1,-2.501767031E-1,1.284366556E1
5.373650458E0,-2.375317923E0,1.254140283E1,8.576279305E-2,1.276464945E1
5.383654458E0,-2.574251309E0,1.264754149E1,1.979218179E-1,1.290837901E1
5.393659458E0,-3.173075189E0,1.298738517E1,4.329372025E-1,1.337639766E1
5.403663458E0,-4.052566297E0,1.402375386E1,1.265892953E0,1.465235308E1
5.413667458E0,-2.699919083E0,1.871384530E1,2.474312453E0,1.906881724E1
5.423671458E0,-4.005116727E0,1.845950779E1,2.818445653E0,1.909811571E1
5.433676458E0,-6.755924420E0,1.326460400E1,5.971538421E-1,1.489794707E1
5.443680458E0,-6.632724756E0,1.569251880E1,-3.706503224E-1,1.704070320E1
5.453684458E0,-8.646881218E0,1.495330678E1,-1.249327791E0,1.731850913E1
5.463688458E0,-1.028621128E1,1.270122712E1,-1.995502236E0,1.646539832E1
5.473693458E0,-1.013489235E1,1.118535400E1,-2.385271784E0,1.528128622E1
5.483697458E0,-7.757299862E0,9.548327744E0,-1.696828068E0,1.241875555E1
5.493701458E0,-5.977754742E0,8.153694890E0,-1.054272863E0,1.016502747E1
5.503705458E0,-5.272340798E0,7.614617275E0,-3.970731591E-1,9.270255705E0
5.513710458E0,-4.409435902E0,7.477707644E0,4.225619030E-1,8.691248193E0
5.523714458E0,-3.475723270E0,7.927172586E0,1.037304828E0,8.717609694E0
5.533718458E0,-3.030670345E0,8.667524813E0,1.170956317E0,9.256461949E0
5.543722458E0,-2.928796645E0,9.540880730E0,8.608124703E-1,1.001734760E1
5.553726458E0,-2.772882394E0,1.024310677E1,3.961120961E-1,1.061918160E1
5.563731458E0,-2.670492678E0,1.073518388E1,-1.811087340E-1,1.106383769E1
5.573735458E0,-2.618389601E0,1.114425977E1,-5.176908392E-1,1.145942816E1
5.583739458E0,-2.672340983E0,1.143922724E1,-6.623106817E-1,1.176588210E1
5.593743458E0,-3.027350296E0,1.141853394E1,-8.125847087E-1,1.184094849E1
5.603748458E0,-3.020583313E0,1.116829650E1,-5.735125259E-1,1.158376825E1
5.613752458E0,-2.711020899E0,1.076982045E1,2.332447746E-1,1.110824333E1
5.623756458E0,-2.609743908E0,1.007033441E1,4.551507016E-1,1.041295158E1
5.633760458E0,-3.356746758E0,9.455085704E0,-1.086164162E-2,1.003327028E1
5.643765458E0,-4.748183523E0,9.052291483E0,-5.967393476E-1,1.023940065E1
5.653769458E0,-5.159301841E0,8.582582311E0,-9.765744764E-1,1.006145180E1
5.663773458E0,-5.094169121E0,8.471569414E0,-1.787238448E0,1.004550987E1
5.673777458E0,-5.140524677E0,8.352944611E0,-2.998203680E0,1.025601789E1
5.683782458E0,-4.987277926E0,8.325244596E0,-3.620625753E0,1.035816439E1
5.693786458E0,-4.509960649E0,8.200017117E0,-4.021187507E0,1.018577315E1
5.703790458E0,-4.622701983E0,7.831996288E0,-4.270568623E0,1.004725315E1
5.713794458E0,-4.763325181E0,7.188204980E0,-4.357305343E0,9.661556162E0
5.723798458E0,-4.688520874E0,6.351687691E0,-3.877072352E0,8.795331406E0
5.733803458E0,-4.526674622E0,5.351562969E0,-3.803097765E0,7.974557164E0
5.743807458E0,-5.193326204E0,2.874002388E0,-4.676684355E0,7.556580135E0
5.753811458E0,-5.380783260E0,-2.948509948E0,-7.306700560E0,9.541195548E0
5.763815458E0,-3.068501830E-2,-1.124892961E1,-1.420415684E1,1.811897983E1
5.773820458E0,5.367621177E0,-1.548144133E1,-1.485800184E1,2.211891954E1
5.783824458E0,1.956177109E1,-3.260964103E1,-3.460883914E0,3.818414977E1
5.793828458E0,5.850348825E1,-1.178696887E2,2.419353772E1,1.337955490E2
5.803832458E0,5.265803144E1,-1.306516179E2,2.608236145E1,1.432585185E2
5.813837583E0,2.103229437E1,-6.885531464E1,1.054274383E1,7.276373552E1
5.823841583E0,5.435469929E0,-2.797672601E1,5.405617554E0,2.900796843E1
5.833845583E0,2.383844479E0,-1.490993681E1,3.869206093E0,1.558716415E1
5.843849583E0,-2.356669836E0,-1.016546276E1,3.633305440E0,1.104949928E1
5.853854583E0,-3.388711147E0,-9.489396581E0,4.681785466E0,1.111085622E1
5.863858583E0,-1.539273819E0,-8.012716767E0,3.828989528E0,9.012999206E0
5.873862583E0,1.248940120E0,-4.587797906E0,2.914400800E0,5.576869470E0
5.883866583E0,2.268106008E0,-3.927761865E-1,2.330358682E0,3.275538060E0
5.893871583E0,2.011824592E0,3.399196374E0,2.284951544E0,4.563220106E0
5.903875583E0,3.164691451E-1,5.790537422E0,2.837582420E0,6.456186982E0
5.913879583E0,-1.039530570E0,8.417640544E0,2.442529328E0,8.826281530E0
5.923883583E0,-2.371400873E0,1.034246851E1,2.496893231E0,1.090067304E1
5.933887583E0,-3.475899856E0,1.097658735E1,2.126327108E0,1.170848481E1
5.943892583E0,-3.668777574E0,1.085638497E1,1.113940190E0,1.151355229E1
5.953896583E0,-3.825855128E0,1.167753753E1,8.815285707E-1,1.231986781E1
5.963900583E0,-4.935404352E0,1.230035020E1,8.356179875E-1,1.327987532E1
5.973904583E0,-6.652953783E0,1.217160152E1,5.030008793E-1,1.388029854E1
5.983909583E0,-8.958233757E0,1.241563741E1,2.515583271E-1,1.531212872E1
5.993913583E0,-1.046696859E1,1.329427512E1,5.849215400E-1,1.693036667E1
6.003917583E0,-1.110684227E1,1.384485011E1,1.222346984E0,1.779145727E1
6.013921583E0,-1.111895536E1,1.376607993E1,1.054484532E0,1.772704325E1
6.023926583E0,-8.205414097E0,1.802527952E1,6.031239223E-1,1.981421916E1
6.033930583E0,-8.419590590E0,1.961486848E1,-1.265138662E0,2.138301071E1
6.043934583E0,-9.099337596E0,1.380633567E1,-4.150510960E0,1.704815505E1
6.053938583E0,-6.918039644E0,9.223213198E0,-4.252731984E0,1.228872099E1
6.063943583E0,-4.790109521E0,8.296966876E0,-3.660658715E0,1.025598512E1
6.073947583E0,-4.276078455E0,7.383394979E0,-2.733941107E0,8.959564853E0
6.083951583E0,-4.408785984E0,6.700340204E0,-1.937770776E0,8.251479157E0
6.093955583E0,-4.341714912E0,6.298446454E0,-1.083103875E0,7.726191178E0
6.103959583E0,-3.874429411E0,6.448091905E0,-2.408299289E-1,7.526426212E0
6.113964583E0,-3.762566328E0,7.678998628E0,1.110468113E-1,8.551973848E0
6.123968583E0,-4.371659380E0,8.861265872E0,-1.501528434E-1,9.882104253E0
6.133972583E0,-4.543473381E0,9.362821904E0,-3.275445025E-1,1.041215010E1
6.143976583E0,-4.579654782E0,9.622019033E0,-4.381615435E-1,1.066529295E1
6.153981583E0,-4.483139763E0,9.730973126E0,-4.802616423E-1,1.072478584E1
6.163985583E0,-4.291770335E0,9.856742642E0,-4.216549999E-1,1.075883177E1
6.173989583E0,-4.167635993E0,9.978432555E0,-2.995674759E-1,1.081795021E1
6.183993583E0,-4.176410910E0,9.970716569E0,-2.031264976E-1,1.081197750E1
6.193998583E0,-4.094559831E0,9.903518028E0,-1.380580971E-1,1.071746936E1
6.204002583E0,-3.958229659E0,9.993179233E0,2.246862050E-1,1.075089285E1
6.214006583E0,-4.199196632E0,9.927511493E0,6.478381652E-1,1.079853838E1
6.224010583E0,-4.463602754E0,9.830248908E0,7.456584285E-1,1.082190139E1
6.234015583E0,-4.515507610E0,9.808532349E0,6.665911359E-1,1.081857013E1
6.244019583E0,-4.473123775E0,9.825499799E0,3.188568556E-1,1.080050704E1
6.254023583E0,-4.407424167E0,9.812766902E0,-4.661360849E-1,1.076722178E1
6.264027583E0,-4.243352758E0,9.750296420E0,-1.648949897E0,1.076073226E1
6.274031583E0,-3.497052159E0,9.010201471E0,-2.792883965E0,1.006048235E1
6.284036583E0,-2.473799068E0,7.802181335E0,-3.416718725E0,8.869480383E0
6.294040583E0,-2.335566212E0,6.595722406E0,-3.315358996E0,7.742740397E0
6.304044583E0,-2.737690927E0,5.449650012E0,-2.476941946E0,6.582467491E0
6.314048583E0,-2.620249016E0,4.618364226E0,-6.241832542E-1,5.346456562E0
6.324053583E0,-2.731212212E0,3.359746379E0,6.920530558E-2,4.330381652E0
6.334057583E0,-2.802602622E0,-2.547620165E-1,-1.463044692E0,3.171747927E0
6.344061583E0,6.957325332E0,-1.766730245E1,2.203039654E0,1.911521215E1
6.354065583E0,4.816680380E1,-9.018506856E1,1.495193853E1,1.033293184E2
6.364070583E0,5.244082375E1,-1.269151162E2,2.706051643E1,1.399634176E2
6.374074583E0,2.517524780E1,-8.209298987E1,1.807582285E1,8.774843281E1
6.384078583E0,1.193049276E1,-3.635071299E1,6.150016054E0,3.874962825E1
6.394082583E0,4.927414716E0,-1.795275066E1,1.897106022E0,1.871308855E1
6.404087583E0,3.381324067E0,-1.368795528E1,5.464617714E-1,1.410999974E1
6.414091583E0,3.962168636E0,-1.432444809E1,1.028157297E0,1.489784216E1
6.424095583E0,2.951379469E0,-1.530159501E1,2.408346359E0,1.576862654E1
6.434099583E0,3.560380720E0,-1.375368032E1,3.054909393E0,1.453177569E1
6.444103583E0,4.435487587E0,-1.040594588E1,2.830878587E0,1.166066608E1
6.454108583E0,3.841885563E0,-6.115649629E0,2.439527367E0,7.623158717E0
6.464112583E0,3.593573317E0,-1.520071417E0,2.279724718E0,4.519018819E0
6.474116583E0,2.845081182E0,2.770724187E0,1.565773255E0,4.268845902E0
6.484120583E0,1.337490939E0,6.466749786E0,9.734076244E-1,6.674972450E0
6.494125583E0,-3.418586326E-1,8.945528927E0,1.008663338E0,9.008704504E0
6.504129583E0,-3.024964047E0,1.010394655E1,1.579287924E0,1.066462815E1
6.514133583E0,-4.529999934E0,1.092181531E1,1.937710549E0,1.198172238E1
6.524137583E0,-5.257368418E0,1.219041319E1,1.824485065E0,1.340055380E1
6.534142583E0,-5.753615763E0,1.175740231E1,1.479468352E0,1.317305697E1
6.544146583E0,-6.470141755E0,1.175343205E1,2.154123602E0,1.358845642E1
6.554150583E0,-8.234684674E0,1.218631780E1,3.391690303E0,1.509370519E1
6.564154583E0,-1.239799870E1,1.228872125E1,4.155982200E0,1.794422553E1
6.574159583E0,-1.625818780E1,1.197299968E1,3.578647422E0,2.050580672E1
6.584163583E0,-1.519939036E1,1.167602427E1,2.673140590E0,1.935191698E1
6.594167583E0,-1.284208771E1,1.103719491E1,1.168352040E0,1.697362468E1
6.604171583E0,-1.113518021E1,1.029775602E1,-1.324941060E0,1.522469987E1
6.614175583E0,-9.169797714E0,9.964235516E0,-3.095862706E0,1.389084394E1
6.624180583E0,-7.063269278E0,1.024157714E1,-3.266251740E0,1.286266207E1
6.634184583E0,-5.380930610E0,1.038176881E1,-3.120266061E0,1.210254511E1
6.644188583E0,-4.322456230E0,1.028858642E1,-2.228103159E0,1.137994209E1
6.654192583E0,-4.488645209E0,9.731126908E0,-1.427549901E0,1.081113618E1
6.664197583E0,-5.695633603E0,8.465312893E0,-1.023227729E0,1.025420692E1
6.674201583E0,-5.529160450E0,8.244038465E0,-7.158477882E-1,9.952297401E0
6.684205583E0,-4.754967171E0,8.809316284E0,-6.059984136E-1,1.002900794E1
6.694209583E0,-4.259749228E0,9.315487524E0,-7.099712634E-1,1.026780553E1
6.704214583E0,-4.145003468E0,9.577659132E0,-9.186062036E-1,1.047647104E1
6.714218583E0,-4.248259449E0,9.741999806E0,-1.070973095E0,1.068181876E1
6.724222583E0,-4.346799943E0,9.793326665E0,-8.932776003E-1,1.075183062E1
6.734226583E0,-4.363773825E0,9.698880098E0,-5.850741524E-1,1.065143694E1
6.744231583E0,-4.291178889E0,9.598231975E0,-3.932907414E-1,1.052116680E1
6.754235583E0,-4.192445144E0,9.539065170E0,-3.040761177E-1,1.042414615E1
6.764239583E0,-3.998914001E0,9.507241114E0,-3.574636817E-1,1.032020964E1
6.774243583E0,-3.640692227E0,9.532584701E0,-6.290886296E-1,1.022352989E1
6.784247583E0,-3.153758912E0,9.644928424E0,-9.992546564E-1,1.019653615E1
6.794252583E0,-2.865877097E0,9.808512468E0,-1.389932862E0,1.031271457E1
6.804256583E0,-2.646959389E0,9.903785831E0,-1.797190409E0,1.040775005E1
6.814260708E0,-2.299048304E0,9.924040586E0,-2.190589324E0,1.041973542E1
6.824264708E0,-2.098541139E0,9.921440914E0,-2.508648473E0,1.044663495E1
6.834269708E0,-1.931004962E0,9.953074350E0,-2.580902517E0,1.046200397E1
6.844273708E0,-1.682467307E0,1.001006365E1,-2.399123692E0,1.043014214E1
6.854277708E0,-1.451504920E0,9.647842092E0,-2.292200922E0,1.002207107E1
6.864281708E0,-1.640909099E0,8.987265767E0,-2.461892383E0,9.461735715E0
6.874286708E0,-1.866077480E0,8.624655367E0,-2.972826764E0,9.311531792E0
6.884290708E0,-2.108232607E0,8.123182365E0,-3.264275381E0,9.004789293E0
6.894294708E0,-2.517880934E0,7.323379743E0,-2.999495330E0,8.304732836E0
6.904298708E0,-2.585625313E0,6.957900698E0,-1.926284359E0,7.668664278E0
6.914303708E0,-2.633140664E0,6.113346410E0,-5.685481668E-1,6.680544971E0
6.924307708E0,-2.035375423E0,3.512700770E0,1.071073667E0,4.198692488E0
6.934311708E0,1.366717896E1,-1.447001219E1,7.076720797E0,2.112470143E1
6.944315708E0,7.123422860E1,-9.748540618E1,2.104335730E1,1.225583234E2
6.954319708E0,5.794852199E1,-1.297645532E2,2.621928687E1,1.445140875E2
6.964324708E0,1.350875332E1,-8.616338170E1,1.386210291E1,8.831065994E1
6.974328708E0,5.888887589E0,-3.920025998E1,3.756758873E0,3.981774249E1
6.984332708E0,7.385501146E-2,-2.314644640E1,-4.946215269E-1,2.315184844E1
6.994336708E0,-7.589655511E0,-2.083351710E1,-1.703324910E0,2.223824682E1
7.004341708E0,-7.766693999E0,-2.038332828E1,-2.984771456E0,2.201614108E1
7.014345708E0,-3.187497054E0,-1.663830827E1,-3.680898852E0,1.733616036E1
7.024349708E0,-1.094785881E-1,-1.083535020E1,-2.214429445E0,1.105985973E1
7.034353708E0,4.773871511E-2,-5.831508862E0,-5.624419194E-1,5.858763991E0
7.044358708E0,1.165802946E0,-2.256783167E0,9.657012865E-2,2.541946609E0
7.054362708E0,3.609292972E0,1.612260958E0,-1.918993320E-1,3.957676908E0
7.064366708E0,4.524310593E0,4.944685637E0,-9.424105109E-1,6.768119382E0
7.074370708E0,3.294262534E0,7.373876297E0,-2.102333936E0,8.345419418E0
7.084374708E0,4.368253085E-1,8.877438101E0,-2.559963053E0,9.249493738E0
7.094379708E0,-2.174093305E0,9.831632359E0,-2.525742223E0,1.038109100E1
7.104383708E0,-3.389413982E0,1.050443170E1,-2.435123391E0,1.130314286E1
7.114387708E0,-3.901511959E0,1.119993695E1,-1.951402974E0,1.201949903E1
7.124391708E0,-3.850516930E0,1.340343211E1,-1.101601396E0,1.398899562E1
7.134396708E0,-2.915558257E0,1.504669383E1,-1.368288224E0,1.538751728E1
7.144400708E0,-3.208285075E0,1.603076853E1,-1.826214087E0,1.645034014E1
7.154404708E0,-5.038770846E0,1.566039186E1,-1.575443380E0,1.652631558E1
7.164408708E0,-9.413107374E0,1.474812331E1,-1.811087340E0,1.758959263E1
7.174413708E0,-1.466056242E1,1.372867763E1,-1.769692708E0,2.016284931E1
7.184417708E0,-1.481265318E1,1.373322910E1,-1.141529766E0,2.023164269E1
7.194421708E0,-1.246620998E1,1.267520350E1,-9.171271504E-1,1.780191835E1
7.204425708E0,-9.872350030E0,1.211046772E1,-4.333529395E-1,1.563056359E1
7.214430708E0,-6.680503525E0,1.076753536E1,3.479296504E-1,1.267635595E1
7.224434708E0,-5.967052583E0,8.899521865E0,7.864422461E-1,1.074363520E1
7.234438708E0,-5.114951295E0,7.674571701E0,1.130347916E0,9.291903139E0
7.244442708E0,-4.633696210E0,6.622576329E0,1.502589412E0,8.221157628E0
7.254447708E0,-4.471175775E0,5.910004224E0,2.183462591E0,7.725740846E0
7.264451708E0,-4.587526011E0,5.981309264E0,3.112776947E0,8.155417570E0
7.274455708E0,-5.528224311E0,6.642793661E0,3.746718035E0,9.419440944E0
7.284459708E0,-6.450609716E0,7.351914740E0,3.488317881E0,1.038409253E1
7.294463708E0,-6.855999516E0,7.881976533E0,2.431813720E0,1.072585667E1
7.304468708E0,-7.045320665E0,8.455289596E0,1.238078333E0,1.107525636E1
7.314472708E0,-7.052234412E0,8.857011437E0,2.138337728E-1,1.132370905E1
7.324476708E0,-6.771844634E0,9.078614479E0,-5.243772034E-1,1.133816970E1
7.334480708E0,-6.656071519E0,9.151609949E0,-1.039753641E0,1.136381716E1
7.344485708E0,-6.723040849E0,9.108326520E0,-1.306962626E0,1.139600990E1
7.354489708E0,-6.559377283E0,8.991840629E0,-1.406407392E0,1.121858324E1
7.364493708E0,-6.250102844E0,8.934892257E0,-1.436123527E0,1.099811511E1
7.374497708E0,-6.025780263E0,8.968526026E0,-1.414633109E0,1.089704885E1
7.384502708E0,-5.695725405E0,9.041531437E0,-1.351903741E0,1.077117553E1
7.394506708E0,-5.376028304E0,9.023408577E0,-1.338680263E0,1.058846767E1
7.404510708E0,-4.593414742E0,8.928664972E0,-1.417861357E0,1.014055462E1
7.414514708E0,-3.954946447E0,8.689457719E0,-1.746985338E0,9.705680534E0
7.424519708E0,-3.669554961E0,8.114284072E0,-2.372475591E0,9.216066408E0
7.434523708E0,-3.412987617E0,7.530582846E0,-2.768719177E0,8.719172458E0
7.444527708E0,-3.085650837E0,6.851020027E0,-2.897295941E0,8.053076447E0
7.454531708E0,-2.989604180E0,6.263519281E0,-3.417132708E0,7.736032761E0
7.464535708E0,-3.072317431E0,5.856920861E0,-4.003338881E0,7.731065810E0
7.474540708E0,-3.018738809E0,5.156834900E0,-4.378371107E0,7.407824494E0
7.484544708E0,-2.776781318E0,3.269609796E0,-4.496256822E0,6.214272935E0
7.494548708E0,-2.068372430E0,-1.957916772E-1,-4.228070183E0,4.710952808E0
7.504552708E0,2.131986979E1,-2.251592243E1,-2.279246123E-1,3.100895936E1
7.514557708E0,6.919298432E1,-8.181277259E1,1.578403357E1,1.083057457E2
7.524561708E0,5.956051047E1,-1.096389515E2,2.344418195E1,1.269558339E2
7.534565708E0,3.674885926E1,-6.667704437E1,1.369762424E1,7.735587769E1
7.544569708E0,2.048784375E1,-2.130587389E1,2.958183582E0,2.970593971E1
7.554574708E0,1.062256651E1,-1.345064253E1,1.531561196E-1,1.714007469E1
7.564578708E0,3.974925506E0,-1.432180048E1,1.669355218E-1,1.486411346E1
7.574582708E0,2.061715083E0,-1.877155614E1,3.581566937E0,1.922107205E1
7.584586708E0,3.040491913E0,-1.997715729E1,6.749378462E0,2.130458904E1
7.594590708E0,3.573241087E0,-1.606811353E1,6.866758393E0,1.783548976E1
7.604595708E0,2.929715828E0,-1.044577945E1,5.210179633E0,1.203509514E1
7.614599708E0,2.260134791E0,-4.863993477E0,3.955843703E0,6.664483567E0
7.624603708E0,2.149847533E0,4.714241606E-1,2.631780310E0,3.430794770E0
7.634607708E0,6.994421822E-1,4.798109974E0,1.456711573E0,5.062912926E0
7.644612708E0,-1.979557317E0,8.098233465E0,9.288074023E-1,8.388248662E0
7.654616708E0,-4.245354552E0,1.043535270E1,4.583977336E-1,1.127518291E1
7.664620708E0,-5.647529145E0,1.226321336E1,4.975050813E-1,1.351031083E1
7.674624708E0,-7.325081867E0,1.332578576E1,1.106707184E0,1.524657966E1
7.684629708E0,-8.797862173E0,1.360626266E1,1.451956617E0,1.626778843E1
7.694633708E0,-9.756450030E0,1.322735958E1,6.932178211E-1,1.645089388E1
7.704637708E0,-1.195814424E1,1.227933998E1,-1.902503441E-1,1.714105012E1
7.714641708E0,-1.363153784E1,1.176943471E1,-9.734737710E-1,1.803568874E1
7.724646708E0,-1.338942218E1,1.172096597E1,-2.146173728E0,1.792383138E1
7.734650708E0,-1.179455669E1,1.145926097E1,-2.967381837E0,1.671022395E1
7.744654708E0,-1.010897749E1,1.115340247E1,-2.946228365E0,1.533851604E1
7.754658708E0,-8.199045895E0,9.922575274E0,-2.002945595E0,1.302665132E1
7.764662708E0,-6.153241963E0,1.006573850E1,-9.106776716E-1,1.183261645E1
7.774667708E0,-5.338696756E0,1.036636257E1,-9.029961844E-1,1.169523656E1
7.784671708E0,-4.860421997E0,1.060237490E1,-1.076288653E0,1.171291820E1
7.794675708E0,-4.368524103E0,1.040110205E1,-1.256622046E0,1.135103632E1
7.804679708E0,-4.828725411E0,9.041685219E0,-1.133930797E0,1.031282986E1
7.814684208E0,-5.550830231E0,7.868101675E0,-8.863818327E-1,9.669767990E0
7.824688208E0,-5.252864892E0,7.439430601E0,-3.640322976E-1,9.114287507E0
7.834692208E0,-4.960651460E0,7.159248984E0,2.038375922E-1,8.712316493E0
7.844696208E0,-4.738525970E0,7.533349748E0,7.786111432E-1,8.933712672E0
7.854701208E0,-4.764130635E0,8.463719527E0,1.155933650E0,9.780985203E0
7.864705208E0,-5.191514152E0,9.355281919E0,1.185318321E0,1.076466899E1
7.874709208E0,-5.537573424E0,9.790649225E0,1.013004896E0,1.129370225E1
7.884713208E0,-5.714637054E0,9.903532062E0,6.836072644E-1,1.145444642E1
7.894718208E0,-5.649261675E0,9.977099390E0,3.070432142E-1,1.146956604E1
7.904722208E0,-5.163878456E0,1.003866706E1,-1.168566048E-2,1.128895981E1
7.914726208E0,-4.706607774E0,9.922165968E0,-3.065636694E-1,1.098615108E1
7.924730208E0,-4.460212830E0,9.720835809E0,-3.172628316E-1,1.069994407E1
7.934734208E0,-4.333155173E0,9.478019069E0,-1.377948993E-1,1.042247891E1
7.944739208E0,-4.300685000E0,9.197671391E0,-1.010158398E-1,1.015397728E1
7.954743208E0,-4.286041525E0,9.084761072E0,-2.928583807E-1,1.004931847E1
7.964747208E0,-4.354662986E0,9.173532915E0,-4.844453251E-1,1.016619315E1
7.974751208E0,-4.399526918E0,9.282735515E0,-7.690667331E-1,1.030128533E1
7.984756208E0,-4.426939250E0,9.198398200E0,-1.103922813E0,1.026776344E1
7.994760208E0,-4.355333662E0,8.797400828E0,-1.293105310E0,9.901278401E0
8.004764208E0,-4.102464974E0,8.086198726E0,-1.406395844E0,9.175771246E0
8.014768208E0,-3.977442148E0,7.555660384E0,-2.155255769E0,8.806428181E0
8.024773208E0,-4.027192013E0,6.895108033E0,-2.973697122E0,8.520778419E0
8.034777208E0,-4.058733063E0,5.456781276E0,-2.733379190E0,7.329470497E0
8.044781208E0,-4.228609296E0,2.871899729E0,-1.791967530E0,5.416649542E0
8.054785208E0,8.506090790E-1,-6.072659145E0,5.180187218E-1,6.153784875E0
8.064790208E0,3.773553012E1,-5.250414675E1,8.254348860E0,6.518274262E1
8.074794208E0,5.878091290E1,-1.041523921E2,2.060837123E1,1.213574121E2
8.084798208E0,4.425918443E1,-1.073316308E2,1.845234261E1,1.175561284E2
8.094802208E0,3.046054837E1,-4.708391350E1,5.658380408E0,5.636272870E1
8.104807208E0,1.580172842E1,-1.602828464E1,8.527859974E-1,2.252393778E1
8.114811208E0,8.610078258E0,-1.185577119E1,-2.244251999E0,1.482327309E1
8.124815208E0,5.376817678E0,-1.342890960E1,-3.190118068E0,1.481292120E1
8.134819208E0,3.762465464E0,-1.639387595E1,-2.027053812E0,1.694179040E1
8.144823208E0,3.788939902E0,-1.461917466E1,3.685381620E-1,1.510669235E1
8.154828208E0,6.649306290E0,-9.173607175E0,1.409086002E0,1.141726176E1
8.164832208E0,8.359257849E0,-3.802199340E0,1.852529481E0,9.368339079E0
8.174836208E0,6.889832675E0,2.738192618E-1,1.903446450E0,7.153172700E0
8.184840208E0,3.712804769E0,3.941259577E0,1.154612180E0,5.536386510E0
8.194845208E0,8.773624295E-1,7.218652017E0,6.132309077E-1,7.297585486E0
8.204849208E0,-1.941729341E0,8.900376143E0,6.207719886E-1,9.130846958E0
8.214853208E0,-4.418105861E0,9.776822898E0,1.068561704E0,1.078182496E1
8.224857208E0,-6.941236133E0,1.053919691E1,1.995067057E0,1.277637363E1
8.234862208E0,-8.646828593E0,1.158354120E1,2.890309103E0,1.474109759E1
8.244866208E0,-9.325538887E0,1.174155285E1,3.008115295E0,1.529308656E1
8.254870208E0,-1.154038992E1,1.100946274E1,2.313159682E0,1.611643810E1
8.264874208E0,-1.367190117E1,1.092869398E1,1.205458471E0,1.754452518E1
8.274879208E0,-1.473083660E1,1.143821450E1,-7.043263614E-2,1.865034205E1
8.284883208E0,-1.465822821E1,1.070479473E1,-1.186116539E0,1.818964423E1
8.294887208E0,-1.348362082E1,1.055672218E1,-9.605122481E-1,1.715153047E1
8.304891208E0,-1.197287805E1,1.069971818E1,-7.951084775E-1,1.607687704E1
8.314895208E0,-1.065262821E1,1.085943605E1,-8.472638138E-1,1.523560616E1
8.324900208E0,-8.757829796E0,1.102685820E1,-1.066811632E0,1.412194291E1
8.334904208E0,-7.054808357E0,1.089844399E1,-1.268585595E0,1.304437472E1
8.344908208E0,-5.448044951E0,1.059312110E1,-1.493075407E0,1.200519398E1
8.354912208E0,-4.440673482E0,1.008602015E1,-1.427718739E0,1.111241487E1
8.364917208E0,-4.263253464E0,8.941262214E0,-1.133662191E0,9.970290369E0
8.374921208E0,-4.371799421E0,7.984421505E0,-8.937006464E-1,9.146710764E0
8.384925208E0,-4.238701590E0,7.588001919E0,-7.827941682E-1,8.726805315E0
8.394929208E0,-4.003538856E0,7.477953227E0,-6.427382968E-1,8.506539858E0
8.404934208E0,-3.734208794E0,7.363220331E0,-7.120628855E-1,8.286637588E0
8.414938208E0,-3.437615504E0,7.240686080E0,-8.892031143E-1,8.064453946E0
8.424942208E0,-3.603886929E0,7.546046392E0,-1.195745076E0,8.447521733E0
8.434946208E0,-4.493601601E0,8.413318282E0,-1.311642153E0,9.627916960E0
8.444951208E0,-4.799968804E0,9.016627561E0,-1.238138705E0,1.028942469E1
8.454955208E0,-4.671963898E0,9.187974368E0,-1.103197759E0,1.036644418E1
8.464959208E0,-4.503001293E0,9.304871319E0,-7.405112708E-1,1.036368698E1
8.474963208E0,-4.397850229E0,9.393639654E0,-1.984860742E-1,1.037405173E1
8.484968208E0,-4.222448670E0,9.360331575E0,1.375206649E-1,1.026955656E1
8.494972208E0,-4.031396453E0,9.324904464E0,2.137742043E-1,1.016128437E1
8.504976208E0,-3.912411462E0,9.323655499E0,1.971318591E-1,1.011317835E1
8.514980208E0,-3.795968840E0,9.328771813E0,1.329874648E-1,1.007239041E1
8.524984208E0,-3.758318911E0,9.342420384E0,8.057404697E-2,1.007036602E1
8.534989208E0,-3.734426895E0,9.288676870E0,1.176477331E-1,1.001195801E1
8.544993208E0,-3.701703537E0,9.161422747E0,2.680609238E-1,9.884641242E0
8.554997208E0,-3.611060293E0,8.913684990E0,4.385686558E-1,9.627350571E0
8.565001208E0,-4.080452546E0,8.535274243E0,5.360084116E-2,9.460648627E0
8.575006208E0,-5.109654887E0,8.170723736E0,-1.356787920E-1,9.637826942E0
8.585010208E0,-5.563697029E0,6.536088408E0,9.860515704E-1,8.639876967E0
8.595014208E0,-5.325493158E0,3.761172352E0,1.629818977E0,6.720387246E0
8.605018208E0,-4.707828672E0,4.030532527E-1,2.001549280E0,5.131500975E0
8.615023208E0,2.906199203E0,-1.033693587E1,4.238923200E0,1.154412002E1
8.625027208E0,4.498323345E1,-6.354468627E1,1.763717643E1,7.982786755E1
8.635031208E0,4.921875532E1,-1.049197807E2,2.404837006E1,1.183594963E2
8.645035208E0,2.957058578E1,-9.185606246E1,1.354396292E1,9.744431582E1
8.655040208E0,1.970008347E1,-4.144303907E1,2.208856464E0,4.594015480E1
8.665044208E0,1.331034677E1,-1.721269664E1,-7.861970285E-1,2.177292728E1
8.675048208E0,1.166414039E1,-1.311860605E1,-3.536560041E0,1.790690516E1
8.685052208E0,9.864706550E0,-1.526371324E1,-5.817149854E0,1.908225903E1
8.695056208E0,1.066655628E1,-1.877552173E1,-6.908326834E0,2.267202282E1
8.705061208E0,1.552072644E1,-1.457403299E1,-1.136988394E1,2.413647960E1
8.715065208E0,1.488596674E1,-8.267610930E0,-1.015715738E1,1.982708355E1
8.725069208E0,8.669277223E0,-2.497315400E0,-3.343988718E0,9.621601339E0
8.735073208E0,3.220386765E0,1.129944604E0,-4.044565845E-1,3.436750042E0
8.745078208E0,1.525936174E-1,3.800895411E0,-3.153134429E-1,3.817003184E0
8.755082208E0,-1.508836577E0,6.967826346E0,-6.387646021E-1,7.157877620E0
8.765086208E0,-2.681599172E0,9.572669703E0,-1.047163818E0,9.996175840E0
8.775090208E0,-5.027376961E0,1.102655999E1,-6.015188617E-1,1.213348134E1
8.785095208E0,-8.079339357E0,1.078381518E1,7.508074866E-1,1.349555875E1
8.795099208E0,-8.798481978E0,1.104975707E1,1.702071267E0,1.422699768E1
8.805103208E0,-9.564537980E0,1.155936764E1,2.660871377E0,1.523744084E1
8.815107375E0,-1.191071163E1,1.148075533E1,2.807278640E0,1.677955923E1
8.825112375E0,-1.413998247E1,1.194845774E1,2.820548311E0,1.872592426E1
8.835116375E0,-1.502800730E1,1.206419519E1,2.373465525E0,1.941698091E1
8.845120375E0,-1.355164733E1,1.081579828E1,2.590135855E0,1.753104222E1
8.855124375E0,-1.179599159E1,1.052046009E1,3.142140495E0,1.611516507E1
8.865129375E0,-1.029102003E1,1.050058073E1,3.772643420E0,1.517893696E1
8.875133375E0,-8.301154068E0,1.042230873E1,4.407279156E0,1.403416501E1
8.885137375E0,-7.278485405E0,1.040795031E1,4.114938254E0,1.335044929E1
8.895141375E0,-6.084749433E0,1.052955134E1,3.304516504E0,1.260220046E1
8.905145375E0,-4.852520070E0,1.057729503E1,2.038134139E0,1.181440273E1
8.915150375E0,-4.140890536E0,1.026655528E1,8.195369750E-1,1.110048524E1
8.925154375E0,-4.228014050E0,9.435119802E0,-1.717947042E-1,1.034055617E1
8.935158375E0,-4.752352588E0,8.257237970E0,-8.066438645E-1,9.561250354E0
8.945162375E0,-4.745497020E0,7.705455524E0,-9.316572621E-1,9.097349727E0
8.955167375E0,-4.446347913E0,7.475789173E0,-7.861651611E-1,8.733583982E0
8.965171375E0,-4.444784659E0,7.450049729E0,-4.610096848E-1,8.687455414E0
8.975175375E0,-4.736569199E0,7.719680631E0,-7.021928586E-2,9.057233991E0
8.985179375E0,-5.055002131E0,8.180959287E0,-1.042261074E-1,9.617276355E0
8.995184375E0,-5.425061885E0,8.553759046E0,-5.326415849E-1,1.014306647E1
9.005188375E0,-5.666424422E0,8.807743968E0,-8.910607747E-1,1.051088525E1
9.015192375E0,-5.531807485E0,8.981400425E0,-1.068303841E0,1.060225074E1
9.025196375E0,-5.217949998E0,9.117396721E0,-1.152624638E0,1.056799265E1
9.035201375E0,-4.878698055E0,9.379696383E0,-1.229749997E0,1.064390361E1
9.045205375E0,-4.435980799E0,9.699712742E0,-1.350504502E0,1.075110298E1
9.055209375E0,-3.855154064E0,9.853005102E0,-1.573534118E0,1.069672529E1
9.065213375E0,-3.133915801E0,9.669356337E0,-1.840174314E0,1.032976872E1
9.075218375E0,-2.406226889E0,9.243888953E0,-2.262511100E0,9.816229790E0
9.085222375E0,-1.668766696E0,8.888789885E0,-2.793821273E0,9.465770186E0
9.095226375E0,-1.094995504E0,8.537526591E0,-3.269699258E0,9.207568011E0
9.105230375E0,-8.415801010E-1,8.057148004E0,-3.483609118E0,8.818243789E0
9.115234375E0,-9.580575138E-1,7.615787303E0,-3.799590898E0,8.564752269E0
9.125239375E0,-1.236890763E0,7.415040695E0,-4.236928422E0,8.629269362E0
9.135243375E0,-1.331948948E0,7.278763733E0,-4.323927682E0,8.570346555E0
9.145247375E0,-1.411925994E0,6.565632049E0,-3.585872242E0,7.613116245E0
9.155251375E0,-1.537404318E0,4.434166408E0,-2.247531703E0,5.203541345E0
9.165256375E0,5.128567121E0,-7.818024366E0,-1.041921204E0,9.407938430E0
9.175260375E0,3.660203334E1,-5.181139671E1,6.249850829E0,6.374315892E1
9.185264375E0,4.680205899E1,-8.881460283E1,1.798885020E1,1.019905149E2
9.195268375E0,4.502274659E1,-9.546427165E1,2.283399927E1,1.079901217E2
9.205273375E0,2.489019604E1,-5.804039812E1,1.051459183E1,6.402160818E1
9.215277375E0,1.247696885E1,-2.038451175E1,1.674211477E0,2.395842347E1
9.225281375E0,7.156758655E0,-1.283321865E1,2.195756654E-1,1.469554044E1
9.235285375E0,2.231588392E0,-1.588397535E1,-1.278610647E0,1.609085159E1
9.245290375E0,-2.910728164E0,-2.130203812E1,1.191450881E0,2.153296825E1
9.255294375E0,-5.241744073E0,-2.217909240E1,2.768311626E0,2.295760375E1
9.265298375E0,-3.304995098E0,-1.696873911E1,1.966487475E0,1.739908539E1
9.275302375E0,-8.457576442E-1,-9.079009166E0,1.393846842E0,9.224235602E0
9.285307375E0,-5.604503578E-1,-3.004663099E0,1.812219361E0,3.553342645E0
9.295311375E0,-7.877558962E-1,1.856668140E0,2.133211620E0,2.935705665E0
9.305315375E0,-4.874762294E-1,5.520722333E0,2.373737420E0,6.029148986E0
9.315319375E0,-4.425172806E-1,7.792434027E0,2.131789577E0,8.090882301E0
9.325323375E0,-1.435824734E0,9.449684631E0,1.381212325E0,9.657426147E0
9.335328375E0,-3.161753225E0,1.009546341E1,8.762134516E-1,1.061521620E1
9.345332375E0,-4.446207872E0,1.017687536E1,8.323651814E-1,1.113689312E1
9.355336375E0,-5.088678585E0,1.049691452E1,9.665681362E-1,1.170530299E1
9.365340375E0,-6.085691419E0,1.141753290E1,8.648365241E-1,1.296702124E1
9.375345375E0,-6.758151040E0,1.111405422E1,5.664209497E-1,1.301981718E1
9.385349375E0,-8.197616251E0,1.136762691E1,1.156738300E0,1.406278412E1
9.395353375E0,-1.109545540E1,1.207561597E1,9.952124763E-1,1.642924464E1
9.405357375E0,-1.150350334E1,1.236659096E1,-3.064063793E-1,1.689251450E1
9.415362375E0,-1.140215940E1,1.257649080E1,-2.064160096E0,1.710082211E1
9.425366375E0,-1.026633893E1,1.240292907E1,-2.363650973E0,1.627320529E1
9.435370375E0,-8.257233292E0,1.255355101E1,-1.610127309E0,1.511178528E1
9.445374375E0,-7.284174746E0,1.278518962E1,-1.507916225E0,1.479168979E1
9.455379375E0,-7.029358351E0,1.279456154E1,-1.666719001E0,1.469321735E1
9.465383375E0,-6.539873310E0,1.244920160E1,-1.435944602E0,1.413557569E1
9.475387375E0,-5.925526242E0,1.139025915E1,-1.191844398E0,1.289458637E1
9.485391375E0,-4.948944165E0,9.436002147E0,-1.062486520E0,1.070789720E1
9.495396375E0,-4.397769537E0,8.373250237E0,-1.173294107E0,9.530389052E0
9.505400375E0,-4.215710338E0,7.967679173E0,-1.012741844E0,9.070930002E0
9.515404375E0,-3.982202074E0,7.930518363E0,-6.166537216E-1,8.895578490E0
9.525408375E0,-3.728375612E0,7.905202258E0,-3.258999000E-1,8.746383149E0
9.535412375E0,-3.474744739E0,7.850429050E0,-1.448104618E-1,8.586271446E0
9.545417375E0,-3.533710400E0,7.981437671E0,-1.595091925E-1,8.730171801E0
9.555421375E0,-4.157046978E0,8.639079863E0,-4.014324045E-1,9.595618189E0
9.565425375E0,-4.534088599E0,9.158556442E0,-6.256029582E-1,1.023857874E1
9.575429375E0,-4.870481839E0,9.209879208E0,-7.335584197E-1,1.044421258E1
9.585434375E0,-5.162489158E0,9.119351445E0,-6.135115740E-1,1.049715493E1
9.595438375E0,-5.175424368E0,9.017909855E0,-2.819663335E-1,1.040130860E1
9.605442375E0,-5.064825454E0,9.115032107E0,-3.647668540E-2,1.042773215E1
9.615446375E0,-4.952658316E0,9.264701532E0,-2.005594969E-4,1.050540427E1
9.625451375E0,-4.706671508E0,9.358289142E0,7.287238687E-3,1.047522723E1
9.635455375E0,-4.519709419E0,9.298735251E0,7.111076698E-2,1.033921212E1
9.645459375E0,-4.410791871E0,9.133587661E0,3.025156420E-1,1.014736538E1
9.655463375E0,-4.209485100E0,8.926726035E0,6.500115021E-1,9.890840079E0
9.665468375E0,-3.799785025E0,8.513964066E0,7.651596236E-1,9.354753850E0
9.675472375E0,-3.590648248E0,8.353066233E0,2.894747432E-1,9.096717317E0
9.685476375E0,-3.292023343E0,7.583444014E0,-1.374499136E-1,8.268308974E0
9.695480375E0,-3.428068463E0,6.554734009E0,1.440964437E-1,7.398442748E0
9.705485375E0,-3.700055207E0,5.959901438E0,9.464173885E-1,7.078597288E0
9.715489375E0,-3.320269780E0,4.353563710E0,1.354240873E0,5.640184104E0
9.725493375E0,3.213744620E0,-4.596648252E0,4.855725514E0,7.418584764E0
9.735497375E0,5.736938101E1,-7.540886926E1,1.839303898E1,9.651967325E1
9.745501375E0,6.927521489E1,-1.332846987E2,2.805097629E1,1.528094355E2
9.755506375E0,2.339582080E1,-9.829207870E1,1.472386087E1,1.021052851E2
9.765510375E0,1.199143010E1,-4.067195972E1,2.073933132E0,4.245354994E1
9.775514375E0,8.808146256E0,-1.843521261E1,-3.498659559E0,2.072875112E1
9.785518375E0,2.585427385E0,-1.320330063E1,-1.083111564E1,1.727207713E1
9.795523375E0,5.135035311E0,-1.232477519E1,-1.506084409E1,2.012703892E1
9.805527375E0,8.313972334E0,-1.320912562E1,-1.321784382E1,2.045273896E1
9.815531375E0,7.520474764E0,-1.021734745E1,-1.013748150E1,1.623946615E1
9.825535708E0,5.372224690E0,-3.806088324E0,-4.928299400E0,8.224064775E0
9.835540708E0,2.784481516E0,1.779175576E0,-1.482054429E0,3.621503607E0
9.845544708E0,5.307766154E-1,3.789249512E0,-8.979441901E-1,3.930195854E0
9.855548708E0,-1.721116818E0,5.344460356E0,-6.617913759E-1,5.653624273E0
9.865552708E0,-2.690756496E0,7.635592407E0,-3.301485600E-1,8.102557621E0
9.875557708E0,-4.091223117E0,9.624289507E0,1.497238040E-2,1.045778558E1
9.885561708E0,-6.563245801E0,1.038096891E1,1.281923679E0,1.234844279E1
9.895565708E0,-7.750122989E0,1.055112289E1,1.758892170E0,1.320925063E1
9.905569708E0,-8.360089324E0,1.077663012E1,2.137774787E0,1.380568474E1
9.915573708E0,-9.240661874E0,1.155280005E1,2.897099474E0,1.507482027E1
9.925578708E0,-9.970186812E0,1.248658635E1,2.721922156E0,1.620889645E1
9.935582708E0,-1.112575450E1,1.138998550E1,2.471255529E0,1.611276782E1
9.945586708E0,-1.284560189E1,1.115420120E1,2.704736604E0,1.722618044E1
9.955590708E0,-1.295063542E1,1.117718661E1,2.718013877E0,1.732154894E1
9.965595708E0,-1.089540812E1,1.147535251E1,4.002460045E0,1.632217264E1
9.975599708E0,-9.170292388E0,1.208401725E1,4.671956881E0,1.587277280E1
9.985603708E0,-8.423509979E0,1.258532010E1,4.532753388E0,1.580796178E1
9.995607708E0,-7.306467841E0,1.226169776E1,3.009642588E0,1.458737992E1
1.000561271E1,-5.403635348E0,1.193464545E1,8.714321834E-1,1.312990598E1
1.001561671E1,-3.616949901E0,1.099710874E1,-1.033723993E0,1.162270676E1
1.002562071E1,-3.458183378E0,9.027977591E0,-2.002979509E0,9.872959970E0
1.003562471E1,-3.595335083E0,8.089604729E0,-2.503026960E0,9.199634938E0
1.004562971E1,-3.633428524E0,7.796693723E0,-2.531334500E0,8.966487060E0
1.005563371E1,-3.666282274E0,7.708334693E0,-2.183036329E0,8.810544653E0
1.006563771E1,-3.618766338E0,7.859317988E0,-1.742204216E0,8.826076397E0
1.007564171E1,-3.497208864E0,7.883889157E0,-1.372062017E0,8.733197139E0
1.008564671E1,-3.271237661E0,7.836051916E0,-1.206032156E0,8.576667128E0
1.009565071E1,-2.909951362E0,8.073074065E0,-9.970707214E-1,8.639241391E0
1.010565471E1,-2.521535152E0,8.539052129E0,-7.611811781E-1,8.936047648E0
1.011565871E1,-3.151824653E0,9.114594736E0,-4.591164295E-1,9.655082793E0
1.012566271E1,-4.520799340E0,9.636283316E0,-3.120483577E-2,1.064408552E1
1.013566771E1,-4.878030595E0,1.003921319E1,4.470371783E-1,1.117053384E1
1.014567171E1,-5.199516066E0,1.019314582E1,6.129471716E-1,1.145909653E1
1.015567571E1,-5.556002094E0,1.031687524E1,6.824811637E-1,1.173766819E1
1.016567971E1,-5.610232680E0,1.043724018E1,6.559944463E-1,1.186764602E1
1.017568471E1,-5.581763172E0,1.047823618E1,4.635496422E-1,1.188126221E1
1.018568871E1,-5.570236555E0,1.033032267E1,2.886032888E-1,1.173994862E1
1.019569271E1,-5.254491588E0,1.006044794E1,3.233251517E-1,1.135459527E1
1.020569671E1,-4.815597242E0,9.630425575E0,-9.721580744E-2,1.076775392E1
1.021570171E1,-5.246286775E0,8.714302538E0,-1.478958621E0,1.027861432E1
1.022570571E1,-5.210279621E0,7.750661518E0,-2.210265058E0,9.597137038E0
1.023570971E1,-4.603413773E0,7.070558417E0,-2.109587699E0,8.696814069E0
1.024571371E1,-4.248010650E0,6.558097327E0,-1.740866958E0,8.005301544E0
1.025571871E1,-4.329312091E0,5.304871198E0,-1.360593434E0,6.981104218E0
1.026572271E1,-4.268346681E0,2.638913913E0,-1.621120221E0,5.273583298E0
1.027572671E1,-1.174449809E0,-3.836875668E0,-8.857189777E-1,4.109190353E0
1.028573071E1,3.904719859E1,-5.309405129E1,8.457824364E0,6.644694721E1
1.029573471E1,6.199322817E1,-1.106357380E2,2.366134286E1,1.290088602E2
1.030573971E1,3.944211252E1,-1.049525064E2,1.904814699E1,1.137257259E2
1.031574371E1,2.301339184E1,-4.363784994E1,4.593512975E0,4.954773973E1
1.032574771E1,1.300225698E1,-1.314659667E1,-9.553141464E-1,1.851497544E1
1.033575171E1,8.505404912E0,-8.296499684E0,-2.579012112E0,1.215833554E1
1.034575671E1,8.333810767E0,-8.708297448E0,-1.303004061E0,1.212372327E1
1.035576071E1,7.335163636E0,-1.307669204E1,2.178512923E0,1.515092138E1
1.036576471E1,6.849834212E0,-1.528083155E1,4.163849044E0,1.725577238E1
1.037576871E1,7.214298765E0,-1.251337596E1,2.473586814E0,1.465432756E1
1.038577371E1,7.706598655E0,-7.940551600E0,1.077155503E0,1.111774647E1
1.039577771E1,7.932970101E0,-3.524579973E0,4.100946160E-1,8.690388725E0
1.040578171E1,7.700573684E0,4.788419384E-1,-5.294225465E-1,7.733589910E0
1.041578571E1,4.068081884E0,3.301520391E0,-9.121212029E-1,5.318015814E0
1.042579071E1,-1.096686226E-1,5.798387893E0,-9.857294619E-1,5.882600780E0
1.043579471E1,-2.530973142E0,8.209999484E0,-9.745332134E-1,8.646365222E0
1.044579871E1,-4.372556636E0,9.561800898E0,-6.801195464E-1,1.053612123E1
1.045580271E1,-6.628099024E0,1.010087910E1,9.670032421E-1,1.212000621E1
1.046580671E1,-7.713003695E0,1.077166700E1,1.846883994E0,1.337647997E1
1.047581171E1,-8.551117274E0,1.118338933E1,2.381739335E0,1.427804209E1
1.048581571E1,-1.136075994E1,1.091721004E1,2.698077210E0,1.598536713E1
1.049581971E1,-1.349822015E1,1.118205383E1,2.340358590E0,1.768382180E1
1.050582371E1,-1.395951986E1,1.076819258E1,1.378680480E0,1.768397371E1
1.051582871E1,-1.406539422E1,1.085211884E1,6.260969748E-1,1.777627057E1
1.052583271E1,-1.403443789E1,1.069759096E1,-3.046223938E-2,1.764666618E1
1.053583671E1,-1.316907220E1,1.049455342E1,2.126912999E-1,1.684058644E1
1.054584071E1,-1.120880484E1,1.056542986E1,2.431581440E-1,1.540534777E1
1.055584571E1,-8.770755651E0,1.096305689E1,3.587728002E-1,1.404434011E1
1.056584971E1,-6.870736839E0,1.159900241E1,-3.264026874E-1,1.348519263E1
1.057585371E1,-5.653040146E0,1.209520882E1,-2.150787181E0,1.352319581E1
1.058585771E1,-4.381379207E0,1.214066274E1,-2.844093295E0,1.321669558E1
1.059586271E1,-3.089035497E0,1.162173170E1,-2.506714214E0,1.228374553E1
1.060586671E1,-2.837343269E0,9.473252419E0,-2.161110440E0,1.012242197E1
1.061587071E1,-3.388199515E0,7.926307198E0,-1.978602321E0,8.844269834E0
1.062587471E1,-3.413770851E0,7.884563926E0,-1.435360319E0,8.710937893E0
1.063587971E1,-3.270605577E0,7.996608272E0,-8.617835467E-1,8.682469440E0
1.064588371E1,-3.142159498E0,8.033548057E0,-6.346393184E-1,8.649498700E0
1.065588771E1,-2.892663484E0,8.020356154E0,-6.986183826E-1,8.554629303E0
1.066589171E1,-2.569017174E0,8.084906491E0,-6.167216223E-1,8.505639762E0
1.067589571E1,-2.229596830E0,8.260371493E0,-4.090022830E-1,8.565752862E0
1.068590071E1,-1.736122527E0,8.816386153E0,-2.674399495E-1,8.989677989E0
1.069590471E1,-2.466248558E0,9.871709175E0,-2.504322995E-1,1.017819927E1
1.070590871E1,-3.482462771E0,1.074269755E1,-1.751124144E-2,1.129306886E1
1.071591271E1,-3.955631449E0,1.121789258E1,3.754730328E-1,1.190080309E1
1.072591771E1,-4.296924363E0,1.140097826E1,6.363928252E-1,1.220044508E1
1.073592171E1,-4.272342668E0,1.145597600E1,5.859564972E-1,1.224073703E1
1.074592571E1,-4.102316162E0,1.138607839E1,4.955917992E-1,1.211269541E1
1.075592971E1,-3.678909044E0,1.106851727E1,6.276014634E-1,1.168076753E1
1.076593471E1,-3.172144312E0,1.023892367E1,7.070026320E-1,1.074234194E1
1.077593871E1,-2.950893273E0,9.340434085E0,2.488668537E-1,9.798643514E0
1.078594271E1,-3.441736037E0,8.278155214E0,-3.361938500E-1,8.971422797E0
1.079594671E1,-3.648738289E0,7.423248432E0,-2.682872842E-1,8.275861674E0
1.080595171E1,-3.813176318E0,6.778021633E0,5.122026426E-1,7.793859278E0
1.081595571E1,-3.901010853E0,5.800354897E0,8.472346509E-1,7.041293145E0
1.082595921E1,-4.030883945E0,2.020652719E0,-6.128408253E-2,4.509414432E0
1.083596321E1,3.259025458E0,-1.003422318E1,6.259929675E-1,1.056876289E1
1.084596721E1,5.000262370E1,-7.558978679E1,1.458377679E1,9.179741167E1
1.085597221E1,5.781601473E1,-1.262343973E2,2.704201116E1,1.414534729E2
1.086597621E1,2.263399642E1,-9.665792693E1,1.656371300E1,1.006449662E2
1.087598021E1,8.618814583E0,-3.722939514E1,3.227865061E0,3.835011004E1
1.088598421E1,7.550732351E0,-1.598872822E1,-1.691142528E0,1.776268426E1
1.089598921E1,3.755411675E0,-1.301666686E1,-2.911258507E0,1.385684521E1
1.090599321E1,1.418739462E0,-1.458522339E1,-2.394481587E0,1.484840412E1
1.091599721E1,4.210853056E0,-1.402078114E1,-3.447086824E0,1.503981365E1
1.092600121E1,7.628435415E0,-1.112749112E1,-3.537818362E0,1.394740995E1
1.093600621E1,1.109510339E1,-6.972115279E0,-4.215687827E0,1.376530910E1
1.094601021E1,1.343977021E1,-3.371082961E0,-8.704226031E0,1.636322629E1
1.095601421E1,6.982672427E0,-1.304360615E0,-6.531596577E0,9.649913195E0
1.096601821E1,1.527704957E-1,2.899237801E0,-2.588639845E-1,2.914777730E0
1.097602221E1,-2.459469589E0,6.291768349E0,1.892282946E0,7.015416906E0
1.098602721E1,-2.729683457E0,9.048440507E0,2.486393386E0,9.772798957E0
1.099603121E1,-3.981984265E0,1.055615851E1,2.915729873E0,1.165290358E1
1.100603521E1,-5.276395258E0,1.101155370E1,3.360121771E0,1.266432312E1
1.101603921E1,-6.413403883E0,1.107393180E1,3.627575169E0,1.330124116E1
1.102604421E1,-7.204929771E0,1.178746518E1,3.897311904E0,1.435424636E1
1.103604821E1,-8.463264028E0,1.269470630E1,4.241735126E0,1.583586824E1
1.104605221E1,-1.091363623E1,1.174817306E1,4.494811975E0,1.665323875E1
1.105605621E1,-1.473165989E1,1.141139566E1,5.372516466E0,1.939344444E1
1.106606121E1,-1.595849695E1,1.147703650E1,5.611933050E0,2.044235271E1
1.107606521E1,-1.391062193E1,1.161250246E1,4.722328305E0,1.872581108E1
1.108606921E1,-1.203458255E1,1.152582333E1,3.295267378E0,1.698630530E1
1.109607321E1,-1.005212618E1,1.120834525E1,1.972076390E0,1.518424609E1
1.110607821E1,-8.028697792E0,1.097656396E1,8.310770398E-1,1.362481683E1
1.111608221E1,-6.175555522E0,1.138675433E1,-6.643015856E-1,1.297061898E1
1.112608621E1,-4.671015772E0,1.179529344E1,-2.027116815E0,1.284743314E1
1.113609021E1,-3.292777634E0,1.193944835E1,-2.671864727E0,1.267010942E1
1.114609521E1,-2.577252977E0,1.105560194E1,-2.560811484E0,1.163728159E1
1.115609921E1,-2.938726095E0,9.374239762E0,-2.470860257E0,1.013003616E1
1.116610321E1,-3.073020266E0,8.410820936E0,-2.394152389E0,9.269160050E0
1.117610721E1,-3.144416231E0,8.004487395E0,-1.834729387E0,8.793486443E0
1.118611121E1,-3.036216429E0,7.942741383E0,-1.450333430E0,8.626077784E0
1.119611621E1,-2.796568880E0,7.903984868E0,-1.304298635E0,8.484984928E0
1.120612021E1,-2.639859700E0,7.908074411E0,-1.521215717E0,8.474703380E0
1.121612421E1,-2.719452584E0,7.861455145E0,-1.837847707E0,8.519130445E0
1.122612821E1,-3.063041115E0,7.714684185E0,-1.800728998E0,8.493597463E0
1.123613321E1,-3.837025357E0,7.832725435E0,-1.336399264E0,8.823849179E0
1.124613721E1,-4.868150555E0,8.678940917E0,-6.244181661E-1,9.970596938E0
1.125614121E1,-5.128862990E0,9.392039271E0,-2.010506630E-2,1.070121682E1
1.126614521E1,-5.085719894E0,9.721759084E0,3.975194478E-1,1.097885095E1
1.127615021E1,-4.911303298E0,9.799657445E0,6.293119933E-1,1.097953641E1
1.128615421E1,-4.574927015E0,9.718188189E0,4.349825585E-1,1.074999296E1
1.129615821E1,-4.073097918E0,9.629461954E0,1.390720774E-1,1.045638586E1
1.130616221E1,-3.332163894E0,9.542796863E0,-1.720192373E-2,1.010784765E1
1.131616721E1,-2.598773362E0,9.328147330E0,-1.540823185E-1,9.684611348E0
1.132617121E1,-2.388281785E0,8.899750491E0,-6.210064620E-1,9.235534511E0
1.133617521E1,-2.935110761E0,7.831913257E0,-1.744076641E0,8.543742961E0
1.134617921E1,-3.237695985E0,7.313790309E0,-2.354112995E0,8.337628678E0
1.135618421E1,-3.546588308E0,7.170055808E0,-1.453820125E0,8.130287933E0
1.136618821E1,-3.508282321E0,6.777839785E0,-7.647779466E-1,7.670204841E0
1.137619221E1,-3.172904158E0,5.963986303E0,-6.992539018E-1,6.791568997E0
1.138619621E1,-2.783040470E0,3.784124427E0,-1.144905948E0,4.834844524E0
1.139620021E1,1.134858370E1,-1.436471436E1,2.443017424E0,1.846899306E1
1.140620521E1,6.435533957E1,-9.274896503E1,2.114978364E1,1.148533569E2
1.141620921E1,5.728158857E1,-1.329539989E2,2.801417625E1,1.474541972E2
1.142621321E1,2.209748398E1,-9.388484047E1,1.490225240E1,9.759477033E1
1.143621721E1,1.200195860E1,-3.195851146E1,5.978140658E-1,3.414309369E1
1.144622221E1,5.991136095E0,-1.320970917E1,-2.840802189E0,1.478040207E1
1.145622621E1,1.138180115E0,-8.964463965E0,-4.460548460E0,1.007737866E1
1.146623021E1,-1.945783800E-1,-9.268987541E0,-7.550299072E0,1.195654661E1
1.147623421E1,2.159790723E0,-1.088263663E1,-7.183703209E0,1.321749098E1
1.148623921E1,3.775049549E0,-8.914503016E0,-3.429130025E0,1.027026270E1
1.149624321E1,4.411681817E0,-4.194597797E0,-2.169924679E0,6.462674388E0
1.150624721E1,7.829995955E0,4.905948418E-1,-5.641804136E0,9.663305535E0
1.151625121E1,6.343897446E0,3.724291624E0,-7.203398386E0,1.029584048E1
1.152625621E1,-1.454941913E0,5.675082394E0,-3.247314363E0,6.698392846E0
1.153626021E1,-3.636394232E0,8.527535453E0,-4.618746342E-1,9.282001513E0
1.154626421E1,-4.061165505E0,9.997371687E0,-1.638857603E-2,1.079077265E1
1.155626821E1,-4.640739766E0,1.049388800E1,1.365833563E-1,1.147505146E1
1.156627221E1,-6.138143867E0,1.051527712E1,7.801600707E-1,1.220067673E1
1.157627721E1,-7.249122443E0,1.062571348E1,1.823402746E0,1.299154959E1
1.158628121E1,-8.466562443E0,1.130627676E1,2.452407614E0,1.433627835E1
1.159628521E1,-1.050499304E1,1.136684456E1,2.527094684E0,1.568267329E1
1.160628921E1,-1.298888089E1,1.096480872E1,2.485840824E0,1.717898314E1
1.161629421E1,-1.466541327E1,1.106223386E1,2.254628468E0,1.850758531E1
1.162629821E1,-1.423176505E1,1.097366140E1,1.695118343E0,1.805097801E1
1.163630221E1,-1.198794165E1,1.099405532E1,1.374852308E0,1.632391547E1
1.164630621E1,-1.064073264E1,1.099006986E1,9.496076294E-1,1.532672768E1
1.165631121E1,-8.916461248E0,1.117003196E1,3.521397553E-1,1.429674430E1
1.166631521E1,-6.726469072E0,1.112725489E1,1.841364223E-1,1.300365694E1
1.167631921E1,-5.177869674E0,1.120356574E1,-7.956532918E-2,1.234246937E1
1.168632321E1,-4.353872443E0,1.089320489E1,-1.644335713E-1,1.173222725E1
1.169632821E1,-3.971147620E0,1.072262523E1,-2.911098439E-2,1.143440216E1
1.170633221E1,-3.670409532E0,1.004349803E1,2.589318853E-2,1.069319547E1
1.171633621E1,-3.719577306E0,8.898260620E0,-1.186453046E-1,9.645121778E0
1.172634021E1,-3.845603807E0,8.378099332E0,-2.120416743E-1,9.220964089E0
1.173634521E1,-3.778739142E0,8.341960031E0,-1.226716242E-1,9.158723437E0
1.174634921E1,-3.617947143E0,8.225596347E0,2.572076876E-2,8.986135897E0
1.175635321E1,-3.428771298E0,8.057598825E0,1.031203623E-1,8.757397173E0
1.176635721E1,-3.377840003E0,7.863558388E0,-4.711211286E-2,8.558479606E0
1.177636121E1,-3.518194229E0,7.665849994E0,-4.638683154E-1,8.447373590E0
1.178636621E1,-4.056875111E0,7.774591833E0,-1.019905853E0,8.828517530E0
1.179637021E1,-5.359947876E0,8.163610014E0,-1.367864885E0,9.861268886E0
1.180637421E1,-6.392604167E0,8.663383230E0,-1.213947531E0,1.083481729E1
1.181637821E1,-6.629802318E0,8.896467279E0,-7.178276554E-1,1.111830407E1
1.182638433E1,-6.528010479E0,8.987858090E0,-2.756746564E-1,1.111181850E1
1.183638833E1,-6.396634068E0,8.986846522E0,-3.189663447E-2,1.103092721E1
1.184639233E1,-6.064113439E0,9.026112329E0,4.311736822E-2,1.087409926E1
1.185639633E1,-5.085527521E0,9.343135498E0,4.874940634E-2,1.063762885E1
1.186640133E1,-4.351369835E0,9.447669681E0,-1.591436684E-2,1.040159291E1
1.187640533E1,-3.572824180E0,8.731675200E0,-3.082049829E-1,9.439396948E0
1.188640933E1,-2.940867053E0,7.961178823E0,-9.483282586E-1,8.539812279E0
1.189641333E1,-3.123480568E0,7.523733417E0,-8.747555946E-1,8.193161340E0
1.190641833E1,-3.354586796E0,7.364893219E0,-5.632247154E-1,8.112467367E0
1.191642233E1,-3.244284628E0,6.719469370E0,-1.082565785E0,7.539801061E0
1.192642633E1,-2.903493989E0,5.282650609E0,-1.106773258E0,6.128753694E0
1.193643033E1,8.769899619E0,-1.019201497E1,9.668569887E-1,1.348047184E1
1.194643433E1,5.764156656E1,-8.156355958E1,1.811870633E1,1.015059208E2
1.195643933E1,6.181904195E1,-1.279950548E2,2.749085981E1,1.447759489E2
1.196644333E1,3.292649463E1,-9.738046503E1,1.879782301E1,1.045010391E2
1.197644733E1,1.809945730E1,-3.254418262E1,5.700144145E0,3.767234821E1
1.198645133E1,1.181421269E1,-1.098147328E1,9.971658848E-1,1.616052959E1
1.199645633E1,5.445845813E0,-5.794211812E0,-3.052443622E0,8.517484324E0
1.200646033E1,3.122747619E0,-4.698991483E0,-1.004612343E1,1.152200806E1
1.201646433E1,4.637116539E0,-6.894062551E0,-1.080188892E1,1.362760993E1
1.202646833E1,5.617018374E0,-5.473050569E0,-6.311263551E0,1.006663924E1
1.203647333E1,4.479800710E0,-1.517920811E0,-3.703568507E0,6.007421883E0
1.204647733E1,1.364316795E0,1.398549319E0,-3.347692344E0,3.876124939E0
1.205648133E1,-2.005749628E0,3.905798553E0,-2.495630817E0,5.050392765E0
1.206648533E1,-3.636726938E0,6.217430357E0,-1.406634849E0,7.338994800E0
1.207649033E1,-4.528543977E0,7.864621412E0,-1.014575969E0,9.131776657E0
1.208649433E1,-6.156209425E0,8.693045570E0,-6.417441970E-1,1.067144748E1
1.209649833E1,-7.599973508E0,9.166743713E0,-4.385610545E-1,1.191558322E1
1.210650233E1,-8.476412078E0,9.409400239E0,-8.043137491E-2,1.266462963E1
1.211650633E1,-1.014940046E1,9.209911367E0,2.418875440E-1,1.370734499E1
1.212651133E1,-1.370175237E1,9.375281151E0,2.669622320E-1,1.660437242E1
1.213651533E1,-1.535552739E1,1.006430710E1,-1.940296188E-2,1.835981687E1
1.214651933E1,-1.385753389E1,9.608648205E0,1.859969332E-1,1.686392483E1
1.215652333E1,-1.196305356E1,1.027997347E1,2.828567183E-1,1.577569374E1
1.216652833E1,-1.097254225E1,1.093269815E1,5.743171028E-1,1.550001330E1
1.217653233E1,-8.204678518E0,1.123669021E1,1.206433201E0,1.396550886E1
1.218653633E1,-6.852209351E0,1.170095563E1,1.196311086E0,1.361235820E1
1.219654033E1,-6.125647198E0,1.200930153E1,1.262192250E0,1.354031041E1
1.220654533E1,-5.716200015E0,1.194799698E1,1.018261616E0,1.328406682E1
1.221654933E1,-5.190000308E0,1.187472084E1,6.362266912E-1,1.297497140E1
1.222655333E1,-4.258554349E0,1.177166367E1,3.352523752E-1,1.252276906E1
1.223655733E1,-3.578372018E0,1.078858650E1,1.141311445E-1,1.136711797E1
1.224656233E1,-3.940168487E0,9.043295542E0,-6.421302594E-2,9.864595546E0
1.225656633E1,-3.722441272E0,8.630524802E0,-1.190792046E-1,9.399824851E0
1.226657033E1,-3.459587002E0,8.874648394E0,7.864746250E-2,9.525455987E0
1.227657433E1,-3.174185283E0,9.483046505E0,2.296991692E-1,1.000281885E1
1.228657833E1,-3.114744827E0,1.000285404E1,1.431356730E-1,1.047755754E1
1.229658333E1,-3.324461941E0,1.009801279E1,-1.226769233E-1,1.063188408E1
1.230658733E1,-3.548251256E0,1.003295433E1,-3.735412589E-1,1.064846434E1
1.231659133E1,-3.792096521E0,9.918828378E0,-6.573575053E-1,1.063932664E1
1.232659533E1,-3.913863325E0,9.700831314E0,-9.847993161E-1,1.050686842E1
1.233660033E1,-3.950497593E0,9.346966594E0,-1.312368377E0,1.023203433E1
1.234660433E1,-3.639344152E0,9.142046828E0,-1.677308893E0,9.981743895E0
1.235660833E1,-2.981796100E0,9.091463735E0,-1.996777806E0,9.774095479E0
1.236661233E1,-2.268396614E0,8.917757576E0,-2.302334731E0,9.485397651E0
1.237661733E1,-1.845970659E0,8.829887373E0,-2.596271923E0,9.386966848E0
1.238662133E1,-1.572284714E0,8.853881423E0,-2.863301398E0,9.437255447E0
1.239662533E1,-1.413940945E0,8.755069326E0,-2.941167015E0,9.343496738E0
1.240662933E1,-1.415447772E0,8.719674375E0,-2.701052274E0,9.237526562E0
1.241663433E1,-1.448679107E0,8.452804529E0,-2.968648051E0,9.075320755E0
1.242663833E1,-1.704089287E0,8.163464418E0,-3.121236406E0,8.904391518E0
1.243664233E1,-1.942049329E0,7.640412852E0,-2.642020538E0,8.314309151E0
1.244664633E1,-3.763692502E0,4.561387787E0,-1.375838295E0,6.071620114E0
1.245665133E1,6.817365208E-1,-1.706464514E1,6.192726164E-1,1.708948147E1
1.246665533E1,3.029310750E1,-8.286283896E1,1.501225841E1,8.949463864E1
1.247665933E1,3.513771980E1,-1.250517816E2,2.357563203E1,1.320167333E2
1.248666333E1,1.881764273E1,-9.224170738E1,1.600942737E1,9.549313076E1
1.249666733E1,6.001568112E0,-3.558097617E1,3.920313097E0,3.629591629E1
1.250667233E1,-7.309168670E-1,-1.823949577E1,1.441070271E0,1.831092922E1
1.251667633E1,-6.046130912E0,-1.648143917E1,1.265744141E0,1.760101260E1
1.252668033E1,-1.045285809E1,-1.877491128E1,2.294021014E0,2.161069338E1
1.253668433E1,-7.210896270E0,-1.711266013E1,6.688302541E-1,1.858191314E1
1.254668933E1,1.066777718E-1,-1.144995922E1,-1.569070792E0,1.155746207E1
1.255669333E1,3.894627740E0,-6.030000783E0,-1.787723767E0,7.397634145E0
1.256669733E1,6.746074201E0,-1.415334336E0,-2.126172157E0,7.213410875E0
1.257670133E1,8.280102922E0,2.528561166E0,-3.090453447E0,9.192639908E0
1.258670633E1,4.663755284E0,4.362207064E0,-2.376784551E0,6.813851233E0
1.259671033E1,1.318161506E0,5.972225615E0,-1.408048705E0,6.275956477E0
1.260671433E1,-9.650686178E-1,7.688126716E0,-8.389609869E-1,7.793747839E0
1.261671833E1,-1.505667971E0,9.661352084E0,-2.954008962E-1,9.782434350E0
1.262672233E1,-2.412915812E0,1.084832751E1,6.160695847E-1,1.113049478E1
1.263672733E1,-3.877122346E0,1.146260324E1,1.428613363E0,1.218459219E1
1.264673133E1,-5.094950309E0,1.215640812E1,1.870671637E0,1.331300828E1
1.265673533E1,-4.979581236E0,1.178165305E1,1.601901885E0,1.289068142E1
1.266673933E1,-6.496264191E0,1.201002658E1,2.487892612E0,1.387918573E1
1.267674433E1,-8.833481072E0,1.204688860E1,4.066535003E0,1.548207414E1
1.268674833E1,-1.157346060E1,1.163418627E1,5.369768275E0,1.726654835E1
1.269675233E1,-1.228981585E1,1.136409870E1,5.402340775E0,1.758884871E1
1.270675633E1,-1.164643502E1,1.208782496E1,5.777341425E0,1.775197552E1
1.271676133E1,-1.021053427E1,1.291661047E1,5.677987876E0,1.741646872E1
1.272676533E1,-8.164058495E0,1.302412791E1,4.070203546E0,1.590114196E1
1.273676933E1,-6.054890041E0,1.294893973E1,1.938885255E0,1.442553325E1
1.274677333E1,-4.638626583E0,1.212523544E1,4.149055588E-1,1.298885437E1
1.275677833E1,-2.970748664E0,1.245098383E1,-3.156203852E-1,1.280437277E1
1.276678233E1,-1.958030793E0,1.174995413E1,-8.956343937E-1,1.194560453E1
1.277678633E1,-2.884123041E0,9.155252765E0,-1.312642027E0,9.688129231E0
1.278679033E1,-3.201730931E0,8.245330700E0,-1.280647817E0,8.937371993E0
1.279679533E1,-3.170043700E0,8.125144690E0,-7.882672352E-1,8.757198098E0
1.280679933E1,-2.992797052E0,8.244398654E0,-4.782747585E-1,8.783831174E0
1.281680333E1,-2.721356145E0,8.458197416E0,-5.785065597E-1,8.904018904E0
1.282680637E1,-2.548636704E0,8.670530282E0,-9.598402568E-1,9.088175710E0
1.283681137E1,-2.588236387E0,9.066303751E0,-1.420674598E0,9.534943503E0
1.284681538E1,-3.236549931E0,9.555347911E0,-1.750941126E0,1.023942010E1
1.285681937E1,-3.652633119E0,9.961316586E0,-1.705752089E0,1.074612242E1
1.286682337E1,-3.563743162E0,1.015196739E1,-1.458824172E0,1.085775645E1
1.287682738E1,-3.219220830E0,1.018724598E1,-1.188958286E0,1.074974350E1
1.288683237E1,-3.031609700E0,1.006026434E1,-9.381413126E-1,1.054891867E1
1.289683638E1,-2.763034221E0,9.893134543E0,-7.874275019E-1,1.030186931E1
1.290684038E1,-2.541672085E0,9.793452964E0,-6.877606148E-1,1.014124414E1
1.291684437E1,-2.385192408E0,9.680827405E0,-5.188806745E-1,9.983826883E0
1.292684938E1,-2.460726448E0,9.571995519E0,-2.534890046E-1,9.886482162E0
1.293685337E1,-2.707527772E0,9.398839583E0,-2.962835334E-2,9.781092474E0
1.294685737E1,-2.803932571E0,8.576795322E0,-1.260349792E-1,9.024374808E0
1.295686138E1,-2.826533814E0,8.143835315E0,-5.853260943E-1,8.640251945E0
1.296686637E1,-3.221337815E0,7.822222082E0,-5.125376880E-2,8.459716459E0
1.297687037E1,-3.671537459E0,7.063225424E0,1.343701267E0,8.073095676E0
1.298687438E1,-4.190697704E0,5.313281833E0,2.269842339E0,7.137583297E0
1.299687837E1,-3.865547490E0,2.505041326E0,3.321139553E0,5.678702085E0
1.300688237E1,1.665561837E0,-2.354090191E0,6.857346715E0,7.439021497E0
1.301688738E1,4.856701999E1,-7.130918522E1,1.889578258E1,8.832217121E1
1.302689137E1,6.188716903E1,-1.367111951E2,2.858131641E1,1.527640802E2
1.303689538E1,2.202049486E1,-9.570640251E1,1.597127896E1,9.949723327E1
1.304689938E1,8.422252243E0,-4.027529865E1,4.818674047E0,4.142769163E1
1.305690437E1,8.641815190E0,-1.516823640E1,1.463107842E0,1.751847738E1
1.306690838E1,5.051314877E0,-8.533875589E0,-1.282397742E0,9.999367907E0
1.307691237E1,4.896063700E0,-6.903040366E0,-4.805023722E0,9.731991524E0
1.308691637E1,1.083090514E1,-6.831007932E0,-7.625776101E0,1.490381282E1
1.309692138E1,1.703620545E1,-6.949822769E0,-1.735585636E1,2.529343952E1
1.310692537E1,1.265595212E1,-6.707878434E0,-1.784779664E1,2.288476791E1
1.311692937E1,2.998427921E0,-3.117988570E0,-5.782644265E0,7.221592443E0
1.312693338E1,-7.220983887E-1,3.492251303E0,-1.318074236E-1,3.568559715E0
1.313693737E1,-2.263490801E0,6.512911799E0,1.429823737E0,7.041719010E0
1.314694237E1,-3.689991564E0,8.017792150E0,1.456829687E0,8.945578877E0
1.315694638E1,-5.299584730E0,9.130527229E0,2.235002874E0,1.079107796E1
1.316695037E1,-6.876950090E0,9.667784021E0,3.542642022E0,1.238179320E1
1.317695437E1,-8.281596301E0,9.922502768E0,3.527516445E0,1.339717398E1
1.318695937E1,-9.518446133E0,1.003974178E1,2.926660073E0,1.414081225E1
1.319696337E1,-1.252106622E1,1.040249018E1,3.393237476E0,1.662837820E1
1.320696738E1,-1.445269508E1,1.063733424E1,3.619752179E0,1.830671681E1
1.321697137E1,-1.559951416E1,9.531372573E0,2.712923291E0,1.848112166E1
1.322697637E1,-1.425623448E1,9.117539978E0,2.337133266E0,1.708308955E1
1.323698038E1,-1.043190869E1,9.641638781E0,2.333981616E0,1.439560306E1
1.324698437E1,-6.655865697E0,1.072615812E1,2.628833313E0,1.289425379E1
1.325698837E1,-4.286787630E0,1.215263082E1,2.165677700E0,1.306725464E1
1.326699338E1,-2.480616044E0,1.326252357E1,1.295567572E0,1.355457423E1
1.327699737E1,1.038010879E-1,1.684504711E1,1.482141699E0,1.691044443E1
1.328700137E1,8.440686759E-1,1.861393158E1,1.055210756E0,1.866291431E1
1.329700538E1,-1.786486057E0,1.397196390E1,-8.383585775E-1,1.411063970E1
1.330700937E1,-1.935948929E0,1.072979977E1,-2.182468565E0,1.111933767E1
1.331701438E1,-1.515741992E0,9.463232630E0,-2.789996025E0,9.981699425E0
1.332701838E1,-1.729451877E0,8.651263706E0,-2.449514412E0,9.156172146E0
1.333702237E1,-1.845030281E0,8.374366470E0,-1.700415920E0,8.742171630E0
1.334702638E1,-1.815196617E0,8.398705505E0,-9.728679264E-1,8.647523630E0
1.335703137E1,-1.676927655E0,8.487871451E0,-3.554832298E-1,8.659238792E0
1.336703537E1,-1.488366644E0,8.658870349E0,-7.181078833E-2,8.786149770E0
1.337703938E1,-1.114427409E0,9.029623582E0,-4.708468577E-2,9.098256287E0
1.338704337E1,-7.778757097E-1,9.472013978E0,1.236746410E-2,9.503909321E0
1.339704837E1,-5.618649454E-1,9.838594054E0,2.151494511E-1,9.856972885E0
1.340705238E1,-4.896065162E-1,1.017935926E1,5.574407959E-1,1.020636124E1
1.341705637E1,-5.815324938E-1,1.045197750E1,9.615336835E-1,1.051221008E1
1.342706037E1,-9.298074223E-1,1.047727256E1,1.269070914E0,1.059473091E1
1.343706538E1,-1.481643662E0,1.039705811E1,1.415633129E0,1.059707990E1
1.344706937E1,-1.862866043E0,1.013308205E1,1.439540640E0,1.040297549E1
1.345707338E1,-2.015819264E0,9.953612294E0,1.411854658E0,1.025335353E1
1.346707738E1,-2.272817256E0,9.368251044E0,1.322623808E0,9.730321661E0
1.347708137E1,-2.883030488E0,8.707677643E0,1.232828702E0,9.255019251E0
1.348708638E1,-3.451003582E0,7.877467745E0,1.720629745E0,8.770660780E0
1.349709037E1,-3.566655368E0,6.446022575E0,3.075220866E0,7.983058369E0
1.350709437E1,-3.397764975E0,4.888388060E0,4.180363335E0,7.274378480E0
1.351709838E1,-4.458465975E0,9.514636087E-1,5.438595850E0,7.096585564E0
1.352710337E1,1.153838198E1,-3.780770348E1,9.966225908E0,4.076619138E1
1.353710737E1,2.477059007E1,-1.113189080E2,2.107615316E1,1.159727798E2
1.354711138E1,7.408315812E0,-1.191834411E2,2.085917235E1,1.212216188E2
1.355711537E1,9.842061453E0,-7.121635483E1,3.847142794E0,7.199608237E1
1.356712037E1,8.623446162E0,-2.459725287E1,-3.194275731E0,2.626008511E1
1.357712438E1,6.231899292E0,-9.771041172E0,-7.004156266E0,1.354134481E1
1.358712837E1,9.371807320E0,-6.057711908E0,-2.157570886E1,2.429069491E1
1.359713237E1,9.686168252E0,-7.960521596E0,-2.183120178E1,2.517524837E1
1.360713638E1,5.354804081E0,-8.932141142E0,-3.904418026E0,1.112211995E1
1.361714137E1,2.644690669E0,-3.360486637E0,-4.682036896E0,6.341035300E0
1.362714538E1,2.977327074E0,1.109726102E0,-7.916562229E0,8.530411833E0
1.363714937E1,9.228637075E-1,3.418581648E0,-4.735543597E0,5.913015396E0
1.364715337E1,-1.158232556E0,4.269428709E0,-1.164823245E0,4.574531380E0
1.365715838E1,-2.664707150E0,5.657372348E0,2.648421778E-1,6.259126733E0
1.366716237E1,-3.656809493E0,7.536199096E0,3.279674023E-1,8.382965770E0
1.367716637E1,-4.392526047E0,9.296338477E0,6.415243417E-1,1.030183225E1
1.368717038E1,-5.356353008E0,1.087849914E1,1.339885374E0,1.219948990E1
1.369717537E1,-6.789003289E0,1.217015375E1,1.913963837E0,1.406650154E1
1.370717937E1,-7.913079042E0,1.302688545E1,1.752854919E0,1.534239437E1
1.371718338E1,-8.265262688E0,1.263810993E1,5.069162480E-1,1.510937967E1
1.372718737E1,-9.538788596E0,1.131983528E1,9.188069093E-1,1.483143165E1
1.373719137E1,-1.144793842E1,1.124230354E1,1.628591062E0,1.612752281E1
1.374719638E1,-1.250906539E1,1.156820629E1,2.703171889E0,1.725129711E1
1.375720037E1,-1.048311159E1,1.229295581E1,2.894355960E0,1.641309500E1
1.376720438E1,-7.141240729E0,1.269517291E1,2.355749046E0,1.475514446E1
1.377720837E1,-5.126220049E0,1.286445682E1,2.116646458E0,1.400901758E1
1.378721337E1,-3.151736945E0,1.324448140E1,1.969787790E0,1.375608219E1
1.379721738E1,-1.916700188E0,1.344981222E1,1.734691129E0,1.369599729E1
1.380722137E1,-1.679000347E0,1.280241318E1,1.493012842E0,1.299807343E1
1.381722537E1,-1.390282525E0,1.147044786E1,1.390024663E0,1.163770717E1
1.382723121E1,-1.040502231E0,1.039633540E1,1.220579370E0,1.051932738E1
1.383723521E1,-1.096397374E0,9.641800749E0,8.078290951E-1,9.737504646E0
1.384723921E1,-1.085044274E0,9.106231463E0,4.367273676E-1,9.181040427E0
1.385724321E1,-6.832611823E-1,8.832218658E0,4.800797939E-2,8.858737892E0
1.386724821E1,9.090300724E-3,8.973077499E0,-3.185650796E-1,8.978735219E0
1.387725221E1,6.962189046E-1,9.298811265E0,-4.650214595E-1,9.336426332E0
1.388725621E1,1.168987705E0,9.660252222E0,-3.729143278E-1,9.737867855E0
1.389726021E1,1.567345571E0,9.948857338E0,-4.226349932E-1,1.008042434E1
1.390726421E1,1.840981376E0,1.037290093E1,-5.775505400E-1,1.055082227E1
1.391726921E1,1.617828238E0,1.074214558E1,-8.412196201E-1,1.089581159E1
1.392727321E1,6.901139729E-2,1.088979128E1,-8.661147255E-1,1.092439799E1
1.393727721E1,-5.199946421E-1,1.113509016E1,-5.035668167E-1,1.115859341E1
1.394728121E1,-7.166261988E-1,1.116695866E1,-1.230991653E-1,1.119060643E1
1.395728621E1,-1.113746793E0,1.066995001E1,2.738268632E-1,1.073141399E1
1.396729021E1,-1.406945190E0,1.002824148E1,3.930083209E-1,1.013408000E1
1.397729421E1,-1.543739777E0,9.504460763E0,1.130119874E-1,9.629676973E0
1.398729821E1,-1.530647276E0,8.308787023E0,-1.229312772E-1,8.449493178E0
1.399730221E1,-1.615544316E0,7.350894985E0,3.557351717E-1,7.534732114E0
1.400730721E1,-1.578898646E0,6.789244194E0,8.422446370E-1,7.021120544E0
1.401731121E1,-1.798952321E0,5.270488985E0,6.078648448E-1,5.602123103E0
1.402731521E1,2.606187631E0,-1.465409189E1,2.829776972E0,1.515065216E1
1.403731921E1,1.668752312E1,-6.527879268E1,1.120684369E1,6.830364226E1
1.404732421E1,1.477388263E1,-9.619900938E1,1.576301517E1,9.859507929E1
1.405732821E1,1.278561296E1,-9.109662609E1,1.338057066E1,9.295755405E1
1.406733221E1,8.002732061E0,-4.870304026E1,3.304545155E0,4.946665412E1
1.407733621E1,5.280124027E0,-2.040777899E1,8.993938610E-1,2.109895880E1
1.408734121E1,3.499390168E0,-1.363687518E1,9.925557938E-1,1.411365520E1
1.409734521E1,1.427655297E0,-1.589398579E1,2.119201106E0,1.609807433E1
1.410734921E1,-1.539224557E0,-2.185383285E1,4.267785641E0,2.231979428E1
1.411735321E1,-2.003509267E0,-2.244427533E1,2.284432019E0,2.264902148E1
1.412735721E1,1.029824192E0,-1.645508226E1,-6.106349632E-1,1.649858010E1
1.413736221E1,3.228791260E0,-1.007458534E1,-1.174357131E0,1.064431667E1
1.414736621E1,4.547124382E0,-4.939935359E0,-2.015633030E0,7.010141084E0
1.415737021E1,7.600395092E0,-6.264040267E-1,-6.067300757E0,9.745282245E0
1.416737421E1,6.251105642E0,2.657428536E0,-7.634769704E0,1.021899978E1
1.417737921E1,1.879635565E0,5.473476246E0,-2.673418917E0,6.374883589E0
1.418738321E1,2.280304469E-1,8.179864104E0,4.900862803E-1,8.197704508E0
1.419738721E1,3.201935291E-2,1.043002939E1,7.236022925E-1,1.045514891E1
1.420739121E1,-9.551216269E-1,1.160052151E1,1.855619735E-1,1.164125380E1
1.421739621E1,-1.901596099E0,1.229463396E1,3.137129869E-1,1.244477833E1
1.422740021E1,-2.634776715E0,1.281408890E1,9.355118197E-1,1.311556728E1
1.423740421E1,-3.384022557E0,1.271998147E1,1.822330366E0,1.328798048E1
1.424740821E1,-4.382589581E0,1.282511441E1,2.351479409E0,1.375572995E1
1.425741221E1,-5.572728639E0,1.256117227E1,2.047082718E0,1.389348412E1
1.426741721E1,-8.118784089E0,1.323110881E1,1.674940771E0,1.561353010E1
1.427742121E1,-1.283233572E1,1.346933374E1,8.801047736E-1,1.862434900E1
1.428742521E1,-1.362572570E1,1.362731264E1,3.514615148E-1,1.927401297E1
1.429742921E1,-1.078032673E1,1.390434085E1,2.195979580E-1,1.759529375E1
1.430743421E1,-9.026020528E0,1.419927207E1,1.921552938E-1,1.682632751E1
1.431743821E1,-6.538575228E0,1.702472386E1,-1.394765586E-1,1.823769838E1
1.432744221E1,-7.254156311E0,1.586734938E1,-7.092696706E-1,1.746134656E1
1.433744621E1,-7.012307870E0,1.263848181E1,-2.984619136E-1,1.445658202E1
1.434745121E1,-5.368057380E0,1.087548198E1,-4.232688314E-1,1.213553891E1
1.435745521E1,-4.225098628E0,9.879268456E0,-4.495737735E-1,1.075423266E1
1.436745921E1,-3.466108694E0,9.053681951E0,-5.733376942E-1,9.711425357E0
1.437746321E1,-3.130284680E0,8.441404797E0,-6.174653882E-1,9.024259562E0
1.438746821E1,-2.932763981E0,8.099042135E0,-5.187363944E-1,8.629291716E0
1.439747221E1,-2.681145135E0,8.011542646E0,-3.355138920E-1,8.454934912E0
1.440747621E1,-2.391869929E0,8.000856859E0,-1.989865228E-1,8.353104086E0
1.441748021E1,-2.048813494E0,8.103646232E0,-2.625019759E-1,8.362752315E0
1.442748421E1,-1.693966441E0,8.230554201E0,-3.716093389E-1,8.411280417E0
1.443748921E1,-1.308384669E0,8.520706490E0,-4.902347264E-1,8.634502859E0
1.444749321E1,-7.596351743E-1,8.979160942E0,-7.847882880E-1,9.045345183E0
1.445749721E1,-2.632632834E-1,9.535700682E0,-8.122578494E-1,9.573852822E0
1.446750121E1,-2.425715952E-1,9.965161715E0,-2.771732247E-1,9.971966404E0
1.447750621E1,-5.515229751E-1,1.025561280E1,2.632269575E-1,1.027380455E1
1.448751021E1,-1.032714763E0,1.034924660E1,5.486911686E-1,1.041510763E1
1.449751421E1,-1.397556900E0,1.032784579E1,6.295552374E-1,1.044097236E1
1.450751821E1,-1.326414558E0,1.016979087E1,4.419876690E-1,1.026544568E1
1.451752321E1,-1.721139768E0,9.619677808E0,-1.158356810E-1,9.773123408E0
1.452752721E1,-2.222525792E0,8.940017926E0,-5.926709280E-1,9.231186286E0
1.453753121E1,-2.639408587E0,8.331233899E0,-7.346389852E-1,8.770155666E0
1.454753521E1,-2.931587521E0,8.107809450E0,-4.255526076E-1,8.632026094E0
1.455753921E1,-3.217813405E0,7.731568020E0,3.085382011E-1,8.380135022E0
1.456754421E1,-3.680250980E0,6.546485342E0,1.079048612E0,7.587164392E0
1.457754821E1,-5.463175791E0,1.159083034E0,1.402469877E0,5.758184172E0
1.458755221E1,6.383134017E0,-2.661811375E1,4.396919060E0,2.772365915E1
1.459755621E1,3.479299603E1,-1.049936895E2,1.915232566E1,1.122543495E2
1.460756121E1,2.167071676E1,-1.266796464E2,2.161989510E1,1.303256408E2
1.461756521E1,2.109044376E1,-7.973062119E1,1.009837064E1,8.308884320E1
1.462756921E1,1.539600416E1,-2.767198784E1,1.834007695E0,3.171970112E1
1.463757321E1,1.005063748E1,-9.705369338E0,-1.175120777E0,1.402107045E1
1.464757721E1,7.717149371E0,-4.082995500E0,-2.163003915E0,8.994655780E0
1.465758221E1,5.817764981E0,-2.930623316E0,-2.379902140E0,6.935335363E0
1.466758621E1,5.735806898E0,-3.903761383E0,-3.166462573E0,7.626619103E0
1.467759021E1,5.921197549E0,-4.947319223E0,-2.987518478E0,8.274165490E0
1.468759421E1,6.254406395E0,-2.931965836E0,-3.145090707E0,7.589836532E0
1.469759921E1,6.333212244E0,5.603269815E-2,-4.341248304E0,7.678486428E0
1.470760321E1,3.810266452E0,2.624784701E0,-4.926801344E0,6.758771829E0
1.471760721E1,-4.159954798E-1,4.780360166E0,-2.493316489E0,5.407543127E0
1.472761121E1,-2.422171662E0,7.220609665E0,4.277109611E-1,7.628044059E0
1.473761621E1,-3.758212784E0,9.030055107E0,9.971776523E-1,9.831603218E0
1.474762021E1,-5.100052589E0,9.856233934E0,7.548072014E-1,1.112320177E1
1.475762421E1,-5.861819074E0,1.041332390E1,8.483141199E-1,1.197989459E1
1.476762821E1,-7.665336608E0,1.120918023E1,1.447552494E0,1.365644592E1
1.477763221E1,-1.205114070E1,1.035805017E1,9.739391363E-1,1.592067061E1
1.478763721E1,-1.692737356E1,9.502895463E0,4.342838162E-1,1.941725007E1
1.479764121E1,-1.604379262E1,9.565771742E0,5.306506079E-1,1.868659575E1
1.480764521E1,-1.538460209E1,9.509153153E0,1.190983688E0,1.812535288E1
1.481764921E1,-1.328876470E1,8.958716737E0,1.383614361E0,1.608615123E1
1.482765400E1,-9.567153440E0,9.406645616E0,-2.029902575E-1,1.341851749E1
1.483765800E1,-6.221563754E0,1.063836101E1,-1.506851447E0,1.241584398E1
1.484766200E1,-3.724236660E0,1.183032294E1,-1.928900549E0,1.255177823E1
1.485766600E1,-1.849777781E0,1.372680769E1,-1.615055342E0,1.394472413E1
1.486767000E1,-1.941832544E-1,1.730390034E1,-2.840910655E-1,1.730732162E1
1.487767500E1,-1.825960025E0,1.661810731E1,-1.962834281E-1,1.671927474E1
1.488767900E1,-3.248426503E0,1.298615609E1,-1.358653182E-1,1.338697068E1
1.489768300E1,-2.215266474E0,1.117455185E1,-4.799807567E-2,1.139211651E1
1.490768700E1,-1.761810661E0,1.022135396E1,7.224585772E-2,1.037233209E1
1.491769200E1,-1.710786688E0,9.660275027E0,3.937345817E-1,9.818489273E0
1.492769600E1,-1.465613228E0,9.462733862E0,9.362719578E-1,9.621224426E0
1.493770000E1,-1.187836571E0,9.445491008E0,1.492712295E0,9.636204964E0
1.494770400E1,-9.495867987E-1,9.504123963E0,1.940815421E0,9.746632849E0
1.495770900E1,-5.775230581E-1,9.635760575E0,2.166986307E0,9.893292899E0
1.496771300E1,-2.230145591E-1,9.710930625E0,2.178219978E0,9.954725078E0
1.497771700E1,5.138313845E-2,9.835518419E0,2.186793750E0,1.007581906E1
1.498772100E1,4.305657180E-1,1.016226902E1,2.167668092E0,1.039980208E1
1.499772500E1,4.163597614E-1,1.012693546E1,1.729735613E0,1.028203105E1
1.500773000E1,-5.662714802E-1,9.943953863E0,1.132782843E0,1.002427448E1
1.501773400E1,-1.740968407E0,9.864030612E0,9.325652616E-1,1.005980859E1
1.502773800E1,-2.068071299E0,9.335151710E0,9.785577788E-1,9.611428181E0
1.503774200E1,-1.975985546E0,8.815020828E0,7.257230046E-1,9.062879506E0
1.504774700E1,-1.811086171E0,8.541068834E0,2.559190343E-1,8.734722921E0
1.505775100E1,-1.834511432E0,8.083419544E0,-4.518294100E-1,8.301280235E0
1.506775500E1,-3.152785935E0,6.187550501E0,-1.093089019E0,7.029984634E0
1.507775900E1,-5.953829105E0,2.206718137E0,-1.541147121E0,6.533974319E0
1.508776400E1,-6.611929134E0,-7.541393763E-1,-4.812499680E-1,6.672176152E0
1.509776800E1,5.292349386E0,-2.027967351E1,1.090181637E0,2.098720124E1
1.510777200E1,1.955067775E1,-7.602448284E1,1.004222919E1,7.913783771E1
1.511777600E1,2.034585464E1,-1.059200756E2,1.637056193E1,1.090917573E2
1.512778000E1,1.412887510E1,-9.045220679E1,1.390712179E1,9.259932431E1
1.513778500E1,9.591704729E0,-4.167313870E1,3.998893243E0,4.294930076E1
1.514778900E1,7.020379951E0,-1.517337259E1,2.320675108E-1,1.672037158E1
1.515779300E1,4.261613320E0,-7.943429600E0,5.882450974E-1,9.033573722E0
1.516779700E1,3.811253169E0,-6.031422826E0,1.586977013E0,7.309049737E0
1.517780200E1,3.030721216E0,-8.707265414E0,2.152693958E0,9.467620258E0
1.518780600E1,1.882095635E0,-1.164285185E1,1.660574016E0,1.191032280E1
1.519781000E1,2.674978369E0,-8.884226133E0,-7.534704548E-1,9.308743255E0
1.520781400E1,3.556442621E0,-4.223650272E0,-1.761073912E0,5.795592037E0
1.521781800E1,4.471551751E0,-2.114224541E-1,-2.255907839E0,5.012842975E0
1.522782300E1,4.813978733E0,3.206573303E0,-3.292779973E0,6.655742147E0
1.523782700E1,2.813643919E0,6.291567205E0,-4.746253358E0,8.368233441E0
1.524783100E1,2.537422621E-1,8.537593249E0,-3.017249231E0,9.058624429E0
1.525783500E1,-1.272896163E0,9.949163733E0,-6.452748189E-1,1.005099514E1
1.526784000E1,-1.985874065E0,1.089973856E1,5.895213984E-2,1.107932633E1
1.527784400E1,-2.875326490E0,1.210508594E1,4.614071493E-1,1.245044194E1
1.528784800E1,-4.594151783E0,1.347655388E1,6.451092696E-1,1.425271557E1
1.529785200E1,-5.878490655E0,1.413977431E1,8.036904359E-1,1.533413800E1
1.530785600E1,-7.065233942E0,1.423321516E1,9.097729611E-1,1.591633222E1
1.531786100E1,-1.149837183E1,1.353994354E1,2.905370361E-1,1.776589535E1
1.532786500E1,-1.385912667E1,1.036097611E1,4.581094658E-1,1.730997061E1
1.533786900E1,-1.235005036E1,1.061808286E1,2.431471074E-1,1.628884735E1
1.534787300E1,-1.038339434E1,1.098315260E1,2.833684959E-2,1.511440777E1
1.535787800E1,-8.032164606E0,1.127444685E1,-1.199969251E-2,1.384301138E1
1.536788200E1,-7.009209430E0,1.230395442E1,-6.784628841E-1,1.417662241E1
1.537788600E1,-6.270356430E0,1.241296055E1,-8.837382334E-1,1.393484671E1
1.538789000E1,-5.286288162E0,1.284042476E1,-5.161711478E-1,1.389560302E1
1.539789500E1,-4.991266311E0,1.238951556E1,-1.034273412E-1,1.335752718E1
1.540789900E1,-4.011458617E0,1.220763908E1,3.218669292E-1,1.285386520E1
1.541790300E1,-2.998562407E0,1.100725483E1,6.103651142E-1,1.142469172E1
1.542790700E1,-2.717046162E0,9.626060044E0,5.596463656E-1,1.001781293E1
1.543791100E1,-2.583064525E0,8.925026835E0,6.712434000E-1,9.315518989E0
1.544791600E1,-2.476586728E0,8.538384377E0,9.123942679E-1,8.936999099E0
1.545792000E1,-2.338914328E0,8.337947672E0,1.087278641E0,8.727775573E0
1.546792400E1,-2.107999011E0,8.262557766E0,1.229452520E0,8.615397505E0
1.547792800E1,-1.956648804E0,8.275649682E0,1.431723497E0,8.623496065E0
1.548793300E1,-1.701412139E0,8.212272297E0,1.487097214E0,8.517492452E0
1.549793700E1,-1.389375476E0,8.264687322E0,1.167754455E0,8.461623439E0
1.550794100E1,-1.181141655E0,8.333440638E0,8.147065902E-1,8.456067367E0
1.551794500E1,-9.562726513E-1,8.602810169E0,5.638072443E-1,8.674138504E0
1.552794900E1,-7.883868107E-1,9.184735596E0,2.075148330E-1,9.220845088E0
1.553795400E1,-1.228604089E0,9.782526273E0,-1.979709345E-1,9.861363028E0
1.554795800E1,-2.478488242E0,9.903671225E0,-4.835356080E-1,1.022053885E1
1.555796200E1,-2.554231027E0,9.534893766E0,-9.249167380E-1,9.914321270E0
1.556796600E1,-2.306054876E0,9.122659800E0,-1.185115496E0,9.483950108E0
1.557797100E1,-2.243415994E0,8.271772394E0,-3.791083199E-1,8.578977618E0
1.558797500E1,-2.473331290E0,7.835932049E0,8.586361367E-1,8.261746471E0
1.559797900E1,-2.523537823E0,7.213090730E0,1.668349789E0,7.821784454E0
1.560798300E1,2.887181135E-1,-1.246091357E0,2.744932703E0,3.028325835E0
1.561798800E1,2.692219937E1,-6.827793250E1,1.500892199E1,7.491294030E1
1.562799200E1,3.665919338E1,-1.348192981E2,2.727666226E1,1.423522248E2
1.563799600E1,2.095517895E1,-1.132242396E2,2.024236828E1,1.169127941E2
1.564800000E1,1.061202515E1,-4.286019364E1,2.114893901E0,4.420502294E1
1.565800400E1,5.697501204E0,-1.385390628E1,-3.248848087E0,1.532798920E1
1.566800900E1,3.254728924E0,-5.359211712E0,-6.206281471E0,8.822263896E0
1.567801300E1,2.287332822E0,-6.103744698E0,-2.064440879E1,2.164900010E1
1.568801700E1,4.279767463E0,-9.103313118E0,-2.916428615E1,3.085032100E1
1.569802100E1,3.073187204E0,-6.819000090E0,-3.634995285E0,8.316034664E0
1.570802500E1,7.309569204E-1,5.740275925E-1,1.209428730E0,1.525294578E0
1.571803000E1,9.055787534E-2,5.538065760E0,-1.565865494E0,5.755893313E0
1.572803400E1,-1.034407825E0,6.325930706E0,-9.448800825E-1,6.479212700E0
1.573803800E1,-1.445664136E0,6.917636186E0,-8.493548512E-1,7.117937823E0
1.574804200E1,-1.944330474E0,8.186783699E0,-1.346966498E0,8.521629367E0
1.575804700E1,-3.193905018E0,9.547198647E0,-2.013330397E0,1.026662216E1
1.576805100E1,-3.497311191E0,1.078546994E1,-2.138857837E0,1.153829538E1
1.577805500E1,-4.050252554E0,1.177440484E1,-1.940563844E0,1.260186269E1
1.578805900E1,-5.970598335E0,1.345595648E1,-1.054323003E0,1.475880775E1
1.579806400E1,-7.890056216E0,1.466953088E1,-1.062573058E0,1.669063165E1
1.580806800E1,-9.622185094E0,1.521218173E1,-6.549863863E-1,1.801182740E1
1.581807200E1,-1.046035188E1,1.424576796E1,-1.912624240E-1,1.767476867E1
1.582807525E1,-1.016806127E1,1.036563050E1,1.449144691E0,1.459231941E1
1.583807925E1,-1.051396033E1,1.066166801E1,2.489468436E0,1.517932738E1
1.584808425E1,-8.989059108E0,1.125239350E1,2.899852343E0,1.469110910E1
1.585808825E1,-7.167849069E0,1.161250947E1,3.854848255E0,1.418056034E1
1.586809225E1,-5.231383976E0,1.193958985E1,4.033592960E0,1.364518437E1
1.587809625E1,-3.392569140E0,1.236336915E1,2.725043399E0,1.310680295E1
1.588810125E1,-2.581826085E0,1.209239280E1,1.930246578E0,1.251469702E1
1.589810525E1,-2.018390431E0,1.102406323E1,1.563203988E0,1.131580650E1
1.590810925E1,-1.800385766E0,1.007670788E1,1.139657414E0,1.029952667E1
1.591811325E1,-1.832690609E0,9.492834744E0,7.819247603E-1,9.699694463E0
1.592811725E1,-1.839404090E0,9.090741019E0,5.812588441E-1,9.293161008E0
1.593812225E1,-1.775894703E0,8.916459494E0,6.145774484E-1,9.112340937E0
1.594812625E1,-1.437194444E0,9.241379912E0,8.063567662E-1,9.387163671E0
1.595813025E1,-6.844325258E-1,1.000596359E1,1.034556051E0,1.008256224E1
1.596813425E1,1.130911441E-1,1.060048859E1,1.230071740E0,1.067221741E1
1.597813925E1,5.246004939E-1,1.068557611E1,1.484754235E0,1.080098317E1
1.598814325E1,6.154454675E-1,1.057575370E1,1.764254066E0,1.073954989E1
1.599814725E1,1.919661364E-1,1.046209669E1,1.623693434E0,1.058908393E1
1.600815125E1,-1.357889828E0,1.026409711E1,1.134393166E0,1.041548857E1
1.601815525E1,-1.809602294E0,1.044372123E1,9.608840579E-1,1.064280376E1
1.602816025E1,-1.804616373E0,1.056313775E1,8.854426968E-1,1.075269864E1
1.603816425E1,-1.878948517E0,1.009742573E1,7.568074608E-1,1.029860240E1
1.604816825E1,-1.910095319E0,9.270532376E0,4.780765013E-1,9.477330415E0
1.605817225E1,-1.834955821E0,8.617387277E0,2.813610736E-2,8.810630965E0
1.606817725E1,-1.634637229E0,8.335565516E0,-3.290690178E-1,8.500704545E0
1.607818125E1,-1.668845195E0,8.054278775E0,-1.070724589E-1,8.226051020E0
1.608818525E1,-2.064592205E0,5.697455011E0,2.521366167E-1,6.065237625E0
1.609818925E1,2.016488770E0,-2.200815724E1,3.937493970E0,2.244836455E1
1.610819325E1,2.110525359E1,-8.545280934E1,1.682763644E1,8.961464000E1
1.611819825E1,1.475665673E1,-1.177797632E2,1.725707934E1,1.199484820E2
1.612820225E1,1.481291396E1,-8.377363870E1,1.062222971E1,8.573375487E1
1.613820625E1,1.368341550E1,-3.119190407E1,1.839760916E0,3.411092874E1
1.614821025E1,7.637433110E0,-1.222470360E1,-8.115409076E-1,1.443718675E1
1.615821525E1,3.584550186E0,-5.629860613E0,-1.860243713E0,6.928552319E0
1.616821925E1,2.030968084E0,-5.100057852E0,-1.478231227E0,5.685119964E0
1.617822325E1,1.670407717E0,-8.434025027E0,-1.603740980E0,8.746143448E0
1.618822725E1,3.604378679E0,-1.021054714E1,-7.322858756E0,1.307176648E1
1.619823225E1,9.112225444E0,-7.676958534E0,-1.770709159E1,2.134266706E1
1.620823625E1,7.661213737E0,-3.388933341E0,-8.685447698E0,1.206714825E1
1.621824025E1,3.728299890E0,9.391078573E-1,1.114073945E0,4.002911989E0
1.622824425E1,8.824117926E-1,4.963362229E0,3.166648514E0,5.953257764E0
1.623824825E1,-1.062303721E0,7.367964177E0,1.698143692E0,7.635383246E0
1.624825325E1,-2.213900565E0,8.688218109E0,1.901906294E-1,8.967868314E0
1.625825725E1,-3.411298064E0,9.825291638E0,-7.113396581E-1,1.042493714E1
1.626826125E1,-3.478537828E0,1.090479991E1,-1.218294863E0,1.151082660E1
1.627826525E1,-3.301412509E0,1.166443158E1,-1.651029167E0,1.223454887E1
1.628827025E1,-4.008161372E0,1.322372027E1,-1.629388037E0,1.391355601E1
1.629827425E1,-5.555041981E0,1.419392304E1,-2.271264381E0,1.541053485E1
1.630827825E1,-8.212318490E0,1.199550093E1,-2.235458225E0,1.470821169E1
1.631828225E1,-1.263246737E1,1.153252658E1,-1.953750631E0,1.721614192E1
1.632828625E1,-1.166003564E1,1.177114444E1,-7.974977229E-1,1.658771458E1
1.633829125E1,-8.195153403E0,1.188333145E1,1.509422906E-1,1.443595821E1
1.634829525E1,-6.826237189E0,1.228468551E1,6.926143885E-1,1.407091777E1
1.635829925E1,-5.741279892E0,1.287735578E1,1.390541557E0,1.416764597E1
1.636830325E1,-4.230936488E0,1.294725573E1,1.616929375E0,1.371665831E1
1.637830825E1,-2.031993978E0,1.466067937E1,1.871905984E0,1.491873155E1
1.638831225E1,-1.833147715E0,1.528400308E1,2.598413174E0,1.561130782E1
1.639831625E1,-3.180056180E0,1.228082985E1,2.602254794E0,1.295002970E1
1.640832025E1,-2.635531006E0,1.005076495E1,2.201573757E0,1.062124413E1
1.641832425E1,-1.753734048E0,9.395391480E0,2.609015930E0,9.907367374E0
1.642832925E1,-1.257038953E0,9.045566016E0,3.443661525E0,9.760185253E0
1.643833325E1,-1.037336110E0,8.761262112E0,3.906382105E0,9.648606176E0
1.644833725E1,-7.833959198E-1,8.775676083E0,3.817311469E0,9.601982438E0
1.645834125E1,-5.182005702E-1,9.331515326E0,3.122588575E0,9.853743935E0
1.646834625E1,-6.452504799E-2,1.029118843E1,2.281045604E0,1.054115230E1
1.647835025E1,2.049077788E-1,1.090494259E1,1.668210626E0,1.103370684E1
1.648835425E1,-4.489275831E-1,1.082257169E1,1.103646167E0,1.088795797E1
1.649835825E1,-1.564992944E0,1.049738464E1,7.642340094E-1,1.064088064E1
1.650836225E1,-1.758065958E0,1.034733807E1,5.293244594E-1,1.050896690E1
1.651836725E1,-1.929825871E0,1.004602403E1,2.032363522E-1,1.023172183E1
1.652837125E1,-2.195563404E0,9.347430278E0,-2.045765340E-2,9.601842010E0
1.653837525E1,-2.349921419E0,8.680376408E0,-1.089359665E-1,8.993493888E0
1.654837925E1,-2.431434821E0,8.296706675E0,-2.340973717E-1,8.648816019E0
1.655838425E1,-3.085145929E0,7.429885021E0,-2.293937983E-1,8.048225789E0
1.656838825E1,-4.730556215E0,5.059260659E0,3.220330632E-1,6.933829087E0
1.657839225E1,-5.749423310E0,2.065604943E0,1.279961354E0,6.241866166E0
1.658839625E1,-1.104146835E0,-8.518553545E0,3.628354602E0,9.324690443E0
1.659840025E1,2.654951890E1,-7.516782364E1,1.193542898E1,8.060727715E1
