"Time (s)","Linear Acceleration x (m/s^2)","Linear Acceleration y (m/s^2)","Linear Acceleration z (m/s^2)","Absolute acceleration (m/s^2)"
6.142917555E-4,4.420857561E-1,1.046969983E0,1.631396556E0,1.988225511E0
1.061829168E-2,4.185883545E-1,6.504200032E-1,8.388959366E-1,1.141055995E0
2.062229172E-2,1.358253671E0,1.687971291E-1,3.013333350E-1,1.401480390E0
3.062629176E-2,1.825558906E0,-1.510432282E-1,7.241513461E-1,1.969739716E0
4.063029168E-2,1.041614810E0,-5.673708299E-1,-4.318461120E-2,1.186901842E0
5.063429172E-2,2.310796237E-1,-4.168868878E-1,-4.593689561E-1,6.619760627E-1
6.063829176E-2,-2.082724129E-1,-8.230072975E-2,-3.224517238E-1,3.925887445E-1
7.064229168E-2,-2.006691322E-1,-5.144643456E-2,-3.618970406E-1,4.169943695E-1
8.064629172E-2,-2.763116375E-1,-2.676998582E-1,-3.760315150E-1,5.379693629E-1
9.065129177E-2,-5.466469820E-1,-2.814364296E-1,-3.989034837E-1,7.329074813E-1
1.006552917E-1,-5.216137362E-1,-9.798120797E-2,-4.552677190E-1,6.992495283E-1
1.106592917E-1,-4.039800364E-1,5.882298946E-2,-4.509179753E-1,6.082655952E-1
1.206632918E-1,-1.133628935E-1,1.324569762E-1,-3.500371331E-1,3.910524143E-1
1.306672917E-1,2.017228004E-1,3.170184910E-2,-4.472663891E-1,4.916750129E-1
1.406712917E-1,-6.846066266E-1,4.649969012E-2,2.868936360E-1,7.437448573E-1
1.506752918E-1,-1.999158939E0,-1.241910598E-1,9.235723901E-1,2.205684891E0
1.606792917E-1,-7.158142398E-1,3.551563704E-1,2.619663709E-1,8.409235714E-1
1.706841667E-1,-4.267837389E-1,6.744254547E-1,1.203846393E0,1.444382287E0
1.806881668E-1,5.500626330E-1,2.951206684E-1,-5.581985950E-1,8.374071773E-1
1.906921667E-1,7.238921683E-1,-5.092164695E-2,-4.534164906E-1,8.556865076E-1
2.006961667E-1,5.244012500E-1,8.136722177E-2,-1.643009126E-1,5.555286543E-1
2.107001668E-1,4.865060301E-1,4.593759727E-1,-2.579300380E-1,7.171069001E-1
2.207051667E-1,6.138212572E-1,5.971816894E-1,-2.979285014E-1,9.067325394E-1
2.307091667E-1,7.587133607E-1,6.964960626E-1,-3.343063688E-1,1.082826615E0
2.407131668E-1,6.979591821E-1,6.497148290E-1,-2.472723180E-1,9.850989687E-1
2.507171667E-1,6.146729042E-1,3.340540615E-1,1.165958190E-1,7.092316125E-1
2.607211667E-1,5.339398129E-1,-2.655442822E-1,-2.711353898E-3,5.963328274E-1
2.707251668E-1,7.494314906E-1,-9.350338098E-1,-3.297712684E-1,1.242853521E0
2.807291667E-1,8.665455191E-1,-1.563764444E0,-5.817160964E-1,1.880067549E0
2.907331667E-1,4.621083766E-1,-1.346080499E0,7.022389054E-2,1.424923947E0
3.007371668E-1,-4.813501015E-1,-8.223412997E-1,5.137714505E-2,9.542445936E-1
3.107411667E-1,-8.463372494E-1,-2.835750487E-1,1.801170462E-1,9.105732801E-1
3.207451667E-1,-1.801691303E0,-2.517726275E-1,6.793201590E-1,1.941895179E0
3.307491668E-1,-2.226941902E0,-5.074563114E-1,2.235908607E0,3.196258663E0
3.407541667E-1,-1.265090422E0,-3.291385996E-1,3.864714262E0,4.079804201E0
3.507581668E-1,-8.248702204E-1,-1.219660480E-1,1.338122438E0,1.576660476E0
3.607621667E-1,-3.094551176E-1,4.708353460E-2,-6.005160642E-1,6.771992856E-1
3.707661667E-1,6.036171350E-1,8.263453268E-2,2.113204787E0,2.199276377E0
3.807701668E-1,6.102738976E-1,-1.883155004E-1,2.573518653E0,2.651583530E0
3.907741667E-1,1.059890867E0,-2.712205399E-1,1.177911068E0,1.607608073E0
4.007781667E-1,9.409637636E-1,6.200877913E-1,-1.369341892E-1,1.135197184E0
4.107821668E-1,-2.432131809E-1,6.230037247E-1,-2.209370434E-2,6.691594908E-1
4.207861667E-1,-7.535926616E-1,4.640035323E-1,-8.089587772E-1,1.199006039E0
4.307901667E-1,2.868000805E-2,8.956729853E-1,-2.052957416E-1,9.193470406E-1
4.407941668E-1,1.539221048E-2,4.447712360E-1,-1.560481524E-1,4.716030093E-1
4.507981667E-1,-4.758312070E-1,-2.836846840E-1,-3.425871956E-1,6.513511527E-1
4.608021667E-1,-1.059916010E0,-6.598768513E-1,-2.820585734E-1,1.280006425E0
4.708061668E-1,-1.885669745E0,-7.343921596E-1,-7.715634942E-2,2.025101315E0
4.808111667E-1,-4.454474958E0,-1.112379861E0,4.436393613E-1,4.612651297E0
4.908151667E-1,-5.118143874E0,-1.580698273E0,4.574943388E-1,5.376179389E0
5.008191668E-1,-5.519949916E0,-2.857680470E0,-3.791802406E-2,6.215916869E0
5.108231667E-1,-5.896289579E0,-4.727503968E0,-7.173633134E-1,7.591451422E0
5.208271667E-1,-4.048094054E0,-5.854717630E0,-1.540777577E0,7.282772792E0
5.308311668E-1,-5.270200717E-1,-5.375916038E0,-2.064570571E0,5.782791284E0
5.408351667E-1,1.153490172E0,-2.777073094E0,-9.084509057E-1,3.141330545E0
5.508391667E-1,2.333249545E0,-1.162251055E-2,4.332307327E-1,2.373157683E0
5.608431668E-1,2.005110819E0,-1.589593349E-1,1.106569775E0,2.295699051E0
5.708471667E-1,2.496223140E-1,-9.064138819E-1,-5.764103329E-1,1.102790232E0
5.808511667E-1,3.785855788E-1,7.243004501E-2,-2.991517974E0,3.016248156E0
5.908551667E-1,1.190103098E0,6.030996564E-1,-3.818119555E0,4.044516227E0
6.008601667E-1,2.073695735E0,1.596171467E0,-3.555940930E0,4.415053029E0
6.108641668E-1,2.438177830E0,2.886761889E0,-3.397187271E0,5.081238696E0
6.208681667E-1,1.348467917E0,2.250894436E0,-2.397080675E0,3.553995955E0
6.308721667E-1,6.729174578E-1,1.430607848E0,-1.719021176E0,2.335485072E0
6.408761668E-1,9.782403481E-1,1.422730772E0,-1.104340231E0,2.049557117E0
6.508801667E-1,1.995388654E0,1.685733269E0,-1.469732738E-1,2.616270949E0
6.608841667E-1,2.671558918E0,1.837726962E0,4.025486380E-1,3.267493358E0
6.708881668E-1,3.072700131E0,2.128868893E0,4.324738106E-1,3.763057594E0
6.808921667E-1,3.271589078E0,2.732454453E0,-8.571433425E-3,4.262590281E0
6.908961667E-1,3.625851994E0,3.414913397E0,-4.322402143E-1,4.999526757E0
7.009001668E-1,4.159704537E0,4.651786619E0,-1.331395217E0,6.380820778E0
7.109041667E-1,4.008442916E0,5.449951143E0,-1.460880638E0,6.921253811E0
7.209081667E-1,3.133919309E0,5.732482756E0,-1.981357821E0,6.827048235E0
7.309131668E-1,2.550711004E0,7.674695662E0,-2.272141464E0,8.400577775E0
7.409171667E-1,1.606466367E0,7.466633018E0,-2.017276975E0,7.899414485E0
7.509211667E-1,1.213128848E0,5.942472643E0,-2.385838233E0,6.517429462E0
7.609251668E-1,-7.515835583E-2,3.926432793E0,-2.420520408E0,4.613181364E0
7.709291667E-1,-2.350798793E0,3.023592875E0,-2.272675899E0,4.453473317E0
7.809331667E-1,-1.838686198E0,8.442689431E-1,-1.805511435E0,2.711720584E0
7.909371668E-1,-1.136290002E0,-3.995566177E-1,-1.823484607E0,2.185382477E0
8.009411667E-1,-2.202641459E0,-7.072698498E-1,-1.799548445E0,2.930910207E0
8.109451667E-1,-3.728018054E0,-1.718085036E0,-2.299078417E-1,4.111300575E0
8.209491668E-1,-5.486052437E0,-3.413972288E0,4.107867801E-1,6.474621526E0
8.309531667E-1,-7.119474469E0,-5.070692550E0,6.599765463E-1,8.765523869E0
8.409571667E-1,-8.299434401E0,-5.302718253E0,1.580158575E0,9.974784879E0
8.509621667E-1,-8.646847889E0,-4.455888230E0,2.271245670E0,9.989067785E0
8.609661667E-1,-7.983045071E0,-3.216083214E0,2.903744835E0,9.083167614E0
8.709701668E-1,-6.673692103E0,-2.319079987E0,3.496026557E0,7.882797724E0
8.809741667E-1,-5.091585236E0,-1.840715767E0,4.023738062E0,6.745586909E0
8.909781667E-1,-3.384976530E0,-1.729832677E0,3.564758823E0,5.211323504E0
9.009821668E-1,-1.418211166E0,-2.313428069E0,2.019339726E0,3.382455509E0
9.109861667E-1,1.107131107E0,-2.995247328E0,1.672563001E0,3.604818003E0
9.209901667E-1,3.325669976E0,-2.733871526E0,3.830415372E0,5.762483512E0
9.309941668E-1,3.877476979E0,-1.498571790E0,4.675019360E0,6.255905303E0
9.409981667E-1,2.338720200E0,1.866823000E-1,4.246102119E0,4.851169515E0
9.510021667E-1,6.943603671E-1,1.577396350E0,3.931627751E0,4.292786081E0
9.610061668E-1,-3.612760663E-1,2.934203566E0,3.686698997E0,4.725655559E0
9.710101667E-1,-6.794426581E-1,3.756703325E0,2.378742052E0,4.498096925E0
9.810151667E-1,-2.517837372E-1,4.289232643E0,2.023314663E0,4.749180345E0
9.910191668E-1,2.376071629E-1,4.201957102E0,2.568695577E0,4.930628522E0
1.001023167E0,-5.043787757E-1,3.897880839E0,2.224417367E0,4.516182636E0
1.011027167E0,-1.362534856E0,3.892968593E0,2.344801304E0,4.744449268E0
1.021031167E0,-2.310263848E0,4.435143478E0,2.845007507E0,5.753423714E0
1.031035167E0,-2.871870493E0,3.283496348E0,4.056067025E0,5.956565127E0
1.041039167E0,-3.584153453E0,1.208420085E0,4.263967409E0,5.699811676E0
1.051043167E0,-2.355171634E0,2.475933886E0,3.098033777E0,4.612471715E0
1.061047167E0,-2.615681463E0,3.995688969E-1,2.430775109E0,3.593064493E0
1.071051167E0,-2.918723355E0,-9.541568363E-1,-9.364911553E-1,3.210354649E0
1.081055167E0,-6.807695083E0,-1.109472683E1,-9.478260559E0,1.610202158E1
1.091059167E0,-1.218746561E0,-1.967099708E1,-1.190847448E1,2.302705438E1
1.101063167E0,7.940776134E0,-1.676492271E1,-1.010992123E1,2.112650152E1
1.111068167E0,3.309132881E0,-1.779037582E1,-3.535772713E0,1.843772005E1
1.121072167E0,1.374142456E-1,-1.470041938E1,-2.785765564E0,1.496267698E1
1.131076167E0,-6.687328979E-1,-9.195286312E0,-1.570082653E0,9.352307393E0
1.141080167E0,-1.214792381E0,-5.291950606E0,1.217016077E-1,5.430955075E0
1.151084167E0,-6.455817246E-1,-2.712781788E0,4.263404468E-1,2.820944340E0
1.161088167E0,1.035617906E-1,-1.064389715E0,5.595668435E-1,1.206965436E0
1.171091917E0,7.223914804E-1,7.829018301E-1,9.519407415E-1,1.428627279E0
1.181095917E0,9.937459946E-1,1.838603752E0,9.835310550E-1,2.309832937E0
1.191099917E0,9.550403506E-1,1.945760996E0,1.113663032E0,2.436869564E0
1.201103917E0,1.006191501E0,1.581354915E0,7.785531096E-1,2.029593469E0
1.211107917E0,8.816156942E-1,1.090054314E0,3.658309011E-1,1.448895058E0
1.221111917E0,5.945495653E-1,1.084238089E0,4.003834140E-1,1.299757015E0
1.231116917E0,2.193372452E-1,9.469752860E-1,9.231269784E-1,1.340535131E0
1.241120917E0,-2.392230409E-1,6.051762950E-1,1.266874262E0,1.424231865E0
1.251124917E0,-5.915531597E-1,9.118007755E-1,1.025268334E0,1.494152252E0
1.261128917E0,-8.340734455E-1,1.001224583E0,8.715612607E-1,1.567720705E0
1.271132917E0,-9.200348246E-1,8.724934530E-1,6.650716639E-1,1.431792311E0
1.281136917E0,-7.891185898E-1,8.595518106E-1,1.461055470E-1,1.175961009E0
1.291140917E0,-4.340054888E-1,6.537958932E-1,-2.985293028E-1,8.396008449E-1
1.301144917E0,2.401211733E-1,4.526154220E-1,-2.273723428E-1,5.605506938E-1
1.311148917E0,9.790191972E-1,4.813743675E-1,4.914141829E-1,1.196531558E0
1.321152917E0,1.881897414E0,7.190268463E-1,1.280758914E0,2.387232891E0
1.331156917E0,2.596694092E0,-6.030876696E-2,1.407366335E0,2.954172872E0
1.341160917E0,3.006532746E0,-6.736863667E-1,1.936820164E0,3.639280811E0
1.351165917E0,3.486290359E0,-5.872645193E-1,2.010688040E0,4.067181638E0
1.361169917E0,3.615984525E0,-3.207466757E-1,2.262715898E0,4.277628520E0
1.371173917E0,3.399070659E0,-5.605760729E-1,2.128412079E0,4.049452414E0
1.381177917E0,3.207088150E0,-3.467211771E-1,1.708385821E0,3.650234525E0
1.391181917E0,3.210431880E0,4.993253195E-1,2.229586598E0,3.940463809E0
1.401185917E0,3.200939218E0,1.034399931E0,2.457375408E0,4.165895941E0
1.411189917E0,2.555278848E0,3.930749792E-1,2.621949971E0,3.682197656E0
1.421193917E0,1.798543016E0,1.287884331E-1,2.364417543E0,2.973518751E0
1.431197917E0,1.430812793E0,5.601579970E-1,2.238507110E0,2.715127310E0
1.441201917E0,1.270217261E0,8.825898403E-1,1.758193427E0,2.341721769E0
1.451205917E0,1.173673883E0,1.055382079E0,1.380870262E0,2.097175338E0
1.461209917E0,1.133552921E0,1.058616759E0,1.084031682E0,1.892283371E0
1.471213917E0,1.077683360E0,8.489864767E-1,8.360430801E-1,1.606595000E0
1.481218917E0,9.896400797E-1,7.152594852E-1,6.212783575E-1,1.370025699E0
1.491222917E0,8.945991442E-1,7.707314354E-1,4.151148891E-1,1.251660875E0
1.501226917E0,8.821290797E-1,9.130146575E-1,3.099223101E-1,1.306827960E0
1.511230917E0,9.239439806E-1,1.025367152E0,4.034052551E-1,1.437979859E0
1.521234917E0,1.069042637E0,1.083771481E0,6.376178169E-1,1.650445171E0
1.531238917E0,1.284480082E0,1.151360616E0,9.209867513E-1,1.955437789E0
1.541242917E0,1.487275262E0,1.315301925E0,1.172511749E0,2.305816701E0
1.551246917E0,1.550305323E0,1.586851882E0,1.172860243E0,2.509411612E0
1.561250917E0,1.411240993E0,2.050011004E0,1.099268357E0,2.720760404E0
1.571254917E0,1.161326903E0,2.543977935E0,9.890670526E-1,2.966269971E0
1.581258917E0,9.130889171E-1,3.014972325E0,7.754542315E-1,3.244243942E0
1.591262917E0,6.908520377E-1,3.376869950E0,6.503752720E-1,3.507636696E0
1.601266917E0,4.659350869E-1,3.757026091E0,6.316875708E-1,3.838146655E0
1.611271917E0,4.270391160E-1,3.986494807E0,5.338572210E-1,4.044688713E0
1.621275917E0,6.430441792E-1,4.127829026E0,4.648027736E-1,4.203393855E0
1.631279917E0,9.772321419E-1,4.017840561E0,1.129939342E-1,4.136519438E0
1.641283917E0,6.248898903E-1,3.232007521E0,-1.672594868E0,3.692415684E0
1.651287917E0,-7.984409519E-1,1.411176966E0,-4.970946068E0,5.228693258E0
1.661291917E0,-3.239628198E0,-1.077613193E0,-8.808297114E0,9.446826933E0
1.671295917E0,-4.865497965E0,-1.680895575E0,-7.261706235E0,8.901171711E0
1.681299917E0,-2.931121498E0,4.208363897E-1,-1.356016088E-1,2.964281414E0
1.691303917E0,5.746147992E-1,3.575122721E0,5.342003356E0,6.453579200E0
1.701307917E0,1.644917219E0,4.247801027E0,7.149225687E0,8.477086418E0
1.711311917E0,1.321845398E0,2.384812632E0,3.811815087E0,4.686634272E0
1.721315917E0,1.695370796E0,1.033487765E0,-3.067697546E0,3.654195853E0
1.731320917E0,3.449744968E0,1.726136068E0,-7.636832017E0,8.555786891E0
1.741324917E0,4.134202491E0,4.487229890E0,-6.202269112E0,8.700287608E0
1.751328917E0,2.515542048E0,6.155471506E0,-5.083067597E0,8.369907852E0
1.761332917E0,1.763565557E-1,6.307557585E0,-5.200741643E0,8.177047020E0
1.771336917E0,-1.802194602E0,5.324717817E0,-5.104786495E0,7.593376744E0
1.781340917E0,-1.601240418E0,4.199841580E0,-6.324132103E0,7.758691064E0
1.791344917E0,6.209278169E-1,4.287494851E0,-2.893993141E0,5.209928958E0
1.801348917E0,2.832224324E0,4.418905760E0,-2.033247036E0,5.628704669E0
1.811352917E0,3.615057157E0,3.589199892E0,-2.501701104E0,5.675341622E0
1.821356917E0,2.181448664E0,2.153023156E0,-1.440607756E-1,3.068384019E0
1.831360917E0,1.236202546E0,3.719174141E-1,1.448910510E0,1.940582635E0
1.841364917E0,1.232444979E0,-9.277625048E-1,2.292894986E-1,1.559563261E0
1.851369917E0,2.358371230E0,-2.403336026E0,-1.614648668E0,3.734304384E0
1.861373917E0,3.963271128E0,-3.898139870E0,-2.731548719E0,6.193897875E0
1.871377917E0,5.209539363E0,-5.525638672E0,-1.315741343E0,7.707344445E0
1.881381917E0,5.810289316E0,-7.415207925E0,-1.348893009E0,9.516526828E0
1.891385917E0,6.372238900E0,-9.312427676E0,-1.810688268E0,1.142826889E1
1.901389917E0,6.316703800E0,-1.116503843E1,-2.258986983E0,1.302543098E1
1.911393917E0,5.888892267E0,-1.280280845E1,-3.270648846E0,1.446679302E1
1.921397917E0,4.846158884E0,-1.420499533E1,-4.198842875E0,1.558516697E1
1.931401917E0,3.663899826E0,-1.531882091E1,-4.901816776E0,1.649600690E1
1.941405917E0,2.768428570E0,-1.564650121E1,-5.414662612E0,1.678677361E1
1.951409917E0,1.543257235E0,-1.566244540E1,-4.999785705E0,1.651337930E1
1.961413917E0,3.234409265E-2,-1.520317702E1,-4.378382217E0,1.582112096E1
1.971417917E0,-1.376012542E0,-1.453818254E1,-3.166758442E0,1.494257411E1
1.981422917E0,-2.493559148E0,-1.367838222E1,-2.219156334E0,1.407979518E1
1.991426917E0,-3.306863284E0,-1.296353906E1,-2.207612177E0,1.355958116E1
2.001430917E0,-3.842307147E0,-1.226050727E1,-2.333022088E0,1.305857399E1
2.011434917E0,-4.226166037E0,-1.157101763E1,-2.605319320E0,1.259113248E1
2.021438917E0,-4.504157287E0,-1.110990621E1,-2.958274214E0,1.234782714E1
2.031442917E0,-4.472606881E0,-1.072163238E1,-3.378372685E0,1.209838895E1
2.041446917E0,-4.147790543E0,-1.048718943E1,-4.063205599E0,1.198728278E1
2.051450917E0,-3.611683606E0,-1.029722158E1,-4.652504949E0,1.186266551E1
2.061454917E0,-2.876434829E0,-9.927865834E0,-4.608792334E0,1.131712703E1
2.071458917E0,-2.399238444E0,-9.587843227E0,-4.715063140E0,1.095056634E1
2.081462917E0,-2.113612045E0,-9.307657517E0,-4.627692874E0,1.060732698E1
2.091466917E0,-1.803574545E0,-8.602497343E0,-4.065609974E0,9.684266938E0
2.101471917E0,-1.468105457E0,-7.718812319E0,-3.043953757E0,8.426212181E0
2.111475917E0,-1.245571101E0,-6.840075209E0,-1.706470127E0,7.158918670E0
2.121479917E0,-9.659223112E-1,-5.274023627E0,-2.696835262E-1,5.368524968E0
2.131483917E0,-5.138875178E-1,-2.940002249E0,1.244922791E0,3.233809884E0
2.141487917E0,1.217741132E-1,-1.909010661E-1,2.982181140E0,2.990765203E0
2.151491917E0,1.122718323E0,2.563836833E0,4.315752690E0,5.143877625E0
2.161495917E0,1.892036486E0,4.932013552E0,4.991562181E0,7.267754312E0
2.171500292E0,2.088002703E0,6.854688570E0,5.168408879E0,8.835098247E0
2.181504292E0,1.570446349E0,8.266737356E0,5.109895792E0,9.844606811E0
2.191508292E0,-2.563922203E-1,9.086752049E0,4.592403173E0,1.018454548E1
2.201512292E0,-2.153542681E0,9.296474717E0,3.878628881E0,1.030077425E1
2.211516292E0,-3.686606904E0,9.103819486E0,2.474671472E0,1.012889918E1
2.221521292E0,-4.997385423E0,8.726170047E0,1.114471117E0,1.011740830E1
2.231525292E0,-5.666308647E0,8.513103940E0,-4.039402753E-1,1.023441059E1
2.241529292E0,-6.288824860E0,8.470529194E0,-1.929885805E0,1.072490756E1
2.251533292E0,-7.012970359E0,8.487399580E0,-3.102993971E0,1.143880573E1
2.261537292E0,-7.538857825E0,8.724398341E0,-3.667167835E0,1.209948857E1
2.271541292E0,-7.965937287E0,8.688350256E0,-4.044136074E0,1.246188684E1
2.281545292E0,-8.095714484E0,8.587388722E0,-4.335514525E0,1.257300777E1
2.291549292E0,-8.019168000E0,8.593873869E0,-4.478170214E0,1.257838352E1
2.301553292E0,-7.562458942E0,8.629376993E0,-4.572242559E0,1.235161263E1
2.311557292E0,-6.788583459E0,8.995643658E0,-4.418036864E0,1.210477261E1
2.321561292E0,-6.584281744E0,9.414980822E0,-4.335242629E0,1.227961557E1
2.331565292E0,-6.822588526E0,9.598197477E0,-3.721648098E0,1.235005156E1
2.341569292E0,-7.398542776E0,9.512025306E0,-3.008354446E0,1.242043707E1
2.351574292E0,-7.291077969E0,9.369066730E0,-2.474664456E0,1.212696143E1
2.361578292E0,-7.098591138E0,9.220135809E0,-2.129711623E0,1.182947894E1
2.371582292E0,-6.767199022E0,9.136126522E0,-1.984654920E0,1.154134505E1
2.381586292E0,-6.341135806E0,9.086478399E0,-1.882129256E0,1.123906151E1
2.391590292E0,-5.750403888E0,9.046763526E0,-1.794673621E0,1.086885130E1
2.401594292E0,-5.320179793E0,9.091531563E0,-1.643494445E0,1.066120693E1
2.411598292E0,-4.820457740E0,9.269716104E0,-1.658595464E0,1.057900697E1
2.421602292E0,-4.713372710E0,9.323516335E0,-1.809719676E0,1.060277909E1
2.431606292E0,-4.589289531E0,9.311228412E0,-2.041908517E0,1.057969486E1
2.441610292E0,-4.458356924E0,9.279869210E0,-2.290577735E0,1.054702163E1
2.451614292E0,-4.267328389E0,9.255542454E0,-2.571705431E0,1.051136654E1
2.461618292E0,-4.034302519E0,9.229663846E0,-2.850576687E0,1.046843250E1
2.471623292E0,-3.940610536E0,9.091308199E0,-2.882823497E0,1.031944608E1
2.481627292E0,-3.971130371E0,8.755646446E0,-2.667319686E0,9.977264927E0
2.491631292E0,-3.895902141E0,8.667934703E0,-2.132794129E0,9.739607605E0
2.501635292E0,-3.853125373E0,8.547920601E0,-1.555480986E0,9.504369671E0
2.511639292E0,-3.638103665E0,8.438146729E0,-1.263338889E0,9.275459215E0
2.521643292E0,-3.505040917E0,8.308934373E0,-1.114333123E0,9.086552732E0
2.531647292E0,-3.453708796E0,8.093698949E0,-1.101349965E0,8.868429335E0
2.541651292E0,-3.485070045E0,7.811893560E0,-1.145433220E0,8.630377250E0
2.551655292E0,-3.585700918E0,7.586667584E0,-1.139390854E0,8.468352120E0
2.561659292E0,-3.605361304E0,7.343691800E0,-9.232846340E-1,8.232915274E0
2.571663292E0,-3.449828291E0,7.116919820E0,-1.045665615E0,7.977799167E0
2.581667292E0,-2.932964541E0,6.126162922E0,-1.987136478E0,7.076783488E0
2.591672292E0,8.229099414E-1,1.923386625E0,-4.495903065E0,4.958804418E0
2.601676292E0,1.632457241E1,-2.456504641E1,-1.346545002E1,3.242300901E1
2.611680292E0,2.558223506E1,-6.031242498E1,-2.517501391E1,7.018419112E1
2.621684292E0,2.124234273E1,-6.624144084E1,7.809506142E0,7.000109996E1
2.631688292E0,3.119408157E1,-7.782886342E1,1.287681666E1,8.483050816E1
2.641692292E0,2.012086314E1,-4.883689472E1,-2.392309347E-1,5.281996451E1
2.651696292E0,9.542824929E0,-1.480903843E1,-6.267628119E0,1.869909862E1
2.661700292E0,3.586156709E0,-3.044318916E0,-4.441373394E0,6.469481836E0
2.671704292E0,9.243731663E-1,2.567639278E0,-3.225669140E0,4.225183855E0
2.681708292E0,6.527656138E-2,4.972463420E0,-3.611752603E0,6.146089030E0
2.691712292E0,6.394251913E-2,5.746493855E0,-3.951673468E0,6.974381942E0
2.701716292E0,-4.623291090E-1,6.008559043E0,-3.566888087E0,7.002800912E0
2.711720292E0,-1.647748879E0,6.267632797E0,-2.786750236E0,7.054379783E0
2.721725292E0,-2.688618462E0,6.556448997E0,-1.909822108E0,7.339149349E0
2.731729292E0,-3.270053892E0,7.016341864E0,-1.041089876E0,7.810644899E0
2.741733292E0,-3.686314835E0,7.504946898E0,-3.679699588E-1,8.369500995E0
2.751737292E0,-4.107421074E0,8.001133432E0,7.946556106E-2,8.994184724E0
2.761741292E0,-4.342077439E0,8.442853737E0,5.853448784E-1,9.511994762E0
2.771745292E0,-4.339500279E0,8.999502820E0,1.058888801E0,1.004706719E1
2.781749292E0,-4.385000095E0,9.274690915E0,1.530385906E0,1.037256952E1
2.791753292E0,-4.370383810E0,9.415912283E0,2.133358677E0,1.059768267E1
2.801757292E0,-4.241657650E0,9.571423076E0,2.533823075E0,1.077144645E1
2.811761292E0,-4.154406668E0,9.645096239E0,2.554675123E0,1.080802208E1
2.821765292E0,-4.189371555E0,9.589828942E0,2.563517575E0,1.077438052E1
2.831769292E0,-4.281043033E0,9.460616586E0,2.568583018E0,1.069711243E1
2.841774292E0,-4.191553444E0,8.537196808E0,2.907904252E0,9.945288168E0
2.851778292E0,-3.622783960E0,7.069374940E0,2.960439438E0,8.477312507E0
2.861782292E0,-2.988083611E0,4.922443998E0,3.936326281E0,6.975224956E0
2.871786292E0,-1.615264088E0,8.235025567E-1,4.775074576E0,5.107697303E0
2.881790292E0,2.838073586E0,-6.003117040E0,-1.786572888E-1,6.642589427E0
2.891794292E0,7.892041345E0,-1.674708286E1,-5.594786675E0,1.934039138E1
2.901798292E0,4.882936994E0,-2.313997237E1,-3.967780209E0,2.398008913E1
2.911802292E0,5.290804551E0,-2.002355377E1,-4.638458183E0,2.122382183E1
2.921806292E0,6.317352841E0,-1.147740137E1,-2.430636091E0,1.332470191E1
2.931810292E0,6.358776271E0,-3.207510611E0,-2.422720715E-2,7.121990378E0
2.941814292E0,6.205171085E0,1.843161657E0,1.248589726E0,6.592447906E0
2.951818292E0,5.663007894E0,4.678501670E0,1.524496590E0,7.502141437E0
2.961823292E0,4.752957483E0,5.754937819E0,4.825647144E-1,7.479490814E0
2.971827292E0,3.454205517E0,6.023771744E0,-6.472645533E-1,6.973973988E0
2.981831292E0,2.170062235E0,5.487696674E0,-1.223296133E0,6.026644035E0
2.991835292E0,8.715081972E-1,4.406481596E0,-1.102762653E0,4.625223461E0
3.001839292E0,-5.433300027E-1,3.351544490E0,-4.796343823E-1,3.429009638E0
3.011843292E0,-1.507842258E0,2.742436527E0,1.831815720E-1,3.134980362E0
3.021847292E0,-1.776663612E0,2.366321397E0,5.878873940E-1,3.016889480E0
3.031851292E0,-1.429719948E0,1.767951261E0,6.278459501E-1,2.358800824E0
3.041855292E0,-1.095215359E0,7.220808470E-1,6.301368892E-1,1.455324682E0
3.051859292E0,-8.103223479E-1,-3.168547690E-1,6.053691070E-1,1.059948587E0
3.061863292E0,-6.073362565E-1,-1.213860335E0,4.432236242E-1,1.427852031E0
3.071867292E0,-5.713004512E-1,-1.983750941E0,3.212027586E-1,2.089215932E0
3.081872292E0,-6.606587702E-1,-2.454285155E0,1.515633380E-1,2.546165171E0
3.091876292E0,-7.898375049E-1,-2.617583270E0,4.628889799E-2,2.734543494E0
3.101880292E0,-9.022215745E-1,-2.459160563E0,-1.246907043E-1,2.622407714E0
3.111884292E0,-1.097510976E0,-2.140567417E0,-4.356280180E-1,2.444653550E0
3.121888292E0,-1.381305588E0,-1.682117059E0,-8.165648353E-1,2.324715263E0
3.131892292E0,-1.678441791E0,-1.357727568E0,-1.148996587E0,2.445564178E0
3.141896292E0,-1.922087374E0,-1.317222151E0,-1.493436180E0,2.767642623E0
3.151900292E0,-2.042190353E0,-1.370030109E0,-1.813554865E0,3.055569535E0
3.161904292E0,-1.988493617E0,-1.467643527E0,-2.320018466E0,3.389774339E0
3.171908167E0,-1.736853429E0,-1.403848650E0,-2.727678155E0,3.525291333E0
3.181912167E0,-1.450023528E0,-1.106825298E0,-2.780450445E0,3.325437588E0
3.191916167E0,-1.423371919E0,-7.864393955E-1,-2.649686823E0,3.108908941E0
3.201921167E0,-1.437293847E0,-5.771470821E-1,-2.491026134E0,2.933278637E0
3.211925167E0,-1.335458154E0,-2.795863706E-1,-2.200294386E0,2.588998340E0
3.221929167E0,-1.015707259E0,2.251528859E-1,-1.631644478E0,1.935101744E0
3.231933167E0,-8.004534173E-1,6.902181995E-1,-9.685959506E-1,1.433633479E0
3.241937167E0,-7.129223531E-1,9.380074114E-1,-3.994196467E-1,1.244046719E0
3.251941167E0,-1.079910857E0,7.104033726E-1,-8.721062943E-1,1.559310681E0
3.261945167E0,-8.055451727E-1,5.759893334E-1,-8.179178810E-1,1.284389504E0
3.271949167E0,-6.853156015E-1,1.804789889E-1,-8.833762908E-1,1.132512168E0
3.281953167E0,-3.280899015E-1,-1.939427876E-1,-9.112768650E-1,9.877663251E-1
3.291957167E0,-1.562741473E-1,-5.915306479E-1,-7.214130950E-1,9.459212283E-1
3.301961167E0,1.273374465E-1,-9.926683527E-1,-6.288902628E-1,1.181993336E0
3.311965167E0,7.996292523E-1,-1.004927040E0,-5.370901465E-1,1.392031294E0
3.321970167E0,7.853863120E-1,-1.120843413E0,1.413646610E-1,1.375901734E0
3.331974167E0,7.130118155E-1,-1.377815092E0,4.638233650E-1,1.619225862E0
3.341978167E0,7.344652498E-1,-1.444019607E0,5.626050568E-1,1.714979964E0
3.351982167E0,8.607233003E-1,-1.294029170E0,6.457501245E-1,1.682958501E0
3.361986167E0,8.116251075E-1,-1.020071914E0,7.233029151E-1,1.490788091E0
3.371990167E0,6.724175209E-1,-7.182485819E-1,8.223021964E-1,1.282266450E0
3.381994167E0,5.021211657E-1,-3.193532842E-1,8.306367445E-1,1.021797234E0
3.391998167E0,3.459016898E-1,5.505562842E-2,8.764555264E-1,9.438503011E-1
3.402002167E0,2.113762611E-1,3.906577402E-1,9.243220031E-1,1.025506977E0
3.412006167E0,1.070350367E-1,6.218010986E-1,1.011120338E0,1.191829452E0
3.422010167E0,-3.756806821E-2,7.710243809E-1,1.078500289E0,1.326292890E0
3.432014167E0,-1.076007548E-1,8.502091295E-1,1.172020656E0,1.451918009E0
3.442019167E0,-1.470609820E-1,9.232250655E-1,1.288766091E0,1.592133628E0
3.452023167E0,-1.769519484E-1,9.184432125E-1,1.380403655E0,1.667442406E0
3.462027167E0,-1.787824193E-1,7.811523432E-1,1.445494859E0,1.652760577E0
3.472031167E0,-1.714523497E-1,6.970495015E-1,1.531103944E0,1.691021349E0
3.482035167E0,-1.367394769E-1,5.424637377E-1,1.614684044E0,1.708850243E0
3.492039167E0,-1.906777024E-3,3.314745623E-1,1.675424628E0,1.707901257E0
3.502043167E0,1.393093282E-1,7.534312785E-2,1.710977161E0,1.718291745E0
3.512047167E0,2.947680813E-1,-1.328124869E-1,1.719330639E0,1.749464268E0
3.522051167E0,4.478639746E-1,-2.203523219E-1,1.725754244E0,1.796486849E0
3.532055167E0,6.156062660E-1,-2.239659011E-1,1.738706996E0,1.858018789E0
3.542059167E0,6.991074291E-1,-1.187253749E-1,1.765093142E0,1.902209429E0
3.552063167E0,7.862867832E-1,7.988115191E-2,1.784049815E0,1.951271802E0
3.562068167E0,8.353639260E-1,3.207688951E-1,1.821651943E0,2.029566795E0
3.572072167E0,8.209873769E-1,6.734893155E-1,1.851561767E0,2.134452882E0
3.582076167E0,8.084234646E-1,1.078055243E0,1.811962084E0,2.258087287E0
3.592080167E0,7.682475382E-1,1.555031335E0,1.771246752E0,2.479040497E0
3.602084167E0,6.855576763E-1,2.067121711E0,1.712691565E0,2.770612548E0
3.612088167E0,5.702336267E-1,2.630447145E0,1.653260465E0,3.158747969E0
3.622092167E0,4.511474785E-1,3.236525080E0,1.603555623E0,3.640057593E0
3.632096167E0,3.549870935E-1,3.796887730E0,1.542345800E0,4.113538967E0
3.642100167E0,2.174667209E-1,4.314815966E0,1.468873197E0,4.563169629E0
3.652104167E0,1.200316429E-1,4.772312644E0,1.386623923E0,4.971126780E0
3.662108167E0,1.322698653E-2,5.148290364E0,1.294988698E0,5.308678212E0
3.672113167E0,-8.732553452E-2,5.395542217E0,1.208370384E0,5.529887933E0
3.682117167E0,-2.038576189E-1,5.511228209E0,1.106419574E0,5.624887428E0
3.692121167E0,-2.789832303E-1,5.512721003E0,1.066684163E0,5.621898221E0
3.702125167E0,-2.756704903E-1,5.437804137E0,9.775936460E-1,5.531852980E0
3.712129167E0,-1.505785207E-1,5.296697375E0,8.145767820E-1,5.361083128E0
3.722133167E0,1.669374222E-1,5.111734741E0,5.916610408E-1,5.148569020E0
3.732137167E0,5.728299366E-1,4.879916030E0,3.652860868E-1,4.926981684E0
3.742141167E0,1.200086341E0,4.682085428E0,-1.242065183E-1,4.835034482E0
3.752145167E0,1.794212422E0,4.425862777E0,-1.201413367E0,4.924515572E0
3.762149167E0,2.058241544E0,4.075002356E0,-2.047759241E0,5.003530790E0
3.772153167E0,2.538343558E0,3.650639511E0,-3.268249733E0,5.518316154E0
3.782158167E0,3.082184899E0,2.893219846E0,-4.966798053E0,6.522244072E0
3.792162167E0,2.705991417E0,2.713406855E0,-5.357297333E0,6.586774706E0
3.802166167E0,2.177745622E0,2.842049108E0,-4.323975044E0,5.613962889E0
3.812170167E0,2.078488259E0,2.778920229E0,-2.956487889E0,4.558873953E0
3.822174167E0,2.563007990E0,2.532138492E0,-1.349557253E0,3.847341950E0
3.832178167E0,3.614648144E0,2.099374368E0,-2.856773420E-1,4.189828813E0
3.842182167E0,4.461398061E0,1.358268435E0,1.619772291E-1,4.666390728E0
3.852186167E0,5.223422408E0,5.483232325E-1,1.659802330E-1,5.254745422E0
3.862190167E0,6.098351811E0,-5.599147528E-1,-3.643237082E-1,6.134829346E0
3.872194167E0,6.467728025E0,-2.360720934E0,-1.705571995E0,7.093199910E0
3.882198167E0,6.824556699E0,-4.297693564E0,-4.157372668E0,9.073504924E0
3.892203167E0,8.174825558E0,-5.384461159E0,-6.318581926E0,1.165095157E1
3.902207167E0,1.158898145E1,-6.121440711E0,-6.523311657E0,1.464001784E1
3.912211167E0,1.198478181E1,-7.747448473E0,-5.781176029E0,1.539740073E1
3.922215167E0,9.355114689E0,-1.015576457E1,-4.369789149E0,1.448284441E1
3.932219167E0,8.134423052E0,-1.274898483E1,-3.265139015E0,1.547147651E1
3.942223167E0,6.994140571E0,-1.470359208E1,-3.829750544E0,1.672664377E1
3.952227167E0,6.568631086E0,-1.683109565E1,-3.952732691E0,1.849477739E1
3.962231167E0,5.452609288E0,-1.881858764E1,-3.145692093E0,1.984352709E1
3.972235167E0,4.473829534E0,-2.009313330E1,-3.654979022E0,2.090712865E1
3.982239167E0,3.447651958E0,-2.105538385E1,-2.574782236E0,2.149057926E1
3.992243167E0,8.265667900E-1,-2.150586270E1,-1.958224628E0,2.161064522E1
4.002248167E0,-8.140435159E-1,-2.113413883E1,-1.313200436E0,2.119054002E1
4.012252167E0,-1.786932492E0,-2.004683973E1,-7.995982620E-1,2.014220117E1
4.022256167E0,-2.233938388E0,-1.797887602E1,-8.074154046E-1,1.813511464E1
4.032260167E0,-2.395223014E0,-1.584864414E1,-1.073561365E0,1.606453075E1
4.042264167E0,-2.141157986E0,-1.410713048E1,-1.342835002E0,1.433174426E1
4.052268167E0,-1.716774968E0,-1.314362277E1,-1.287978179E0,1.331769589E1
4.062272167E0,-1.042508265E0,-1.253497323E1,-1.142723986E0,1.263005129E1
4.072276167E0,-4.556632832E-1,-1.185121855E1,-1.175008510E0,1.191803906E1
4.082280167E0,-6.166882932E-2,-1.082243136E1,-8.545088795E-1,1.085628891E1
4.092284167E0,4.897888032E-1,-8.986819040E0,-1.108363116E-1,9.000838529E0
4.102288167E0,8.196547964E-1,-6.505730833E0,4.035593292E-1,6.569568311E0
4.112293167E0,6.052087471E-1,-3.679326535E0,9.451880845E-1,3.846700131E0
4.122297167E0,-8.481971025E-2,-6.729209661E-1,1.680902300E0,1.812580909E0
4.132301167E0,-8.902613872E-1,2.394297400E0,2.304863652E0,3.440584519E0
4.142305167E0,-1.164048489E0,5.602700297E0,3.108054736E0,6.511932412E0
4.152309167E0,-1.356617766E0,8.165422651E0,3.741868646E0,9.083838384E0
4.162313167E0,-2.046314394E0,9.744290160E0,3.826050425E0,1.066664217E1
4.172317292E0,-3.088757755E0,1.064630737E1,3.892092972E0,1.174873069E1
4.182321292E0,-4.292292784E0,1.092117913E1,3.920857472E0,1.237210792E1
4.192325292E0,-5.284547446E0,1.059130262E1,3.123032963E0,1.224154679E1
4.202329292E0,-6.006656359E0,1.032285695E1,2.204778031E0,1.214505423E1
4.212334292E0,-6.585007968E0,1.010501425E1,1.853201326E0,1.220278649E1
4.222338292E0,-6.982877079E0,9.656662617E0,1.723934445E0,1.204091588E1
4.232342292E0,-7.319614720E0,9.285449792E0,1.881084505E0,1.197225194E1
4.242346292E0,-7.429723054E0,8.997893667E0,1.929310147E0,1.182730370E1
4.252350292E0,-7.338203019E0,9.021996474E0,1.783804086E0,1.176552595E1
4.262354292E0,-7.152083806E0,9.110281245E0,1.868579357E0,1.173205506E1
4.272358292E0,-7.184396104E0,8.991641239E0,1.506388786E0,1.160751337E1
4.282362292E0,-7.336064107E0,9.200162889E0,1.791997350E0,1.190260847E1
4.292366292E0,-7.328258659E0,9.580732428E0,2.237090914E0,1.226777831E1
4.302370292E0,-7.241529833E0,9.798038351E0,2.277422669E0,1.239467482E1
4.312375292E0,-6.778386499E0,9.931319200E0,2.323151404E0,1.224641405E1
4.322379292E0,-5.907495768E0,1.001762527E1,2.537824910E0,1.190343974E1
4.332383292E0,-5.220197668E0,1.008856720E1,2.133784647E0,1.155779775E1
4.342387292E0,-4.693471711E0,1.015282810E1,1.072003959E0,1.123644907E1
4.352391292E0,-4.248502693E0,1.027804622E1,2.464366778E-1,1.112424111E1
4.362395292E0,-3.932209842E0,1.083087240E1,-1.168332890E-1,1.152318190E1
4.372399292E0,-3.564767886E0,1.160600971E1,-2.130901531E-1,1.214299958E1
4.382403292E0,-3.221110943E0,1.186012502E1,-1.945766989E-1,1.229129698E1
4.392407292E0,-3.028077105E0,1.177784768E1,-7.607797667E-2,1.216111569E1
4.402412292E0,-2.962918949E0,1.162769937E1,1.364832958E-1,1.200003788E1
4.412416292E0,-2.951024543E0,1.142075355E1,3.753737032E-1,1.180182455E1
4.422420292E0,-2.993259567E0,1.116265277E1,5.651497650E-1,1.157081734E1
4.432424292E0,-3.084945955E0,1.079322568E1,7.445914578E-1,1.125011238E1
4.442428292E0,-3.094741503E0,1.036212685E1,8.504951314E-1,1.084778501E1
4.452432292E0,-2.981729442E0,1.001048816E1,8.184115322E-1,1.047713611E1
4.462436292E0,-2.761470968E0,9.654288062E0,6.923525063E-1,1.006530436E1
4.472440292E0,-2.540738577E0,9.357223195E0,4.835483623E-1,9.708078979E0
4.482444292E0,-2.407466207E0,9.221895236E0,1.838762212E-1,9.532736005E0
4.492448292E0,-2.383373339E0,9.110623307E0,-1.434859943E-1,9.418307371E0
4.502453292E0,-2.354585158E0,9.027361879E0,-4.516074351E-1,9.340304226E0
4.512457292E0,-2.276550264E0,8.943946086E0,-7.816826856E-1,9.262174718E0
4.522461292E0,-2.171760851E0,8.780571957E0,-1.057987014E0,9.106828515E0
4.532465292E0,-2.152216533E0,8.529303067E0,-1.322799225E0,8.895551956E0
4.542469292E0,-2.231777549E0,8.057081346E0,-1.592259972E0,8.510739255E0
4.552473292E0,-2.172983504E0,7.156728249E0,-2.203716323E0,7.797241959E0
4.562477292E0,-1.827650163E0,6.002682592E0,-3.606811706E0,7.237512977E0
4.572481292E0,-3.862182418E-1,4.455630367E0,-4.458546374E0,6.315096378E0
4.582485292E0,4.410378473E0,-5.878708756E0,-3.104574473E0,7.978034694E0
4.592490292E0,1.202983461E1,-4.177266767E1,-8.729902325E0,4.433828909E1
4.602494292E0,1.769616197E1,-7.079779710E1,-5.734400643E0,7.320085774E1
4.612498292E0,9.625571802E0,-6.617939954E1,4.058615534E0,6.699878295E1
4.622502292E0,1.065817605E1,-4.747259429E1,3.958360344E-2,4.865434711E1
4.632506292E0,1.041818878E1,-2.510390943E1,-5.116499637E0,2.765725031E1
4.642510292E0,5.985781800E0,-1.579591862E1,-5.444761155E0,1.774784643E1
4.652514292E0,2.248114378E0,-1.137969206E1,-2.838887519E0,1.194197186E1
4.662518292E0,4.805475712E-2,-7.298571761E0,-1.998076619E0,7.567282814E0
4.672522292E0,-7.733357853E-1,-3.728267730E0,-4.157600709E0,5.637700964E0
4.682526292E0,-2.308048046E-1,-8.529175597E-1,-6.508125268E0,6.567833260E0
4.692531292E0,1.049837457E0,1.257671767E0,-6.838068445E0,7.031577136E0
4.702535292E0,1.331717106E0,2.803346972E0,-5.955942289E0,6.716060843E0
4.712539292E0,2.076068535E-1,3.801678354E0,-4.956068412E0,6.249677833E0
4.722543292E0,-9.026118761E-1,4.739013335E0,-3.787597089E0,6.133420522E0
4.732547292E0,-1.863946754E0,5.753143308E0,-2.766520916E0,6.650307768E0
4.742551292E0,-2.506901617E0,6.730255144E0,-1.916124237E0,7.433197301E0
4.752555292E0,-2.821504624E0,7.545514880E0,-1.287867812E0,8.158081064E0
4.762559292E0,-2.931514139E0,8.178825638E0,-8.024356234E-1,8.725300390E0
4.772563292E0,-2.791477125E0,8.608408878E0,-5.218102026E-1,9.064730213E0
4.782568292E0,-2.483097310E0,8.893982797E0,-2.184870601E-1,9.236689821E0
4.792572292E0,-1.923670215E0,8.991169369E0,7.767324328E-2,9.194980524E0
4.802576292E0,-1.073815134E0,8.931848196E0,2.707566364E-1,9.000238903E0
4.812580292E0,-3.865453935E-1,8.055228363E0,4.450609656E-1,8.076769192E0
4.822584292E0,4.317350149E-2,6.603886288E0,5.283694629E-1,6.625130365E0
4.832588292E0,2.111333093E-1,5.366140662E0,3.504796211E-1,5.381717091E0
4.842592292E0,2.297593224E-1,4.089340898E0,2.376707514E-1,4.102680309E0
4.852596292E0,2.838042596E-1,2.818566105E0,9.404442385E-2,2.834378962E0
4.862600292E0,4.391978163E-1,1.732611274E0,1.084073782E-2,1.787443445E0
4.872605292E0,6.869528219E-1,8.983901864E-1,1.124982364E-1,1.136514390E0
4.882609292E0,9.459537774E-1,3.498775041E-1,3.350023337E-1,1.062764970E0
4.892613292E0,1.086313850E0,-1.557552069E-1,6.094846697E-1,1.255312323E0
4.902617292E0,1.267720500E0,-7.179340017E-1,8.611010304E-1,1.692347329E0
4.912621292E0,1.232499796E0,-1.232358001E0,1.113446685E0,2.068217956E0
4.922625292E0,1.221886515E0,-1.855471215E0,1.132026798E0,2.493444356E0
4.932629292E0,1.251716963E0,-2.299785345E0,1.339729399E0,2.941204320E0
4.942633292E0,1.368949251E0,-2.441140029E0,1.325491575E0,3.096791019E0
4.952637292E0,1.132043170E0,-2.506934654E0,1.576705209E0,3.170527151E0
4.962642292E0,1.068301502E0,-2.422843507E0,1.618671845E0,3.103471814E0
4.972646292E0,1.201957743E0,-2.141437483E0,1.568034811E0,2.913621471E0
4.982650292E0,1.291529193E0,-1.966674732E0,1.477839171E0,2.778464643E0
4.992654292E0,1.275857193E0,-1.941472648E0,1.405482070E0,2.715236172E0
5.002658292E0,1.336156312E0,-1.856774560E0,1.577853456E0,2.778947100E0
5.012662292E0,1.283724037E0,-1.833958139E0,2.021511090E0,3.016265397E0
5.022666292E0,1.111986635E0,-1.873301130E0,2.309032717E0,3.174492635E0
5.032670292E0,6.814067379E-1,-1.890727587E0,2.045351211E0,2.867512428E0
5.042675292E0,2.310901487E-1,-2.081788867E0,2.109454236E0,2.972716723E0
5.052679292E0,-3.430830395E-1,-2.248782422E0,2.135847398E0,3.120348132E0
5.062683292E0,-8.337881014E-1,-2.050615606E0,1.630378994E0,2.749247647E0
5.072687292E0,-1.104306902E0,-1.615660529E0,1.259837576E0,2.327454274E0
5.082691292E0,-1.228988836E0,-1.017972763E0,1.194457519E0,1.993341634E0
5.092695292E0,-1.221963114E0,-3.119214731E-1,1.101079751E0,1.674176058E0
5.102699292E0,-1.208902773E0,3.404085231E-1,9.862077641E-1,1.596849909E0
5.112703292E0,-1.298366342E0,6.954970658E-1,6.804416549E-1,1.622489498E0
5.122707292E0,-1.197660624E0,9.707576662E-1,5.622038647E-1,1.640985863E0
5.132712292E0,-1.240064632E0,1.044251320E0,4.715861285E-1,1.688376317E0
5.142716292E0,-1.167346027E0,9.224924093E-1,2.468237635E-1,1.508181342E0
5.152720292E0,-9.286466038E-1,8.279242212E-1,1.686278522E-1,1.255499257E0
5.162724292E0,-8.557008344E-1,6.813239998E-1,1.878290121E-1,1.109822530E0
5.172727292E0,-7.074297711E-1,5.329158193E-1,-1.010398865E-2,8.857529238E-1
5.182731292E0,-5.765676230E-1,3.575841343E-1,-1.405038413E-1,6.928477224E-1
5.192735292E0,-4.368510363E-1,1.682542151E-1,-2.172661614E-1,5.160938807E-1
5.202739292E0,-3.067525345E-1,-4.305714190E-2,-3.462265392E-1,4.645684571E-1
5.212744292E0,-2.174041557E-1,-3.048504353E-1,-4.365729646E-1,5.751472057E-1
5.222748292E0,-1.727480927E-1,-4.771772361E-1,-5.781644976E-1,7.692946149E-1
5.232752292E0,-1.438233787E-1,-5.138527268E-1,-7.483909786E-1,9.191402754E-1
5.242756292E0,-2.429711062E-1,-4.679743034E-1,-9.598824298E-1,1.095175413E0
5.252760292E0,-3.775854126E-1,-3.633325320E-1,-1.145876513E0,1.260005657E0
5.262764292E0,-5.074052945E-1,-2.397329181E-1,-1.351233065E0,1.463134581E0
5.272768292E0,-5.780267957E-1,-1.256952560E-1,-1.497614601E0,1.610206125E0
5.282772292E0,-6.250232068E-1,-1.181541020E-1,-1.674582921E0,1.791324192E0
5.292777292E0,-6.602059034E-1,-2.056266940E-1,-1.738745588E0,1.871200254E0
5.302781292E0,-6.465716583E-1,-3.641476339E-1,-1.775551472E0,1.924380793E0
5.312785292E0,-4.918616411E-1,-4.070164955E-1,-1.989118100E0,2.089062258E0
5.322789292E0,-3.654009846E-1,-4.806972599E-1,-2.141055660E0,2.224568963E0
5.332793292E0,-2.937325394E-1,-5.623431015E-1,-2.222728983E0,2.311500098E0
5.342797292E0,-2.064429653E-1,-6.424441087E-1,-2.235453109E0,2.335081098E0
5.352801292E0,-1.599353814E-1,-7.053946477E-1,-2.122001923E0,2.241886058E0
5.362805292E0,-1.820749864E-1,-7.351148754E-1,-1.908742273E0,2.053495130E0
5.372809292E0,-2.507429329E-1,-7.176469034E-1,-1.650737391E0,1.817367060E0
5.382814292E0,-2.740493497E-1,-7.364340073E-1,-1.308169491E0,1.526022775E0
5.392818292E0,-3.217731544E-1,-7.621290118E-1,-9.317526448E-1,1.246010267E0
5.402822292E0,-3.712941009E-1,-7.523834574E-1,-5.530752647E-1,1.004904187E0
5.412826292E0,-4.873186469E-1,-6.866589993E-1,-2.509531403E-1,8.786111333E-1
5.422830292E0,-6.263139796E-1,-5.239701641E-1,-2.133882880E-2,8.168655211E-1
5.432834292E0,-7.864165914E-1,-3.153502804E-1,1.536882345E-1,8.611137718E-1
5.442838292E0,-9.326797208E-1,-2.374203444E-2,2.514501719E-1,9.662723916E-1
5.452842292E0,-1.060532599E0,2.800675964E-1,3.265693331E-1,1.144471399E0
5.462847292E0,-1.170005048E0,5.598942876E-1,4.069685483E-1,1.359417826E0
5.472851292E0,-1.240967149E0,8.221255374E-1,4.984517455E-1,1.569822922E0
5.482855292E0,-1.273863292E0,1.011853652E0,5.858828588E-1,1.729113711E0
5.492859292E0,-1.261709855E0,1.112508207E0,6.744669700E-1,1.812316739E0
5.502863292E0,-1.206470039E0,1.070633957E0,7.470379329E-1,1.777608702E0
5.512867292E0,-1.064656641E0,8.201912785E-1,8.144691932E-1,1.571485782E0
5.522871292E0,-8.534268522E-1,4.062832546E-1,9.028042495E-1,1.307080330E0
5.532876292E0,-5.791272417E-1,-1.423849636E-1,1.027140613E0,1.187720370E0
5.542880292E0,-2.855443910E-1,-6.989831758E-1,1.142030214E0,1.369067598E0
5.552884292E0,5.979421198E-2,-1.180790822E0,1.238702230E0,1.712374237E0
5.562888292E0,3.446460003E-1,-1.533931657E0,1.400428029E0,2.105451462E0
5.572892292E0,5.839041245E-1,-1.613358480E0,1.521810379E0,2.293420250E0
5.582896292E0,7.472136417E-1,-1.436434599E0,1.573046021E0,2.257464588E0
5.592900292E0,8.568848956E-1,-1.102542213E0,1.574199092E0,2.104270381E0
5.602904292E0,9.413192743E-1,-8.086091137E-1,1.529573143E0,1.969650901E0
5.612909292E0,1.049772846E0,-5.166781014E-1,1.405164274E0,1.828514677E0
5.622913292E0,1.107686008E0,-1.933025175E-1,1.244364674E0,1.677133745E0
5.632917292E0,1.112503822E0,1.812794727E-1,9.414882588E-1,1.468648066E0
5.642921292E0,1.387698056E0,7.688030237E-1,-3.049299574E-1,1.615470911E0
5.652925292E0,2.287364982E0,1.321766022E0,-2.661087724E0,3.749732237E0
5.662929292E0,3.444008265E0,1.459197809E0,-5.576984242E0,6.715147386E0
5.672933292E0,3.724904412E0,1.237555007E0,-7.141147174E0,8.148769124E0
5.682937292E0,2.718630466E0,8.356331903E-1,-6.184589471E0,6.807230080E0
5.692942292E0,1.407069297E0,5.906775391E-1,-4.080613929E0,4.356621856E0
5.702946292E0,4.317961183E-1,8.240989727E-1,-2.295842568E0,2.477191979E0
5.712950292E0,-1.489051938E-1,1.423865424E0,-1.253814944E0,1.903054759E0
5.722954292E0,-4.813960022E-1,2.118660239E0,-5.894193645E-1,2.251194906E0
5.732958292E0,-5.162269887E-1,2.481460090E0,-1.831244154E-1,2.541194411E0
5.742962292E0,-5.556369299E-1,2.593761714E0,-6.870829225E-2,2.653498267E0
5.752966292E0,-7.376335636E-1,2.436172235E0,1.443794489E-1,2.549486979E0
5.762970292E0,-8.106819516E-1,1.883155442E0,3.788574743E-1,2.084949072E0
5.772975292E0,-5.704303855E-1,1.398185622E0,8.007470937E-1,1.709242454E0
5.782979292E0,-4.325618112E-1,7.319784290E-1,1.233141675E0,1.497845296E0
5.792983292E0,-2.075673848E-1,4.695898890E-3,1.512551898E0,1.526734919E0
5.802987292E0,-6.100897104E-2,-6.894066060E-1,1.799974122E0,1.928447667E0
5.812991292E0,3.970347136E-2,-1.423273101E0,2.079547044E0,2.520277483E0
5.822995292E0,2.143899161E-1,-2.065773343E0,2.208467624E0,3.031618674E0
5.832999292E0,4.082049420E-1,-2.535258567E0,2.109033383E0,3.322978948E0
5.843004292E0,3.287965375E-1,-2.872616597E0,1.976672155E0,3.502465715E0
5.853008292E0,6.937926024E-2,-2.987680446E0,1.185360275E0,3.214984745E0
5.863012292E0,-7.660320282E-2,-2.807583865E0,-6.478013277E-2,2.809375674E0
5.873016292E0,6.443573177E-2,-2.609021192E0,-1.121802283E0,2.840701306E0
5.883020292E0,4.723930442E-1,-2.410120550E0,-1.708920110E0,2.992030113E0
5.893024292E0,9.664938766E-1,-2.319969349E0,-1.603941540E0,2.981442043E0
5.903028292E0,1.224590268E0,-2.374428561E0,-1.194119696E0,2.926338013E0
5.913033292E0,1.387831957E0,-2.399684440E0,-7.481465650E-1,2.871286512E0
5.923037292E0,1.459820830E0,-2.183804069E0,-3.691405714E-1,2.652610380E0
5.933041292E0,1.365492378E0,-1.662068126E0,-2.619413741E-1,2.166945586E0
5.943045292E0,1.168587975E0,-1.259482650E0,-2.299746461E-1,1.733430916E0
5.953049292E0,9.593216819E-1,-9.450772798E-1,-1.777752364E-1,1.358334712E0
5.963053292E0,7.897316703E-1,-7.432711565E-1,-6.617169701E-2,1.086511305E0
5.973057292E0,6.309981841E-1,-6.009043193E-1,3.296309352E-2,8.719697671E-1
5.983061292E0,4.153929242E-1,-4.599946082E-1,1.650939412E-1,6.414065251E-1
5.993066292E0,1.767908576E-1,-2.201441610E-1,2.645876777E-1,3.869432751E-1
6.003070292E0,-5.639493316E-2,6.187874436E-2,3.988690583E-1,4.075609073E-1
6.013074292E0,-2.810432044E-1,3.930346334E-1,5.633138124E-1,7.421482042E-1
6.023078292E0,-5.068068320E-1,8.255888432E-1,7.065307617E-1,1.199014520E0
6.033082292E0,-6.436968747E-1,1.384824150E0,7.131744412E-1,1.685438037E0
6.043086292E0,-7.698303795E-1,1.934819686E0,5.478092623E-1,2.153197858E0
6.053090292E0,-8.391953140E-1,2.331109464E0,3.448196626E-1,2.501443725E0
6.063095292E0,-8.167703649E-1,2.551165332E0,2.445866919E-1,2.689866359E0
6.073099292E0,-7.586537191E-1,2.576930503E0,2.331564816E-1,2.696384288E0
6.083103292E0,-5.987133676E-1,2.527296413E0,2.279794300E-1,2.607232149E0
6.093107292E0,-4.218105358E-1,2.380685082E0,2.034772575E-1,2.426311724E0
6.103111292E0,-2.591026971E-1,2.188840860E0,1.809081745E-1,2.211534826E0
6.113115292E0,-1.366310111E-1,1.976897419E0,1.500617731E-1,1.987287089E0
6.123119292E0,-5.569589853E-2,1.800568784E0,1.147059258E-1,1.805078233E0
6.133124292E0,2.959041953E-2,1.664658442E0,1.045248270E-1,1.668199257E0
6.143128292E0,9.291634977E-2,1.551444068E0,7.628043652E-2,1.556094743E0
6.153132292E0,1.646546692E-1,1.475730227E0,4.967330296E-2,1.485718109E0
6.163136292E0,2.277888107E-1,1.430754029E0,2.325784843E-2,1.448960234E0
6.173143792E0,2.573441470E-1,1.403233523E0,-3.104396425E-2,1.426973741E0
6.183147792E0,3.192041802E-1,1.328145334E0,-6.008017737E-2,1.367285985E0
6.193151792E0,3.875151542E-1,1.207581010E0,-6.569116551E-2,1.269935124E0
6.203156792E0,4.742141595E-1,1.024952000E0,-4.099018771E-2,1.130082239E0
6.213160792E0,4.741159263E-1,8.746066368E-1,5.779461041E-3,9.948648566E-1
6.223164792E0,4.491910002E-1,6.632952797E-1,3.767945766E-2,8.019681567E-1
6.233168792E0,4.903065741E-1,4.111604172E-1,3.666083615E-2,6.409348190E-1
6.243172792E0,5.150344491E-1,1.364553022E-1,4.211519200E-2,5.344662970E-1
6.253176792E0,5.038764998E-1,-1.428761297E-1,1.243656357E-1,5.383046785E-1
6.263180792E0,5.048965466E-1,-4.116866666E-1,1.964114821E-1,6.804292061E-1
6.273185792E0,4.691709360E-1,-6.033531332E-1,2.863252866E-1,8.161731068E-1
6.283189792E0,3.929124266E-1,-6.842581326E-1,3.704024005E-1,8.716577914E-1
6.293193792E0,2.513352558E-1,-6.979944116E-1,4.374220169E-1,8.612221724E-1
6.303197792E0,1.208794892E-1,-6.635560656E-1,4.590859509E-1,8.158911774E-1
6.313201792E0,1.790358961E-2,-6.547168297E-1,4.605641270E-1,8.006834459E-1
6.323205792E0,-5.929281324E-2,-6.542712718E-1,5.001755047E-1,8.256888459E-1
6.333209792E0,-1.880961567E-1,-7.004081422E-1,5.178165543E-1,8.911148712E-1
6.343214792E0,-3.341710058E-1,-7.322649425E-1,5.188865948E-1,9.576666985E-1
6.353218792E0,-4.264184341E-1,-7.609005117E-1,5.147876966E-1,1.012822118E0
6.363222792E0,-5.100131527E-1,-7.793385369E-1,5.375976849E-1,1.075403758E0
6.373226792E0,-5.740524432E-1,-7.987378442E-1,5.435630143E-1,1.123823430E0
6.383230792E0,-5.939426243E-1,-8.521404648E-1,5.899138927E-1,1.194533220E0
6.393234792E0,-6.363668051E-1,-8.987901360E-1,6.121812594E-1,1.259981077E0
6.403238792E0,-6.734641725E-1,-9.346078402E-1,6.339633071E-1,1.314897441E0
6.413243792E0,-7.110059282E-1,-9.105178964E-1,6.281687164E-1,1.314978405E0
6.423247792E0,-7.636098191E-1,-7.666091484E-1,6.058639276E-1,1.240105093E0
6.433251792E0,-8.347219017E-1,-5.386577851E-1,5.489845526E-1,1.135031674E0
6.443255792E0,-9.093785664E-1,-2.694566542E-1,5.040218031E-1,1.074064357E0
6.453259792E0,-9.317307177E-1,-5.173324049E-2,4.636152041E-1,1.041987292E0
6.463263792E0,-8.953373551E-1,9.872029603E-2,3.211817086E-1,9.563118562E-1
6.473268792E0,-7.955651450E-1,2.221094102E-1,1.867039347E-1,8.468263395E-1
6.483272792E0,-6.591203678E-1,3.192451108E-1,4.097144008E-2,7.335092084E-1
6.493276792E0,-5.272168306E-1,3.454248494E-1,-6.209216774E-2,6.333493114E-1
6.503280792E0,-4.390557289E-1,3.317996675E-1,-9.477517962E-2,5.584293036E-1
6.513284792E0,-3.578194848E-1,2.541176534E-1,-6.888487816E-2,4.442473319E-1
6.523288792E0,-3.009333855E-1,1.316447979E-1,-3.817296495E-2,3.306787423E-1
6.533292792E0,-2.910922292E-1,-2.109266102E-2,-3.515696883E-2,2.939653019E-1
6.543297792E0,-2.593146586E-1,-2.402585828E-1,-5.361662865E-2,3.575514252E-1
6.553301792E0,-1.891053861E-1,-4.491123551E-1,-5.296640913E-2,4.901715976E-1
6.563305792E0,-1.780231583E-1,-6.063165021E-1,1.971388757E-2,6.322187778E-1
6.573309792E0,-1.668883055E-1,-6.974634844E-1,1.812865259E-5,7.171520194E-1
6.583313792E0,-1.798077285E-1,-7.184479719E-1,-4.913298368E-2,7.422347053E-1
6.593317792E0,-1.883230287E-1,-7.053537172E-1,-4.539368927E-2,7.314711317E-1
6.603321792E0,-2.200219542E-1,-6.912192428E-1,3.908280084E-3,7.254026307E-1
6.613326792E0,-2.416955361E-1,-6.855620617E-1,3.310108781E-2,7.276728348E-1
6.623330792E0,-2.656849077E-1,-7.170855707E-1,3.628314257E-2,7.655825575E-1
6.633334792E0,-2.500564697E-1,-8.005306005E-1,7.584072590E-2,8.420981512E-1
6.643338792E0,-2.273096314E-1,-9.190624326E-1,1.214478385E-1,9.545129654E-1
6.653342792E0,-2.194500965E-1,-9.569026887E-1,1.631174362E-1,9.952026922E-1
6.663346792E0,-2.701416555E-1,-8.925692832E-1,1.932142246E-1,9.523592684E-1
6.673350792E0,-3.658491737E-1,-7.431214678E-1,2.463794482E-1,8.641631595E-1
6.683355792E0,-4.905416322E-1,-5.480998689E-1,3.032190621E-1,7.956043984E-1
6.693359792E0,-6.135191023E-1,-2.832695317E-1,3.156245148E-1,7.458325220E-1
6.703363792E0,-7.309186211E-1,-3.668952405E-2,3.014157808E-1,7.914793900E-1
6.713367792E0,-8.003946528E-1,1.589717603E-1,2.904148293E-1,8.661664931E-1
6.723371792E0,-8.176535869E-1,2.182520020E-1,2.723714912E-1,8.890318069E-1
6.733375792E0,-8.134827679E-1,2.305855340E-1,2.724124217E-1,8.883312612E-1
6.743380792E0,-7.874202660E-1,2.095554382E-1,2.648543108E-1,8.567916683E-1
6.753384792E0,-7.469022775E-1,2.037883294E-1,2.547807276E-1,8.150496393E-1
6.763388792E0,-7.122955316E-1,2.142881745E-1,2.712499952E-1,7.917454806E-1
6.773392792E0,-6.829012862E-1,1.892281777E-1,3.264594054E-1,7.802161324E-1
6.783396792E0,-6.296293509E-1,1.691248655E-1,3.982678914E-1,7.639722855E-1
6.793400792E0,-5.434393457E-1,1.707340193E-1,3.993624902E-1,6.956772429E-1
6.803404792E0,-4.269128162E-1,1.501255077E-1,4.515243316E-1,6.392702423E-1
6.813409792E0,-2.577324021E-1,1.581315154E-1,5.034955537E-1,5.873153666E-1
6.823413792E0,-1.038281313E-1,1.528590810E-1,5.385180366E-1,5.693398416E-1
6.833417792E0,1.562668383E-3,1.136552542E-1,6.083010471E-1,6.188296394E-1
6.843421792E0,1.027759248E-1,8.893381119E-2,5.352190375E-1,5.522060590E-1
6.853425792E0,2.074258822E-1,1.451980591E-1,5.550112778E-1,6.100372869E-1
6.863429792E0,2.946452898E-1,2.663389188E-1,5.112513006E-1,6.474026250E-1
6.873433792E0,3.451737115E-1,5.065431225E-1,4.828806102E-1,7.803233367E-1
6.883438792E0,3.559469140E-1,7.889285553E-1,4.895160306E-1,9.943502477E-1
6.893442792E0,3.508270919E-1,1.077230201E0,4.978635156E-1,1.237486418E0
6.903446792E0,3.300019410E-1,1.382933160E0,5.095544386E-1,1.510314912E0
6.913450792E0,2.784800774E-1,1.701484206E0,4.967192155E-1,1.794249045E0
6.923454792E0,2.146784762E-1,2.025479595E0,4.725006330E-1,2.090911592E0
6.933458792E0,1.806953359E-1,2.414853287E0,4.430528855E-1,2.461800776E0
6.943463792E0,1.991555804E-1,2.819073644E0,3.361453182E-1,2.846020525E0
6.953467792E0,1.680887389E-1,3.290068619E0,2.658483374E-1,3.305068937E0
6.963471792E0,1.128138399E-1,3.868131959E0,1.888030851E-1,3.874379747E0
6.973475792E0,2.247172683E-2,4.424248361E0,1.484263068E-1,4.426794428E0
6.983479792E0,-2.580522448E-2,4.939364086E0,-5.395986021E-2,4.939726223E0
6.993483792E0,8.142160088E-2,5.350141511E0,-2.943856734E-1,5.358853104E0
7.003487792E0,5.314816435E-1,5.617003171E0,-8.541179931E-1,5.706374936E0
7.013492792E0,1.230741831E0,5.800851910E0,-1.513595041E0,6.120096264E0
7.023496792E0,1.821833353E0,5.786649608E0,-2.021759012E0,6.394677471E0
7.033500792E0,2.485324515E0,5.554540290E0,-2.908577558E0,6.744596295E0
7.043504792E0,2.620753046E0,5.032830659E0,-3.252445879E0,6.540346716E0
7.053508792E0,2.285861517E0,4.592911296E0,-2.865831488E0,5.876477446E0
7.063512792E0,2.243630733E0,4.341484532E0,-2.418722974E0,5.452759634E0
7.073517792E0,2.564565396E0,4.070427495E0,-1.870668129E0,5.161857699E0
7.083521792E0,3.810174358E0,3.989848185E0,-1.508562927E0,5.719447463E0
7.093525792E0,5.913800236E0,4.318064679E0,-4.909240401E-1,7.338918327E0
7.103529792E0,8.234989314E0,4.751429898E0,7.146689896E-1,9.534248100E0
7.113533792E0,7.355378045E0,3.587048117E0,3.363143758E-1,8.190336241E0
7.123537792E0,6.293078125E0,2.041645977E0,-8.973862195E-1,6.676559938E0
7.133542792E0,5.716380694E0,1.365535355E-1,-2.256865028E0,6.147283535E0
7.143546792E0,5.183704610E0,-1.977785611E0,-3.382003806E0,6.497721074E0
7.153550792E0,4.240530307E0,-4.193051208E0,-4.311287756E0,7.358734798E0
7.163554792E0,3.454244986E0,-6.275413102E0,-4.808898672E0,8.627753152E0
7.173558792E0,3.149440743E0,-8.427178522E0,-4.792084419E0,1.019315397E1
7.183560583E0,2.615751922E0,-1.060932607E1,-5.267616248E0,1.213044677E1
7.193564583E0,2.558371733E0,-1.175551132E1,-4.500031199E0,1.284474963E1
7.203569583E0,3.588685630E0,-1.197164546E1,-3.155631191E0,1.289018882E1
7.213573583E0,5.708416786E0,-1.165074559E1,-1.636399434E0,1.307683823E1
7.223577583E0,7.351007252E0,-1.196647301E1,-1.864589217E0,1.416723251E1
7.233581583E0,7.268253947E0,-1.338725403E1,-3.424112822E0,1.561315582E1
7.243585583E0,5.758500527E0,-1.479275510E1,-3.072916186E0,1.616875833E1
7.253589583E0,4.027401051E0,-1.592482400E1,-1.379075167E0,1.648398699E1
7.263594583E0,2.036643976E0,-1.671364731E1,1.418332788E-1,1.683787521E1
7.273598583E0,4.772707915E-1,-1.693250859E1,1.074804483E0,1.697329783E1
7.283602583E0,-6.969296336E-1,-1.673905580E1,1.061160590E0,1.678713084E1
7.293606583E0,-1.103436252E0,-1.669671728E1,4.836094657E-1,1.674012597E1
7.303610583E0,-1.059069041E0,-1.653937689E1,-5.946627089E-1,1.658391507E1
7.313614583E0,-7.103109866E-1,-1.623018314E1,-1.355547726E0,1.630217459E1
7.323618583E0,-2.856028631E-1,-1.579868787E1,-1.705114450E0,1.589300231E1
7.333623583E0,-1.181102479E-1,-1.521803479E1,-1.767287017E0,1.532076488E1
7.343627583E0,-1.789072573E-2,-1.413041877E1,-1.649155719E0,1.422634068E1
7.353631583E0,1.828015029E-1,-1.232765669E1,-1.363570983E0,1.240418727E1
7.363635583E0,8.288051042E-1,-1.033148159E1,-5.602179310E-1,1.037980124E1
7.373639583E0,1.274719617E0,-7.739044855E0,1.720345862E-1,7.845210084E0
7.383643583E0,1.427126416E0,-4.706794007E0,8.093541951E-1,4.984541488E0
7.393648583E0,1.139953575E0,-1.268455203E0,1.241295178E0,2.109333182E0
7.403652583E0,5.788664559E-1,2.307246977E0,1.440733179E0,2.781040647E0
7.413656583E0,-1.790882286E-1,5.720973097E0,1.465619514E0,5.908438570E0
7.423660583E0,-1.350135835E0,8.188065408E0,1.401734297E0,8.416183277E0
7.433664583E0,-2.545437692E0,9.676116303E0,1.565838890E0,1.012710873E1
7.443668583E0,-3.352099683E0,1.047886300E1,2.006499241E0,1.118343334E1
7.453673583E0,-3.680720512E0,1.092672814E1,3.091125877E0,1.193717515E1
7.463677583E0,-4.020044961E0,1.095609520E1,5.549924498E0,1.292278783E1
7.473681583E0,-4.695208042E0,1.055039316E1,5.005675020E0,1.258620502E1
7.483685583E0,-5.048939738E0,1.025715997E1,3.387131814E0,1.192366492E1
7.493689583E0,-5.462345486E0,9.952267435E0,2.505357660E0,1.162590480E1
7.503693583E0,-6.718731451E0,9.331187882E0,4.310275018E-1,1.150644186E1
7.513698583E0,-8.309659427E0,8.857521899E0,-6.885809791E-1,1.216471445E1
7.523702583E0,-9.547106261E0,8.354846125E0,-7.414550114E-1,1.270828262E1
7.533706583E0,-9.877478038E0,7.983292993E0,-4.204346859E-1,1.270725402E1
7.543710583E0,-1.008586228E1,8.045035497E0,-2.338734233E-1,1.290356194E1
7.553714583E0,-1.023625968E1,8.125526513E0,8.329822820E-2,1.306951154E1
7.563718583E0,-9.462027519E0,8.345700495E0,7.264580727E-1,1.263757979E1
7.573722583E0,-8.210172561E0,8.738024692E0,1.000779026E0,1.203169014E1
7.583727583E0,-6.811489341E0,9.121807861E0,1.058410352E0,1.143345959E1
7.593731583E0,-5.798815910E0,9.294234649E0,9.355018795E-1,1.099473635E1
7.603735583E0,-5.062297118E0,9.434578350E0,4.636397624E-1,1.071695305E1
7.613739583E0,-4.462192405E0,9.613394390E0,-1.234405514E-1,1.059923348E1
7.623743583E0,-3.977979799E0,9.705631878E0,-5.605328035E-1,1.050418062E1
7.633747583E0,-3.372113240E0,9.961777346E0,-8.012802136E-1,1.054752130E1
7.643752583E0,-3.028770877E0,1.061853427E1,-8.937106597E-1,1.107815155E1
7.653756583E0,-2.906191017E0,1.104993482E1,-1.079400687E0,1.147658972E1
7.663760583E0,-2.772378364E0,1.115629802E1,-1.166954556E0,1.155468953E1
7.673764583E0,-2.726765697E0,1.114404108E1,-8.620408972E-1,1.150513004E1
7.683768583E0,-2.805382388E0,1.106871374E1,-4.654616817E-1,1.142817784E1
7.693772583E0,-2.911429245E0,1.098069560E1,-5.863229714E-2,1.136026117E1
7.703777583E0,-3.157512825E0,1.085467992E1,4.843460687E-1,1.131497037E1
7.713781583E0,-3.256568751E0,1.060970380E1,9.152130644E-1,1.113591800E1
7.723785583E0,-3.225069800E0,1.030836521E1,1.054579111E0,1.085244698E1
7.733789583E0,-3.104424492E0,9.977569506E0,1.072247350E0,1.050424005E1
7.743793583E0,-2.969332760E0,9.672862912E0,1.113275946E0,1.017942028E1
7.753797583E0,-2.814630637E0,9.440017430E0,1.219867179E0,9.925933237E0
7.763802583E0,-2.682192957E0,9.176426702E0,1.309245379E0,9.649616031E0
7.773806583E0,-2.630329323E0,8.941944584E0,1.256690459E0,9.405119680E0
7.783810583E0,-2.515451124E0,8.874188218E0,1.233948444E0,9.305984077E0
7.793814583E0,-2.250679551E0,8.710135812E0,1.199130760E0,9.075788610E0
7.803818583E0,-1.951256794E0,8.518893269E0,1.181663665E0,8.819029120E0
7.813822583E0,-1.614628788E0,8.161117930E0,1.040800732E0,8.384159956E0
7.823827583E0,-1.238396129E0,7.700735652E0,1.190062606E0,7.889943191E0
7.833831583E0,-2.057874924E-1,6.467795852E0,1.572033430E0,6.659280801E0
7.843835583E0,5.642882363E0,-8.218553960E-1,4.181126397E0,7.071024367E0
7.853839583E0,1.684930856E1,-2.337071285E1,-1.140021403E0,2.883381811E1
7.863843583E0,2.047981903E1,-5.697522254E1,-8.751076262E0,6.117336272E1
7.873847583E0,8.408369783E0,-6.307929468E1,2.957140439E0,6.370590851E1
7.883852583E0,8.003436066E0,-4.831502838E1,3.872389902E0,4.912628991E1
7.893856583E0,1.172168401E1,-3.034414668E1,-7.502752438E-1,3.253810115E1
7.903860583E0,9.418637670E0,-2.026172958E1,-4.529954910E0,2.279844101E1
7.913864583E0,5.192537999E0,-1.516819664E1,-3.477948428E0,1.640526639E1
7.923868583E0,2.541343472E0,-1.043816989E1,-1.819253561E0,1.089603142E1
7.933872583E0,9.375083515E-1,-6.948462707E0,-3.649386452E0,7.904307520E0
7.943876583E0,-3.911601622E0,-5.538728834E0,-1.717410151E1,1.846423318E1
7.953881583E0,-6.666640361E0,-2.761944593E0,-2.384913671E1,2.491693708E1
7.963885583E0,-8.209128249E-1,-1.126676595E-1,-6.000206881E0,6.057150690E0
7.973889583E0,3.218305156E0,3.021636397E-1,8.773807020E-1,3.349416045E0
7.983893583E0,3.311340204E0,-1.154412863E0,-3.047461209E0,4.645929706E0
7.993897583E0,2.417763738E0,-1.562494136E0,-4.059215459E0,4.976364090E0
8.003901583E0,1.309249764E0,-1.995362341E-1,-2.701773820E0,3.008908677E0
8.013906583E0,-1.814002177E-1,1.335620415E0,-1.332048497E0,1.895030641E0
8.023910583E0,-1.040343041E0,3.223731957E0,-1.000624659E0,3.532139731E0
8.033914583E0,-1.402578050E0,4.977221299E0,-1.056266909E0,5.277845852E0
8.043918583E0,-1.755663337E0,6.243256339E0,-7.279208998E-1,6.526137626E0
8.053922583E0,-1.869630540E0,7.266441311E0,-3.014846317E-1,7.509166443E0
8.063926583E0,-1.984996982E0,7.970423856E0,4.932740360E-2,8.214030841E0
8.073931583E0,-2.427730610E0,8.373184163E0,5.266528666E-1,8.733925359E0
8.083935583E0,-2.793379809E0,8.588095066E0,9.030454472E-1,9.076003454E0
8.093939583E0,-2.912632018E0,8.707477668E0,1.282041939E0,9.270772575E0
8.103943583E0,-2.943656467E0,8.717331396E0,1.741238841E0,9.364234766E0
8.113947583E0,-2.795106784E0,8.693325067E0,1.919429083E0,9.331169844E0
8.123951583E0,-2.577507039E0,8.469266780E0,1.892171995E0,9.052753017E0
8.133956583E0,-2.522585604E0,7.552346182E0,1.992831520E0,8.208090427E0
8.143960583E0,-2.293733477E0,6.359980797E0,2.076546399E0,7.072666679E0
8.153964583E0,-2.074353839E0,5.355410437E0,1.929845459E0,6.058685360E0
8.163968583E0,-1.815490001E0,4.307598748E0,1.588204343E0,4.936983284E0
8.173972583E0,-1.447552494E0,3.019675825E0,1.335340333E0,3.605133024E0
8.183975708E0,-9.759391764E-1,1.221574566E0,1.116222797E0,1.921107761E0
8.193980708E0,-6.730399570E-1,-7.241683030E-1,8.661057354E-1,1.314359791E0
8.203984708E0,-5.831053948E-1,-2.357892635E0,4.803253039E-1,2.475960819E0
8.213988708E0,-7.521422598E-1,-3.983311583E0,4.173835357E-1,4.075131674E0
8.223992708E0,-9.498643953E-1,-5.145651516E0,6.495027944E-1,5.272743666E0
8.233996708E0,-1.052433913E0,-5.901626918E0,1.206095817E0,6.114857687E0
8.244000708E0,-7.329546216E-1,-5.915674853E0,1.648334770E0,6.184613081E0
8.254005708E0,-1.452416208E-1,-5.449364668E0,1.900064421E0,5.772946839E0
8.264009708E0,4.139577252E-1,-4.767884547E0,1.861271653E0,5.135018619E0
8.274013708E0,6.216938022E-1,-4.149263749E0,1.747721941E0,4.545043985E0
8.284017708E0,7.118523127E-1,-3.818894311E0,1.407309033E0,4.131731621E0
8.294021708E0,8.283110145E-1,-3.599741837E0,8.681559885E-1,3.794461128E0
8.304025708E0,9.581744581E-1,-3.520319692E0,7.383923129E-1,3.722361110E0
8.314030708E0,1.104872620E0,-3.152196536E0,8.633332781E-1,3.449989979E0
8.324034708E0,1.057401123E0,-2.571339396E0,7.415182344E-1,2.877452470E0
8.334038708E0,8.370496783E-1,-1.658124179E0,4.082281116E-1,1.901756595E0
8.344042708E0,5.260950422E-1,-5.234269577E-1,2.169656511E-1,7.731919990E-1
8.354046708E0,1.845053816E-1,4.844084877E-1,1.051844660E-1,5.289211573E-1
8.364050708E0,-1.608080783E-1,1.331360133E0,3.751697816E-2,1.341561242E0
8.374055708E0,-5.323006922E-1,2.004346004E0,1.357252043E-2,2.073868641E0
8.384059708E0,-8.726840723E-1,2.408556420E0,6.264242727E-2,2.562546701E0
8.394063708E0,-1.071207569E0,2.578098777E0,1.238814862E-1,2.794534949E0
8.404067708E0,-1.136317192E0,2.392822148E0,1.841288392E-1,2.655318817E0
8.414071708E0,-9.771638757E-1,2.014492092E0,1.845381443E-1,2.246571155E0
8.424075708E0,-8.966693509E-1,1.521608650E0,-4.162398934E-2,1.766646927E0
8.434080708E0,-9.862115648E-1,8.154462630E-1,-4.176806474E-1,1.346114030E0
8.444084708E0,-8.749484065E-1,1.285919666E-1,-7.347809994E-1,1.149771162E0
8.454088708E0,-5.171248287E-1,-4.598209459E-1,-7.813751221E-1,1.043743490E0
8.464092708E0,-3.768793613E-1,-8.620912564E-1,-5.155279541E-1,1.072850623E0
8.474096708E0,-5.219999447E-1,-1.402618396E0,-4.306848550E-1,1.557341245E0
8.484100708E0,-4.419907388E-1,-1.745210854E0,-6.802071816E-1,1.924525539E0
8.494105708E0,-2.926066580E-1,-1.787338874E0,-8.777863526E-1,2.012637023E0
8.504109708E0,-4.492427480E-1,-1.754254743E0,-6.745903462E-1,1.932433928E0
8.514113708E0,-3.802543741E-1,-1.559071761E0,-7.165587366E-1,1.757485296E0
8.524117708E0,-2.586296573E-1,-1.215095267E0,-8.058252543E-1,1.480776873E0
8.534121708E0,-3.142980739E-1,-8.655329275E-1,-8.419774193E-1,1.247740559E0
8.544125708E0,-4.383330131E-1,-6.540952706E-1,-9.130491561E-1,1.205667954E0
8.554130708E0,-4.363370660E-1,-4.741741061E-1,-1.038338031E0,1.222038045E0
8.564134708E0,-3.750266710E-1,-3.217143899E-1,-1.133466967E0,1.236483933E0
8.574138708E0,-3.383888948E-1,-2.214001429E-1,-1.158636307E0,1.227176906E0
8.584142708E0,-2.414081454E-1,-1.470112807E-1,-1.090605049E0,1.126636402E0
8.594146708E0,-1.310229465E-1,-1.883025634E-1,-1.019585425E0,1.045073829E0
8.604150708E0,1.350999177E-3,-2.676937187E-1,-9.240062535E-1,9.620027592E-1
8.614155708E0,1.428805152E-1,-3.986152160E-1,-7.968871274E-1,9.024067962E-1
8.624159708E0,2.859800085E-1,-5.141100043E-1,-6.858292063E-1,9.035791952E-1
8.634163708E0,3.773962551E-1,-5.500662875E-1,-6.058423294E-1,9.011358289E-1
8.644167708E0,4.139629877E-1,-4.618183547E-1,-5.407411480E-1,8.228259458E-1
8.654171708E0,4.203232965E-1,-3.083874160E-1,-4.649869609E-1,6.985609105E-1
8.664175708E0,4.635257417E-1,-1.731389791E-1,-4.222286117E-1,6.504692305E-1
8.674180708E0,5.410300004E-1,-1.094885284E-1,-3.653188312E-1,6.619358335E-1
8.684184708E0,6.041509858E-1,-1.166385037E-1,-2.877274489E-1,6.792569757E-1
8.694188708E0,6.649310383E-1,-1.194720644E-1,-2.097180273E-1,7.073814465E-1
8.704192708E0,7.226021263E-1,-1.574889064E-1,-1.265834846E-1,7.503199099E-1
8.714196708E0,7.553009257E-1,-1.620707846E-1,-4.105450708E-2,7.735838029E-1
8.724200708E0,7.486389005E-1,-1.103521621E-1,1.539337993E-2,7.568849049E-1
8.734205708E0,7.161105475E-1,-4.316999316E-3,9.332916319E-2,7.221795382E-1
8.744209708E0,6.554521170E-1,1.446431583E-1,1.716181183E-1,6.928144770E-1
8.754213708E0,5.856655982E-1,3.894479513E-1,2.197184837E-1,7.368514856E-1
8.764217708E0,4.688893926E-1,6.996146750E-1,2.818363792E-1,8.881158149E-1
8.774221708E0,3.726594257E-1,1.000927545E0,3.467948520E-1,1.122941524E0
8.784225708E0,2.660243386E-1,1.200511726E0,5.054928530E-1,1.329481244E0
8.794230708E0,1.513206786E-1,1.311288981E0,6.338317448E-1,1.464281196E0
8.804234708E0,1.802611801E-1,1.329324133E0,4.696781455E-1,1.421335394E0
8.814238708E0,1.692754313E-1,1.215955392E0,4.692401890E-1,1.314301351E0
8.824242708E0,2.389602086E-1,9.624698228E-1,4.433849708E-1,1.086296632E0
8.834246708E0,4.328877935E-1,7.158249110E-1,3.930117562E-1,9.242593713E-1
8.844250708E0,4.571704030E-1,3.813483882E-1,6.412945461E-1,8.750371795E-1
8.854255708E0,5.791591090E-1,9.354843378E-2,5.722377233E-1,8.195319365E-1
8.864259708E0,6.922094688E-1,-2.355258465E-3,5.723587606E-1,8.981948824E-1
8.874263708E0,6.258910798E-1,1.550155342E-2,6.217157292E-1,8.823323579E-1
8.884267708E0,5.088103804E-1,1.909256244E-1,6.320389885E-1,8.335549653E-1
8.894271708E0,4.015151426E-1,4.485305572E-1,6.735765121E-1,9.033821938E-1
8.904275708E0,2.556276968E-1,6.816841882E-1,7.100719086E-1,1.016976385E0
8.914280708E0,1.617800318E-1,1.033147457E0,6.859959251E-1,1.250662567E0
8.924284708E0,1.413710564E-1,1.463763315E0,6.297358433E-1,1.599736244E0
8.934288708E0,2.004498616E-1,1.963876839E0,5.614262581E-1,2.052362500E0
8.944292708E0,2.402246690E-1,2.413814237E0,5.076220069E-1,2.478283108E0
8.954296708E0,2.581281124E-1,2.782799857E0,4.933740234E-1,2.837961080E0
8.964301708E0,3.330056557E-1,3.145661688E0,4.899662296E-1,3.200960345E0
8.974305708E0,3.853323886E-1,3.539818402E0,4.670679849E-1,3.591232083E0
8.984309708E0,4.174555296E-1,3.959917458E0,4.772081532E-1,4.010354475E0
8.994313708E0,4.017316358E-1,4.422804683E0,4.680386227E-1,4.465607431E0
9.004317708E0,3.789618471E-1,4.927915823E0,2.559378916E-1,4.949087860E0
9.014321708E0,7.254470891E-1,5.369382359E0,-5.121734065E-1,5.442321379E0
9.024326708E0,1.669112997E0,5.844355195E0,-1.783685533E0,6.334347632E0
9.034330708E0,2.711791270E0,6.115839078E0,-4.013325925E0,7.801543726E0
9.044334708E0,2.372421651E0,5.942117717E0,-5.861211548E0,8.677035684E0
9.054338708E0,1.028346893E0,6.181147799E0,-4.534784126E0,7.734878960E0
9.064342708E0,2.449737775E-1,6.449670653E0,-2.295732640E0,6.850449039E0
9.074346708E0,1.802022694E-1,6.604701390E0,-2.902324144E-1,6.613530688E0
9.084351708E0,6.259340568E-1,6.345340539E0,8.546664619E-1,6.433163666E0
9.094355708E0,1.409447944E0,5.689806268E0,1.538128788E0,6.060221039E0
9.104359708E0,2.253943174E0,4.705807582E0,1.881172067E0,5.546502788E0
9.114363708E0,3.335223742E0,3.735120082E0,1.642514452E0,5.269980376E0
9.124367708E0,4.596308529E0,2.511672068E0,1.268490286E0,5.389212955E0
9.134371708E0,6.154597347E0,1.578475746E0,1.214470199E0,6.468816898E0
9.144376708E0,9.083607416E0,8.084915847E-1,9.275976133E-1,9.166570769E0
9.154380708E0,1.200854958E1,1.636857855E-1,9.651928711E-1,1.204838799E1
9.164384708E0,1.186200432E1,-1.168680069E0,-5.760933773E-1,1.193335004E1
9.174388708E0,1.298914284E1,-2.979658651E0,5.440693831E-1,1.333762381E1
9.184392917E0,1.083090631E1,-5.353496059E0,1.355050128E0,1.215749203E1
9.194396917E0,7.369729452E0,-8.158911776E0,-2.976735810E-1,1.099860733E1
9.204401917E0,4.398960615E0,-1.202200285E1,-2.865518078E0,1.311833072E1
9.214405917E0,2.109023004E0,-1.626276266E1,-4.194171535E0,1.692679835E1
9.224409917E0,2.840225946E0,-1.955960294E1,-3.180922737E0,2.001907141E1
9.234413917E0,4.235195600E0,-2.123900046E1,-2.463748873E0,2.179683649E1
9.244417917E0,4.489218528E0,-2.232303214E1,-2.907580608E0,2.295484419E1
9.254421917E0,3.811301116E0,-2.291843072E1,-3.281032916E0,2.346370942E1
9.264426917E0,2.052079456E0,-2.285997494E1,-2.434575799E0,2.308065518E1
9.274430917E0,-4.521464753E-1,-2.263678204E1,-1.332149946E0,2.268045328E1
9.284434917E0,-2.292164377E0,-2.207637787E1,-2.058556125E-1,2.219600987E1
9.294438917E0,-3.395935089E0,-2.081409031E1,2.907669778E-1,2.109130807E1
9.304442917E0,-4.811698319E0,-1.923499359E1,-8.312393001E-1,1.984510968E1
9.314447917E0,-5.354782446E0,-1.692458327E1,-2.438137777E0,1.791813969E1
9.324451917E0,-4.879457608E0,-1.491434912E1,-3.126450076E0,1.600067519E1
9.334455917E0,-4.750102287E0,-1.352933435E1,-3.790050288E0,1.483141399E1
9.344459917E0,-4.474550203E0,-1.232556573E1,-3.579927085E0,1.359253648E1
9.354463917E0,-4.467016650E0,-1.040803684E1,-3.415988700E0,1.183006541E1
9.364467917E0,-4.271929563E0,-7.794803903E0,-2.791763346E0,9.316774799E0
9.374472917E0,-3.546824536E0,-5.053547344E0,-1.034831748E0,6.260126340E0
9.384476917E0,-2.520284432E0,-2.029732275E0,8.029282513E-1,3.334117650E0
9.394480917E0,-1.184147855E0,1.167832223E0,2.057330256E0,2.645495421E0
9.404484917E0,-6.056575209E-2,4.094303430E0,3.102015731E0,5.137070214E0
9.414488917E0,1.971879923E-1,6.521844590E0,3.968844402E0,7.637084905E0
9.424492917E0,-3.709660721E-1,8.411549499E0,4.415319078E0,9.507198502E0
9.434497917E0,-1.186844444E0,9.655083284E0,4.531889169E0,1.073160064E1
9.444501917E0,-2.011570823E0,1.029820041E1,4.061877111E0,1.125158631E1
9.454505917E0,-2.734132019E0,1.040568626E1,3.261589755E0,1.124240865E1
9.464509917E0,-3.438132398E0,1.022925706E1,2.707818671E0,1.112612854E1
9.474513917E0,-4.051713189E0,1.008791465E1,1.264946873E0,1.094451883E1
9.484517917E0,-4.970374210E0,9.910892537E0,4.108183185E-1,1.109500709E1
9.494522917E0,-5.769106207E0,9.768685328E0,-1.359547806E-1,1.134584872E1
9.504526917E0,-6.433341134E0,9.526672581E0,-6.391258138E-1,1.151320331E1
9.514530917E0,-6.992796296E0,9.485498827E0,-1.362577833E0,1.186298893E1
9.524534917E0,-7.326967594E0,9.276408243E0,-1.845685900E0,1.196422837E1
9.534538917E0,-7.462102010E0,9.070178116E0,-1.873512799E0,1.189374406E1
9.544543917E0,-8.497643902E0,8.899151736E0,-1.763765824E0,1.243043537E1
9.554547917E0,-9.449291114E0,8.869009924E0,-1.598755059E0,1.305773554E1
9.564551917E0,-1.015310292E1,9.001786743E0,-9.851944417E-1,1.360471505E1
9.574555917E0,-9.764227411E0,9.143621483E0,-2.277817210E-1,1.337900726E1
9.584559917E0,-8.402300373E0,9.432987322E0,1.635624093E-1,1.263355271E1
9.594563917E0,-6.566948842E0,9.716532843E0,3.435232983E-1,1.173259715E1
9.604568917E0,-5.171240101E0,9.872205019E0,1.999695128E-1,1.114639601E1
9.614572917E0,-4.430749003E0,9.869910572E0,-5.079885542E-2,1.081893026E1
9.624576917E0,-3.986379324E0,9.975924100E0,-2.656132793E-1,1.074620083E1
9.634580917E0,-3.806917459E0,1.023330801E1,-3.649744302E-1,1.092457869E1
9.644584917E0,-3.827842889E0,1.053070558E1,-3.895841914E-1,1.121159744E1
9.654588917E0,-3.760809240E0,1.076519881E1,-4.360683864E-1,1.141154447E1
9.664593917E0,-3.601051906E0,1.088646305E1,-3.614549911E-1,1.147228409E1
9.674597917E0,-3.493061142E0,1.090057589E1,-3.426222789E-1,1.145169947E1
9.684601917E0,-3.353465885E0,1.083431992E1,-3.970949399E-1,1.134838781E1
9.694605917E0,-3.180366959E0,1.071997644E1,-5.915207076E-1,1.119743389E1
9.704609917E0,-3.084655348E0,1.058349658E1,-7.185655010E-1,1.104725463E1
9.714614917E0,-2.998559775E0,1.046264984E1,-7.747642601E-1,1.091140055E1
9.724618917E0,-2.880155705E0,1.028300700E1,-7.759091449E-1,1.070689333E1
9.734622917E0,-2.725058602E0,1.004016512E1,-7.190823948E-1,1.042822801E1
9.744626917E0,-2.535274647E0,9.760115064E0,-7.063752258E-1,1.010873036E1
9.754630917E0,-2.388788446E0,9.525089155E0,-6.454636109E-1,9.841252813E0
9.764634917E0,-2.276165225E0,9.380359458E0,-6.192821181E-1,9.672413454E0
9.774639917E0,-2.243677510E0,9.242326577E0,-5.553498316E-1,9.526967133E0
9.784643917E0,-2.254521464E0,9.121785057E0,-4.506472492E-1,9.407067162E0
9.794647917E0,-2.136814382E0,8.933545643E0,-2.558133459E-1,9.189105176E0
9.804651917E0,-1.838190939E0,8.841051462E0,7.473911047E-3,9.030126951E0
9.814655917E0,-1.269339886E0,8.508677598E0,6.296300087E-3,8.602840104E0
9.824659917E0,2.916416628E0,4.259126499E0,2.800680642E0,5.872772475E0
9.834664917E0,1.199273637E1,-1.628676431E1,1.250008641E1,2.377680755E1
9.844668917E0,1.075591226E1,-3.236832410E1,4.812497048E0,3.444645383E1
9.854672917E0,1.383479290E1,-3.586541514E1,4.877911604E0,3.874949702E1
9.864676917E0,1.035691113E1,-3.374532935E1,2.738780848E0,3.540499656E1
9.874680917E0,3.175298300E0,-3.244600319E1,4.133420718E0,3.286199643E1
9.884685917E0,-1.955128966E0,-3.235183495E1,7.906995599E0,3.336141983E1
9.894689917E0,2.486692471E0,-2.466864504E1,2.257864902E0,2.489625758E1
9.904693917E0,7.047744336E0,-1.661439550E1,-3.080063822E0,1.830834867E1
9.914697917E0,8.581435672E0,-1.530994484E1,-4.722784096E0,1.817526172E1
9.924701917E0,3.150288590E0,-1.492150144E1,3.491230671E0,1.564494215E1
9.934705917E0,-1.163700361E0,-1.039416959E1,5.704274619E0,1.191350951E1
9.944710917E0,-6.620144472E-3,-5.339561559E0,3.936846099E0,6.633982113E0
9.954714917E0,1.461264946E0,-2.915709407E0,2.009164986E0,3.830587492E0
9.964718917E0,8.077850217E-1,-1.451338567E0,6.985077971E-1,1.801891622E0
9.974722917E0,3.675947503E-1,5.037142396E-1,3.705748934E-1,7.253824420E-1
9.984726917E0,1.623043626E-1,2.102342999E0,-2.636002292E-1,2.125011499E0
9.994730917E0,2.917888336E-1,2.955362885E0,-9.235573335E-1,3.110027115E0
1.000473592E1,4.757194887E-1,3.729653521E0,-9.593475558E-1,3.880331448E0
1.001473992E1,5.305214210E-1,4.497799317E0,-8.062632108E-1,4.600186088E0
1.002474392E1,3.122877281E-1,5.257178968E0,-8.057925099E-1,5.327734593E0
1.003474792E1,7.871497957E-2,5.828912113E0,-7.364059407E-1,5.875772816E0
1.004475192E1,1.571775422E-2,6.244344506E0,-7.159602740E-1,6.285275211E0
1.005475692E1,-1.996105303E-1,6.556959459E0,-9.668834473E-1,6.630869122E0
1.006476092E1,-5.173458534E-1,6.843278314E0,-1.250394908E0,6.975786138E0
1.007476492E1,-8.960024759E-1,7.159622036E0,-1.394926969E0,7.349069967E0
1.008476892E1,-1.266662446E0,7.331897966E0,-1.546096789E0,7.599445823E0
1.009477292E1,-1.687690917E0,7.306719856E0,-1.651924084E0,7.678887215E0
1.010477692E1,-2.043095209E0,7.124563885E0,-1.685623926E0,7.600985239E0
1.011478192E1,-2.250228585E0,6.720685006E0,-1.652988131E0,7.277602998E0
1.012478592E1,-2.302748568E0,6.098872213E0,-1.707884130E0,6.739121711E0
1.013478992E1,-2.174017291E0,5.310669297E0,-1.886118958E0,6.040447358E0
1.014479392E1,-2.171664079E0,4.484422057E0,-2.030394911E0,5.380396784E0
1.015479792E1,-1.944046884E0,3.618221962E0,-1.974414107E0,4.557319335E0
1.016480292E1,-1.438688262E0,2.588800351E0,-1.672247543E0,3.401194352E0
1.017480692E1,-8.454989780E-1,1.328939971E0,-1.244101257E0,2.007171618E0
1.018481096E1,1.681843409E-1,-7.666717136E-1,6.247954577E-2,7.873850282E-1
1.019481496E1,9.359718494E-1,-2.749893481E0,7.606015728E-1,3.002744114E0
1.020481896E1,1.356359027E0,-4.710625688E0,9.393306363E-1,4.991196873E0
1.021482296E1,1.188187550E0,-6.646359293E0,1.028710005E0,6.829650488E0
1.022482796E1,7.646605638E-1,-8.570918870E0,8.277084589E-1,8.644677978E0
1.023483196E1,4.029125541E-1,-1.024141927E1,1.130626974E0,1.031151417E1
1.024483596E1,8.101251505E-2,-1.135171196E1,1.999893641E0,1.152681665E1
1.025483996E1,5.020383545E-1,-1.063136072E1,2.477358560E0,1.092772523E1
1.026484396E1,1.927217428E0,-6.517556242E0,1.890771733E0,7.054624309E0
1.027484896E1,3.429174171E0,-2.240103400E0,4.986754015E-1,4.126254463E0
1.028485296E1,3.918917074E0,3.212963140E-1,-3.191343060E-1,3.944995445E0
1.029485696E1,3.944699787E0,1.781953588E0,-6.136398473E-1,4.371792408E0
1.030486096E1,3.533144390E0,2.735967168E0,-6.736001202E-1,4.519110836E0
1.031486496E1,3.007468301E0,3.349949369E0,-5.600363749E-1,4.536592014E0
1.032486996E1,2.241263487E0,3.821809148E0,-1.956870121E-1,4.434837155E0
1.033487396E1,1.008286120E0,3.985991362E0,5.500212640E-2,4.111908714E0
1.034487796E1,-2.707781249E-1,3.688621854E0,-1.364199266E-1,3.701062330E0
1.035488196E1,-1.143628404E0,3.323075566E0,-5.008119741E-1,3.549863347E0
1.036488596E1,-2.140148026E0,2.372346368E0,-9.200763398E-1,3.324876138E0
1.037488996E1,-2.888042722E0,1.482254550E0,-1.383356498E0,3.528674612E0
1.038489496E1,-3.221963467E0,8.901421040E-1,-1.571989137E0,3.693853191E0
1.039489896E1,-3.066252991E0,3.772670317E-1,-1.855261593E0,3.603641685E0
1.040490296E1,-2.623685132E0,-3.004299402E-2,-1.999246647E0,3.298729059E0
1.041490696E1,-2.012485620E0,-4.824116635E-1,-1.857636439E0,2.780940942E0
1.042491096E1,-1.377573310E0,-1.141526184E0,-1.149348589E0,2.126450665E0
1.043491596E1,-1.000191307E0,-1.876856822E0,-5.061846882E-1,2.186137489E0
1.044491996E1,-6.902790836E-1,-2.306059992E0,-2.284928155E-1,2.417975779E0
1.045492396E1,-4.182557210E-1,-2.495106906E0,-3.708216459E-2,2.530191971E0
1.046492796E1,3.646849930E-2,-2.169717541E0,1.197223252E-1,2.173324089E0
1.047493196E1,5.640978509E-1,-1.655067254E0,2.794676721E-2,1.748781011E0
1.048493696E1,1.137233012E0,-1.034437353E0,-2.386601003E-1,1.555737190E0
1.049494096E1,1.720026458E0,-4.562787026E-1,-3.994953682E-1,1.823808603E0
1.050494496E1,2.386869097E0,4.843190253E-2,-4.842082205E-1,2.435969486E0
1.051494896E1,2.792417065E0,3.270575756E-1,-1.858224669E-1,2.817639031E0
1.052495296E1,2.743650409E0,3.598557776E-1,2.485451107E-1,2.778288757E0
1.053495796E1,2.283200741E0,3.666239297E-1,4.882112244E-1,2.363423138E0
1.054496196E1,1.559778982E0,2.881379235E-1,4.256261364E-1,1.642282418E0
1.055496596E1,7.614608212E-1,1.497074318E-1,2.517125474E-1,8.158395086E-1
1.056496996E1,6.613478646E-2,1.318558824E-1,2.746656463E-2,1.500473121E-1
1.057497396E1,-5.421658221E-1,1.759093899E-1,-1.873117527E-1,5.999779869E-1
1.058497796E1,-1.031948339E0,2.737064105E-1,-4.116027591E-1,1.144224369E0
1.059498296E1,-1.394429663E0,3.475929970E-1,-5.784252834E-1,1.549138724E0
1.060498696E1,-1.710859778E0,3.920487928E-1,-7.100735897E-1,1.893395875E0
1.061499096E1,-1.903854440E0,3.903548545E-1,-7.700598827E-1,2.090461878E0
1.062499496E1,-1.979879938E0,2.997551715E-1,-7.692744555E-1,2.145124919E0
1.063499896E1,-1.955777861E0,1.373540193E-1,-6.819920442E-1,2.075824250E0
1.064500396E1,-1.813893419E0,-1.003136623E-1,-4.272829449E-1,1.866237627E0
1.065500796E1,-1.528911238E0,-2.848851174E-1,-1.320793922E-1,1.560824804E0
1.066501196E1,-1.149728512E0,-2.966596556E-1,-9.006173909E-3,1.187418929E0
1.067501596E1,-8.937540753E-1,-3.026320016E-1,-7.218767792E-2,9.463580382E-1
1.068501996E1,-7.360210477E-1,-3.740364450E-1,-2.418379158E-1,8.602998444E-1
1.069502496E1,-6.192704237E-1,-4.441527468E-1,-3.567310256E-1,8.414419438E-1
1.070502896E1,-4.834007201E-1,-5.086375952E-1,-4.202648243E-1,8.179309151E-1
1.071503296E1,-3.937981336E-1,-4.673544985E-1,-4.485038061E-1,7.580586134E-1
1.072503696E1,-4.098949336E-1,-4.115586126E-1,-5.007602262E-1,7.669127410E-1
1.073504096E1,-4.652851689E-1,-3.650802648E-1,-5.519398816E-1,8.089570576E-1
1.074504596E1,-5.166303004E-1,-3.017829859E-1,-5.465230210E-1,8.103500789E-1
1.075504996E1,-6.990537809E-1,-3.032564843E-1,-5.491466667E-1,9.392564854E-1
1.076505396E1,-8.478794526E-1,-2.120434284E-1,-5.098212178E-1,1.011819972E0
1.077505796E1,-9.048509212E-1,-8.495244205E-2,-4.886219913E-1,1.031854426E0
1.078506196E1,-9.506976235E-1,2.753278434E-2,-4.723784262E-1,1.061944162E0
1.079506696E1,-1.025200799E0,8.898585141E-2,-4.910374761E-1,1.140207421E0
1.080507096E1,-1.058729099E0,1.735512078E-1,-4.280303653E-1,1.155091910E0
1.081507496E1,-1.045220569E0,3.652159202E-1,-2.795775998E-1,1.141942354E0
1.082507896E1,-1.051342457E0,5.932760417E-1,-2.088941181E-1,1.225126188E0
1.083508296E1,-1.153085252E0,8.309209192E-1,-1.476236303E-1,1.428925439E0
1.084508796E1,-1.240256128E0,1.084864326E0,-6.551761284E-2,1.649078053E0
1.085509196E1,-1.327295149E0,1.281292765E0,-4.302088916E-2,1.845338548E0
1.086509596E1,-1.421293526E0,1.383767558E0,-3.321291581E-2,1.983933224E0
1.087509996E1,-1.491968237E0,1.451323949E0,7.030502066E-2,2.082607313E0
1.088510396E1,-1.514014579E0,1.579841071E0,1.969440173E-1,2.197026377E0
1.089510896E1,-1.457414555E0,1.716127388E0,2.812591128E-1,2.268977101E0
1.090511296E1,-1.287595186E0,1.875618966E0,4.218362635E-1,2.313826636E0
1.091511696E1,-1.048281148E0,1.999931940E0,5.445492934E-1,2.322747310E0
1.092512096E1,-7.605204427E-1,2.008526763E0,6.924072509E-1,2.256545790E0
1.093512496E1,-4.468789015E-1,1.982394971E0,8.311686949E-1,2.195548217E0
1.094512996E1,-1.627174501E-1,1.943026253E0,9.832631063E-1,2.183720295E0
1.095513396E1,3.503370222E-2,1.965884773E0,1.047248603E0,2.227702839E0
1.096513796E1,2.427909754E-1,2.042448800E0,1.133626157E0,2.348542702E0
1.097514196E1,4.452589304E-1,2.198607464E0,1.145878413E0,2.518961618E0
1.098514596E1,5.980615492E-1,2.488162753E0,1.078033023E0,2.776830334E0
1.099515096E1,8.308454901E-1,2.939229248E0,1.015584029E0,3.218817130E0
1.100515496E1,1.210081060E0,3.487516812E0,9.587878311E-1,3.813966936E0
1.101515896E1,1.610972232E0,4.114665774E0,7.419901778E-1,4.480653455E0
1.102516296E1,2.298482001E0,4.556450399E0,-6.297457105E-1,5.142065675E0
1.103516696E1,3.416047465E0,3.921222923E0,-3.734320768E0,6.402384016E0
1.104517196E1,4.341403548E0,1.714535192E0,-7.026352297E0,8.435463371E0
1.105517596E1,3.482352844E0,7.998043764E-1,-6.076101401E0,7.048792563E0
1.106517996E1,2.870155797E0,1.240799042E0,-4.164917915E0,5.208062768E0
1.107518396E1,2.764650976E0,2.404701351E0,-2.522988769E0,4.448747682E0
1.108518796E1,2.443697163E0,3.847358556E0,-1.052108808E0,4.677687103E0
1.109519296E1,1.354310747E0,5.265735784E0,3.429064536E-1,5.447909303E0
1.110519696E1,6.677010106E-1,6.745105902E0,1.749820215E0,7.000296355E0
1.111520096E1,-2.132409382E-1,7.618638990E0,2.841508241E0,8.134082667E0
1.112520496E1,-1.390106670E0,7.682179513E0,3.298285711E0,8.475079189E0
1.113520896E1,-2.279151983E0,7.063018432E0,3.179470289E0,8.074019721E0
1.114521396E1,-2.527180054E0,5.486480454E0,2.390069425E0,6.496194166E0
1.115521796E1,-2.166790425E0,3.240821614E0,8.551820402E-1,3.991145425E0
1.116522196E1,-1.032336229E0,9.804482567E-1,-5.928470023E-1,1.542227105E0
1.117522596E1,7.376299091E-1,-1.244865780E0,-2.239626267E0,2.666404791E0
1.118522921E1,2.120825171E0,-3.762835885E0,-2.625349834E0,5.054631050E0
1.119523421E1,3.076073390E0,-6.462235735E0,-1.999653028E0,7.431105599E0
1.120523821E1,3.733385506E0,-9.333980513E0,-2.289938926E0,1.031044033E1
1.121524221E1,3.851099897E0,-1.231816783E1,-3.139097604E0,1.328240050E1
1.122524621E1,3.227095568E0,-1.420998417E1,-3.965803265E0,1.510183404E1
1.123525021E1,2.788549716E0,-1.538025877E1,-5.178021702E0,1.646633773E1
1.124525521E1,3.157015811E0,-1.598840779E1,-6.089332480E0,1.739758324E1
1.125525921E1,3.130703048E0,-1.640430738E1,-6.886899712E0,1.806466135E1
1.126526321E1,3.271411323E0,-1.777560575E1,-7.159555963E0,1.944051268E1
1.127526721E1,3.410076873E0,-1.895550136E1,-7.012869787E0,2.049682900E1
1.128527221E1,2.563604114E0,-1.937322411E1,-6.439326929E0,2.057568492E1
1.129527621E1,9.339445467E-1,-1.923669396E1,-5.630813125E0,2.006560997E1
1.130528021E1,-4.408740668E-1,-1.870279406E1,-4.554722546E0,1.925446372E1
1.131528421E1,-1.240680636E0,-1.771921871E1,-3.875633352E0,1.818049873E1
1.132528821E1,-2.058945841E0,-1.644207805E1,-3.501130884E0,1.693632505E1
1.133529321E1,-2.961352773E0,-1.514359389E1,-3.690416365E0,1.586559861E1
1.134529721E1,-3.686262503E0,-1.431223677E1,-4.950421171E0,1.558638259E1
1.135530121E1,-4.113546617E0,-1.379963476E1,-5.881623593E0,1.555457108E1
1.136530521E1,-4.216400895E0,-1.309542768E1,-6.753401347E0,1.532568734E1
1.137530921E1,-4.234032296E0,-1.213938337E1,-7.567206881E0,1.491825318E1
1.138531421E1,-4.008950162E0,-1.079719477E1,-7.693610820E0,1.385073080E1
1.139531821E1,-3.276374732E0,-9.050937268E0,-7.100738236E0,1.196137870E1
1.140532221E1,-2.642927442E0,-7.082223027E0,-5.909870322E0,9.595286119E0
1.141532621E1,-1.991528614E0,-5.034873092E0,-4.123288078E0,6.805706271E0
1.142533021E1,-1.110746149E0,-2.883449734E0,-2.448805729E0,3.942675345E0
1.143533521E1,-1.333993646E-1,-9.202307063E-1,-7.458959717E-1,1.192048969E0
1.144533921E1,1.104449355E0,1.388728335E0,7.257145992E-1,1.917038457E0
1.145534321E1,2.129177772E0,4.083713538E0,1.970639729E0,5.009344786E0
1.146534721E1,2.429028984E0,6.614238199E0,2.785582547E0,7.576793443E0
1.147535221E1,2.051610656E0,8.341451324E0,3.159146537E0,9.152547367E0
1.148535621E1,1.397870896E0,9.407932588E0,3.718081588E0,1.021211875E1
1.149536021E1,9.820881084E-2,9.918973389E0,4.952275908E0,1.108696147E1
1.150536421E1,-1.066473517E0,1.001924729E1,6.386836474E0,1.192955834E1
1.151536821E1,-1.960866108E0,9.821364648E0,7.517421348E0,1.252261247E1
1.152537321E1,-2.688414102E0,9.549008360E0,6.955023283E0,1.211542322E1
1.153537721E1,-3.225256911E0,9.398448404E0,5.084358662E0,1.116171212E1
1.154538121E1,-3.675699215E0,9.214226612E0,3.423778653E0,1.049452224E1
1.155538521E1,-4.137143348E0,8.959381565E0,2.181580957E0,1.010671898E1
1.156538921E1,-4.327411745E0,8.706179001E0,1.124935294E0,9.787212302E0
1.157539421E1,-4.533448622E0,8.485523794E0,3.910734773E-1,9.628562142E0
1.158539821E1,-5.327874144E0,8.371402516E0,-4.644958313E-1,9.933900511E0
1.159540221E1,-6.734887308E0,8.238833274E0,-2.004594510E0,1.082845695E1
1.160540621E1,-7.561100634E0,8.304378222E0,-3.411470264E0,1.173759216E1
1.161541121E1,-7.971559385E0,8.873108237E0,-5.080058620E0,1.296475238E1
1.162541521E1,-7.869434255E0,1.020224760E1,-6.260276415E0,1.432497513E1
1.163541921E1,-7.186597581E0,1.153475320E1,-6.558810103E0,1.509025202E1
1.164542321E1,-6.624647412E0,1.217686051E1,-6.367610829E0,1.525478131E1
1.165542721E1,-5.518648911E0,1.242094083E1,-6.166939650E0,1.492536102E1
1.166543221E1,-4.557968336E0,1.260628237E1,-5.289344501E0,1.441078054E1
1.167543621E1,-4.344807504E0,1.264248248E1,-3.813091534E0,1.390141657E1
1.168544021E1,-4.540512350E0,1.242119109E1,-2.529742303E0,1.346483705E1
1.169544421E1,-4.698826591E0,1.204478828E1,-1.535872933E0,1.301978501E1
1.170544821E1,-4.815752486E0,1.156606153E1,-1.074049389E0,1.257453114E1
1.171545321E1,-4.866998068E0,1.124417231E1,-9.181319945E-1,1.228666137E1
1.172545721E1,-4.745306109E0,1.099646788E1,-7.924104991E-1,1.200283926E1
1.173546121E1,-4.598754711E0,1.076384693E1,-5.863646328E-1,1.171975978E1
1.174546521E1,-4.306755871E0,1.052641256E1,-3.383836323E-1,1.137840107E1
1.175547021E1,-4.027643710E0,1.034174579E1,-2.400503489E-1,1.110095690E1
1.176547421E1,-3.768621705E0,1.016491547E1,-3.603228971E-1,1.084702026E1
1.177547821E1,-3.612225935E0,1.001351117E1,-4.921922281E-1,1.065649264E1
1.178548221E1,-3.524031212E0,9.895937698E0,-5.694183055E-1,1.052010533E1
1.179548621E1,-3.435088922E0,9.788615563E0,-6.521627659E-1,1.039433244E1
1.180549121E1,-3.358137226E0,9.729670367E0,-7.619430703E-1,1.032105267E1
1.181549521E1,-3.258560897E0,9.674709463E0,-8.428515780E-1,1.024346724E1
1.182549921E1,-3.127882352E0,9.569605762E0,-8.651657224E-1,1.010492524E1
1.183550321E1,-3.007842523E0,9.450647668E0,-9.461787491E-1,9.962786367E0
1.184550721E1,-2.926853031E0,9.354317129E0,-1.033344508E0,9.855836772E0
1.185551221E1,-2.908082884E0,9.255743013E0,-1.138382721E0,9.768400074E0
1.186551621E1,-2.924245757E0,9.179638578E0,-1.272297993E0,9.717804271E0
1.187552021E1,-2.906802928E0,9.112170480E0,-1.305251585E0,9.653229295E0
1.188552421E1,-2.806884538E0,9.058843873E0,-1.242744995E0,9.564814073E0
1.189552921E1,-2.666168954E0,8.946774969E0,-1.213856900E0,9.414174834E0
1.190553321E1,-2.365433789E0,8.801254728E0,-1.340033308E0,9.211571585E0
1.191553721E1,-1.824703166E0,8.481146568E0,-1.907210449E0,8.882389344E0
1.192554121E1,-2.203125608E-1,7.430276200E0,-2.569796315E0,7.865201532E0
1.193554521E1,3.873876264E0,2.805645513E0,-6.982225699E0,8.463453182E0
1.194555021E1,1.515071814E1,-2.388659632E1,-1.751333825E1,3.326906612E1
1.195555421E1,3.176162402E1,-8.119315484E1,2.473036591E1,9.062405945E1
1.196555821E1,1.947350152E1,-8.256035548E1,1.835898947E1,8.678987299E1
1.197556221E1,1.353506463E1,-5.767513425E1,1.984763678E1,6.247837843E1
1.198556621E1,2.322978326E1,-2.513713565E1,-7.141538937E0,3.496426744E1
1.199557121E1,1.821446618E1,-1.054858871E1,-1.233146791E1,2.439476589E1
1.200557521E1,4.122647808E0,-9.992691575E0,4.432873589E-1,1.081880832E1
1.201557921E1,-4.370820013E-1,-8.743257950E0,1.608871473E0,8.900790284E0
1.202558321E1,3.260471767E-1,-5.557612417E0,1.015489305E0,5.659026512E0
1.203558721E1,8.096601507E-1,-4.732922875E0,9.670854686E-1,4.898097876E0
1.204559221E1,8.997689599E-1,-4.980337281E0,1.491292591E0,5.276106254E0
1.205559621E1,1.181590136E0,-5.509261206E0,2.713509182E0,6.253898493E0
1.206560021E1,1.276648029E0,-5.031326171E0,3.016263390E0,6.003492156E0
1.207560421E1,1.465110221E0,-3.084860585E0,2.534531173E0,4.252853284E0
1.208560921E1,1.427720201E0,-8.454155821E-1,2.181417674E0,2.740747260E0
1.209561321E1,1.116266212E0,1.178577066E0,1.579967955E0,2.265257799E0
1.210561721E1,7.537052205E-1,2.770051172E0,9.932144827E-1,3.037717904E0
1.211562121E1,4.024752554E-1,3.938848770E0,4.911526662E-1,3.989705115E0
1.212562521E1,-8.674052060E-3,4.660928448E0,1.390479577E-1,4.663010140E0
1.213563021E1,-4.199534601E-1,5.165797513E0,-1.565282089E-1,5.185202593E0
1.214563421E1,-8.333779192E-1,5.611182268E0,-3.526853371E-1,5.683684733E0
1.215563821E1,-1.222328565E0,5.994955496E0,-5.295760359E-1,6.141174912E0
1.216564221E1,-1.605389018E0,6.144789813E0,-6.540701276E-1,6.384631820E0
1.217564621E1,-1.818156039E0,6.067086748E0,-6.752126361E-1,6.369548265E0
1.218565221E1,-1.913557748E0,5.707435039E0,-5.344678165E-1,6.043357827E0
1.219565621E1,-1.829702244E0,5.192158515E0,-2.691667785E-1,5.511694032E0
1.220566021E1,-1.700014509E0,4.797492508E0,-1.302141304E-1,5.091457494E0
1.221566421E1,-1.720475378E0,4.653098441E0,-2.313333929E-1,4.966374510E0
1.222566921E1,-1.857982887E0,4.635481950E0,-2.805033602E-1,5.001847204E0
1.223567321E1,-2.003590836E0,4.793766662E0,-3.742055757E-1,5.209088679E0
1.224567721E1,-2.156326540E0,5.014516010E0,-3.785836785E-1,5.471603108E0
1.225568121E1,-2.290841736E0,5.188138554E0,-4.795821959E-1,5.691637427E0
1.226568521E1,-2.299098590E0,5.250328955E0,-6.206645460E-1,5.765156801E0
1.227569021E1,-2.223435619E0,5.073755322E0,-7.548704244E-1,5.590750251E0
1.228569421E1,-2.089903925E0,4.648038261E0,-8.397332579E-1,5.164988871E0
1.229569821E1,-1.984469563E0,4.083222372E0,-8.064519297E-1,4.610985697E0
1.230570221E1,-1.947306707E0,3.335787413E0,-6.026707631E-1,3.909308523E0
1.231570621E1,-1.911236403E0,2.543353452E0,-1.930557650E-1,3.187278133E0
1.232571121E1,-1.759917771E0,1.699193267E0,1.994666523E-1,2.454456206E0
1.233571521E1,-1.459672895E0,7.029709768E-1,4.418547910E-1,1.679300096E0
1.234571921E1,-1.161243288E0,-3.764519298E-1,5.861132026E-1,1.354153136E0
1.235572321E1,-8.341307482E-1,-1.442695212E0,8.009599324E-1,1.848967386E0
1.236572821E1,-5.142251945E-1,-2.343262902E0,8.479532737E-1,2.544471130E0
1.237573221E1,-1.928826874E-1,-3.064800543E0,7.512186921E-1,3.161413548E0
1.238573621E1,2.321967342E-1,-3.530875670E0,6.908543766E-1,3.605312482E0
1.239574021E1,5.611224952E-1,-3.791970806E0,6.647284323E-1,3.890471043E0
1.240574421E1,7.577205035E-1,-3.788702797E0,4.813305134E-1,3.893595807E0
1.241574921E1,8.837975827E-1,-3.623439433E0,2.265047622E-1,3.736537956E0
1.242575321E1,1.026120858E0,-3.312085140E0,-2.155926883E-2,3.467462587E0
1.243575721E1,1.056476386E0,-2.704907928E0,-3.010937454E-1,2.919473702E0
1.244576121E1,9.528192857E-1,-2.099138140E0,-6.200293922E-1,2.387191230E0
1.245576621E1,7.414789850E-1,-1.645633941E0,-7.415444738E-1,1.951356031E0
1.246577021E1,4.622337994E-1,-1.605286399E0,-4.699308548E-1,1.735349970E0
1.247577421E1,2.660427573E-1,-1.747870168E0,-3.437743266E-1,1.801113450E0
1.248577821E1,1.459713534E-1,-1.841827322E0,-1.933918338E-1,1.857696402E0
1.249578221E1,-4.132519662E-2,-1.848324164E0,-2.316421258E-1,1.863241278E0
1.250578721E1,-1.817481270E-1,-1.811238198E0,-1.825763851E-1,1.829467225E0
1.251579121E1,-3.189457333E-1,-1.793985988E0,-2.477063276E-2,1.822285843E0
1.252579521E1,-4.578513113E-1,-1.866361070E0,4.982639037E-2,1.922345998E0
1.253579921E1,-5.605094147E-1,-1.781611526E0,2.156191470E-1,1.880106925E0
1.254580321E1,-8.713734189E-1,-1.675362940E0,8.714741372E-2,1.890430450E0
1.255580821E1,-1.280743419E0,-1.729149138E0,-9.714922227E-2,2.153995918E0
1.256581221E1,-1.353033715E0,-1.357966719E0,-1.005475509E-1,1.919605077E0
1.257581621E1,-1.299106015E0,-8.636004227E-1,-1.217214882E-1,1.564703885E0
1.258582021E1,-1.175773619E0,-2.996955299E-1,-3.359912440E-2,1.213832737E0
1.259582521E1,-1.032436728E0,1.991567498E-1,6.252149954E-2,1.053327084E0
1.260582921E1,-1.017171987E0,5.482279229E-1,3.595043600E-2,1.156064505E0
1.261583321E1,-9.988275173E-1,8.207912028E-1,-3.458920419E-2,1.293271441E0
1.262583721E1,-8.102302542E-1,1.113977028E0,-1.242475585E-1,1.383060136E0
1.263584121E1,-6.512456301E-1,1.377587636E0,-1.480030415E-1,1.530938753E0
1.264584621E1,-6.979336005E-1,1.562139210E0,-1.353871621E-1,1.716309968E0
1.265585021E1,-6.902348641E-1,1.604412240E0,-3.719859727E-1,1.785759325E0
1.266585421E1,-5.054675272E-1,1.712700335E0,-4.548748592E-1,1.842756359E0
1.267585821E1,-5.584804308E-1,1.738247405E0,-3.316593343E-1,1.855640684E0
1.268586321E1,-4.591061237E-1,1.731556436E0,-4.926238257E-1,1.857887068E0
1.269586721E1,-3.320899817E-1,1.576223983E0,-4.940854834E-1,1.684899482E0
1.270587121E1,-3.035926992E-1,1.312103498E0,-4.297142172E-1,1.413661354E0
1.271587521E1,-2.869038686E-1,1.056872535E0,-4.875262231E-1,1.198739005E0
1.272587921E1,-1.794875935E-1,7.878988606E-1,-4.810230229E-1,9.404166945E-1
1.273588421E1,-8.247906983E-2,7.011092234E-1,-4.725989393E-1,8.495332233E-1
1.274588821E1,-1.406606197E-2,6.198913980E-1,-4.643625513E-1,7.746584915E-1
1.275589221E1,6.255848318E-2,6.033572263E-1,-4.766657509E-1,7.714685634E-1
1.276589621E1,9.435037941E-2,5.019618291E-1,-4.596094228E-1,6.871015161E-1
1.277590021E1,1.873328027E-1,4.123590964E-1,-4.508812840E-1,6.390833558E-1
1.278590521E1,2.377258614E-1,2.336962527E-1,-4.675936496E-1,5.742572114E-1
1.279590921E1,2.680805120E-1,4.037736297E-2,-5.629241686E-1,6.248048591E-1
1.280591321E1,2.730874828E-1,-1.235616070E-1,-6.095482582E-1,6.792593930E-1
1.281591721E1,3.053261063E-1,-2.758862525E-1,-6.178092045E-1,7.423108975E-1
1.282592221E1,3.421948475E-1,-3.300922805E-1,-5.893410118E-1,7.572192915E-1
1.283592621E1,3.318996549E-1,-4.362560821E-1,-4.956364574E-1,7.390076102E-1
1.284593021E1,2.927972773E-1,-5.640662760E-1,-4.228900780E-1,7.633721421E-1
1.285593421E1,1.962234941E-1,-7.257254165E-1,-3.466666518E-1,8.278640029E-1
1.286593821E1,5.059244871E-2,-8.915074289E-1,-3.218962383E-1,9.491903286E-1
1.287594321E1,-4.284634978E-2,-9.730480206E-1,-3.190433818E-1,1.024913138E0
1.288594721E1,-1.362842712E-1,-9.746092272E-1,-3.180639732E-1,1.034215277E0
1.289595121E1,-2.247122982E-1,-8.457167137E-1,-2.992968960E-1,9.248302594E-1
1.290595521E1,-3.151786646E-1,-6.947182167E-1,-3.184867269E-1,8.266830024E-1
1.291596021E1,-4.502569476E-1,-5.131838053E-1,-3.273803419E-1,7.571438603E-1
1.292596421E1,-5.539134631E-1,-2.949680561E-1,-3.198375799E-1,7.043595361E-1
1.293596821E1,-6.388109413E-1,-1.394537544E-1,-3.169296134E-1,7.266162317E-1
1.294597221E1,-7.177509838E-1,-1.757614553E-2,-3.442442966E-1,7.962283161E-1
1.295597621E1,-7.845606852E-1,1.404711699E-1,-3.349244195E-1,8.645472717E-1
1.296598121E1,-8.388886276E-1,2.825719589E-1,-3.320943671E-1,9.454457732E-1
1.297598521E1,-8.697870693E-1,4.126421016E-1,-3.366774148E-1,1.019879763E0
1.298598921E1,-8.914635748E-1,5.039300019E-1,-3.058519171E-1,1.068736706E0
1.299599321E1,-9.114733315E-1,5.723090959E-1,-2.038177116E-1,1.095382579E0
1.300599721E1,-9.303721172E-1,5.975462633E-1,-1.074094047E-1,1.110941310E0
1.301600221E1,-9.292017969E-1,5.131317651E-1,-1.830324680E-3,1.061472344E0
1.302600621E1,-9.257402453E-1,3.612368900E-1,5.344647467E-2,9.951600967E-1
1.303601021E1,-9.201634634E-1,1.891100639E-1,7.305745125E-2,9.422318222E-1
1.304601421E1,-8.851775256E-1,6.277512252E-2,1.507821500E-1,9.001195613E-1
1.305601921E1,-8.494200477E-1,-2.251294971E-2,1.634869802E-1,8.653029776E-1
1.306602321E1,-8.326347381E-1,-2.047928810E-2,1.812150072E-1,8.523725049E-1
1.307602721E1,-8.309732518E-1,-5.067197084E-3,2.181992309E-1,8.591583824E-1
1.308603121E1,-7.757758284E-1,4.142518401E-2,2.526171117E-1,8.169207959E-1
1.309603521E1,-7.319547477E-1,1.662427729E-1,2.564528851E-1,7.931976390E-1
1.310604021E1,-6.721973732E-1,3.727804631E-1,2.482762849E-1,8.077472970E-1
1.311604421E1,-5.797411993E-1,5.293700677E-1,2.874700253E-1,8.360451795E-1
1.312604821E1,-4.574098465E-1,7.073879635E-1,2.929506205E-1,8.918753078E-1
1.313605221E1,-3.984588030E-1,8.055861032E-1,3.093650705E-1,9.504973089E-1
1.314605721E1,-3.383567351E-1,7.850658846E-1,3.492009813E-1,9.234473719E-1
1.315606121E1,-2.430181763E-1,6.577971429E-1,4.644957948E-1,8.411368845E-1
1.316606521E1,-1.227649239E-1,5.203636014E-1,5.285304075E-1,7.517937855E-1
1.317606921E1,-3.437519610E-2,4.072427827E-1,5.600527471E-1,6.933162466E-1
1.318607267E1,2.720475554E-2,3.342847341E-1,6.300222838E-1,7.137327653E-1
1.319607767E1,1.016670004E-1,2.864463240E-1,6.563850403E-1,7.233456965E-1
1.320608167E1,1.565296707E-1,2.745039707E-1,7.625486957E-1,8.254298765E-1
1.321608567E1,1.943941927E-1,3.035622936E-1,8.234866230E-1,8.989267971E-1
1.322608967E1,2.316792557E-1,1.979960775E-1,9.030264437E-1,9.530658331E-1
1.323609367E1,2.825240117E-1,1.117063773E-1,9.441918652E-1,9.918651169E-1
1.324609867E1,2.737664907E-1,1.657580388E-1,9.019949949E-1,9.570887052E-1
1.325610267E1,2.981768619E-1,3.775640702E-1,7.996609734E-1,9.332318792E-1
1.326610667E1,4.001460171E-1,6.594723701E-1,5.612097649E-1,9.539271682E-1
1.327611067E1,5.495885700E-1,1.018324181E0,2.356935154E-1,1.180924708E0
1.328611567E1,6.792670955E-1,1.495559889E0,-1.298467791E-1,1.647714585E0
1.329611967E1,6.526770285E-1,2.120301552E0,-5.821797806E-1,2.293599632E0
1.330612367E1,4.591688351E-1,2.763271911E0,-1.087548198E0,3.004874166E0
1.331612767E1,1.908868866E-1,3.298636544E0,-1.598857970E0,3.670665833E0
1.332613167E1,-1.688292888E-1,3.798512086E0,-1.816562819E0,4.213917165E0
1.333613667E1,-4.760330822E-1,4.198128930E0,-2.051300899E0,4.696672161E0
1.334614067E1,-4.664743464E-1,4.619185760E0,-2.482205025E0,5.264581388E0
1.335614467E1,-2.140772362E-1,5.002086584E0,-3.222634435E0,5.954164253E0
1.336614867E1,-1.730337292E-1,5.321063892E0,-3.754748016E0,6.514736701E0
1.337615367E1,-2.548291133E-1,5.496799035E0,-3.613513200E0,6.583100725E0
1.338615767E1,-4.806143756E-1,5.789417095E0,-2.922761149E0,6.503143334E0
1.339616167E1,-4.810622723E-1,5.769968086E0,-2.108389020E0,6.161919903E0
1.340616567E1,-4.138192923E-1,5.301567521E0,-1.746030049E0,5.597006836E0
1.341616967E1,-2.500591010E-1,4.750417160E0,-1.526436111E0,4.995898312E0
1.342617467E1,-3.268111154E-2,4.496820493E0,-2.436850512E-1,4.503536944E0
1.343617867E1,6.358594130E-1,3.732474802E0,-7.501357877E-1,3.859843137E0
1.344618267E1,1.131478036E0,2.970680836E0,2.800932511E-1,3.191181506E0
1.345618667E1,2.757246355E0,2.131371501E0,3.772285131E-1,3.505346386E0
1.346619067E1,5.965659192E0,-2.654343545E-1,-6.233505376E-1,6.004007901E0
1.347619567E1,4.985078203E0,-2.741549504E0,-4.667106470E-1,5.708319998E0
1.348619967E1,1.379533004E0,-5.539601823E0,-1.187932026E0,5.831078988E0
1.349620367E1,-4.851690643E-1,-7.382557658E0,-8.322119844E-1,7.445140924E0
1.350620767E1,1.998826817E-2,-6.577291397E0,4.311827454E-1,6.591439920E0
1.351621267E1,1.290655619E0,-4.730530779E0,-8.846369505E-2,4.904236863E0
1.352621667E1,1.947672743E0,-3.957327141E0,-1.022288885E0,4.527575707E0
1.353622067E1,2.284852287E0,-5.145764367E0,-3.201330689E0,6.476724410E0
1.354622467E1,2.341183486E0,-7.264685977E0,-6.872791550E0,1.027093307E1
1.355622867E1,3.160450758E0,-7.948845291E0,-5.968016789E0,1.043023561E1
1.356623367E1,4.668245654E0,-8.658689670E0,-3.657155940E0,1.049477079E1
1.357623767E1,5.126240514E0,-1.124527393E1,-4.409742588E0,1.312175130E1
1.358624167E1,5.203429608E0,-1.584364594E1,-4.593381997E0,1.729728171E1
1.359624567E1,5.896560890E0,-2.075869379E1,-5.753554952E0,2.233374561E1
1.360625067E1,4.890043992E0,-2.244706328E1,-7.681995326E0,2.422387732E1
1.361625467E1,3.321340113E0,-2.159224479E1,-8.843658151E0,2.356833946E1
1.362625867E1,2.653757654E0,-1.984401385E1,-7.531946416E0,2.139059448E1
1.363626267E1,1.828496109E0,-1.665327013E1,-6.038331896E0,1.780831985E1
1.364626667E1,-1.823188884E-1,-1.374591756E1,-5.145400670E0,1.467850939E1
1.365627167E1,-1.313802991E0,-1.194779701E1,-4.982060455E0,1.301141261E1
1.366627567E1,-1.227159827E0,-1.069093332E1,-5.485049055E0,1.207839972E1
1.367627967E1,-1.583860447E0,-1.266081350E1,-5.440644715E0,1.387102834E1
1.368628367E1,-9.833723031E-1,-1.250601080E1,-5.394467499E0,1.365531424E1
1.369628767E1,-1.752486545E-1,-1.079586863E1,-5.890533580E0,1.229958850E1
1.370629267E1,4.015624320E-1,-1.026273120E1,-6.109926374E0,1.195056920E1
1.371629667E1,8.827276884E-1,-9.381942884E0,-5.511759721E0,1.091693893E1
1.372630067E1,8.219543602E-1,-7.640059680E0,-5.402933682E0,9.393498457E0
1.373630467E1,7.003468926E-1,-6.128591271E0,-4.895715206E0,7.875159942E0
1.374630967E1,7.662200162E-1,-3.308261645E0,-3.856074416E0,5.138190161E0
1.375631367E1,9.275520051E-1,5.140433460E-1,-1.909890082E0,2.184553366E0
1.376631767E1,1.459147085E0,3.654769399E0,8.057276058E-1,4.016920033E0
1.377632167E1,1.731889289E0,4.149599379E0,2.755788352E0,5.273801756E0
1.378632567E1,1.636864872E0,5.833700398E0,4.719450598E0,7.680143286E0
1.379633067E1,9.750100538E-1,7.712685022E0,5.949545435E0,9.789445629E0
1.380633467E1,-2.678846303E-1,8.420123856E0,5.818254393E0,1.023827779E1
1.381633867E1,-1.455995581E0,8.792529513E0,4.892798030E0,1.016700403E1
1.382634267E1,-2.541228574E0,8.891560881E0,3.855359302E0,1.001905649E1
1.383634767E1,-3.534776348E0,8.731306241E0,2.349550559E0,9.708282049E0
1.384635167E1,-4.357405331E0,8.469065051E0,1.004617138E0,9.577123767E0
1.385635567E1,-4.934438392E0,8.299999242E0,7.910031474E-1,9.688361866E0
1.386635967E1,-5.324649990E0,8.378075359E0,-3.011199117E-2,9.926980959E0
1.387636367E1,-5.764071754E0,8.667244146E0,-7.717798412E-1,1.043749435E1
1.388636867E1,-6.383987710E0,8.480098162E0,-1.588915949E0,1.073275444E1
1.389637267E1,-6.919520159E0,8.354322215E0,-2.414639863E0,1.111327785E1
1.390637667E1,-7.208105394E0,8.376487255E0,-3.295328774E0,1.153176109E1
1.391638067E1,-7.434679738E0,8.390859126E0,-4.483173092E0,1.207393145E1
1.392638467E1,-7.498023795E0,8.403627691E0,-5.263348365E0,1.243157895E1
1.393638967E1,-7.565914646E0,8.433509887E0,-5.291376994E0,1.250463210E1
1.394639367E1,-7.428640734E0,8.470041536E0,-5.021174819E0,1.233444378E1
1.395639767E1,-7.213746203E0,8.820688534E0,-5.169798177E0,1.251277322E1
1.396640167E1,-6.870014707E0,9.370300493E0,-5.323490487E0,1.278042192E1
1.397640667E1,-6.134472401E0,9.779675755E0,-5.108953221E0,1.262438959E1
1.398641067E1,-5.561137118E0,1.012142621E1,-4.736833493E0,1.248227168E1
1.399641467E1,-4.971905011E0,1.041532949E1,-4.044875162E0,1.222947026E1
1.400641867E1,-4.529428369E0,1.099612991E1,-3.153353115E0,1.230342352E1
1.401642267E1,-4.351737040E0,1.176792379E1,-2.396195991E0,1.277354300E1
1.402642767E1,-4.101378269E0,1.223297858E1,-1.872471849E0,1.303737778E1
1.403643167E1,-3.922943467E0,1.243423272E1,-1.488891724E0,1.312312567E1
1.404643567E1,-3.680300682E0,1.240350093E1,-1.413444516E0,1.301496346E1
1.405643967E1,-3.503897787E0,1.203759270E1,-1.435635284E0,1.261911195E1
1.406644467E1,-3.567689448E0,1.140530988E1,-1.354154919E0,1.202677168E1
1.407644867E1,-3.745504445E0,1.082457261E1,-1.283146770E0,1.152591173E1
1.408645267E1,-3.750589476E0,1.063225418E1,-1.315954474E0,1.135092448E1
1.409645667E1,-3.724369099E0,1.061281101E1,-1.314634758E0,1.132391043E1
1.410646067E1,-3.648519018E0,1.056989947E1,-1.322450146E0,1.125981084E1
1.411646567E1,-3.519094700E0,1.042015929E1,-1.388630833E0,1.108566835E1
1.412646967E1,-3.437940902E0,1.018086784E1,-1.397266440E0,1.083613682E1
1.413647367E1,-3.339766151E0,9.850542254E0,-1.401581685E0,1.049531571E1
1.414647767E1,-3.242545958E0,9.537131495E0,-1.265064987E0,1.015240715E1
1.415648167E1,-3.193176162E0,9.311350034E0,-1.068145382E0,9.901441714E0
1.416648667E1,-3.208287706E0,9.164696603E0,-8.767005978E-1,9.749532182E0
1.417649067E1,-3.262557761E0,9.128745582E0,-7.067664776E-1,9.719969028E0
1.418649479E1,-3.263733344E0,9.116847668E0,-6.344176358E-1,9.704192520E0
1.419649879E1,-3.235360022E0,9.100263795E0,-5.878048021E-1,9.676149549E0
1.420650379E1,-3.177343072E0,9.007728099E0,-4.477447645E-1,9.562172863E0
1.421650779E1,-2.990207905E0,8.602169899E0,2.021433614E-2,9.107089486E0
1.422651179E1,-2.895813087E0,8.019588414E0,2.831460824E-1,8.531102125E0
1.423651579E1,-2.188795544E0,6.736138612E0,2.708944114E-1,7.088002054E0
1.424651979E1,3.767958338E0,-4.095478721E0,-1.412884938E0,5.741663508E0
1.425652479E1,1.721192364E1,-4.696367603E1,-1.069865399E1,5.114976421E1
1.426652879E1,2.412380616E1,-9.772540398E1,1.955634370E1,1.025410317E2
1.427653279E1,1.471201792E1,-6.747899234E1,2.779746675E1,7.444835146E1
1.428653679E1,8.264902500E0,-3.442240184E1,1.409142836E1,3.810221405E1
1.429654079E1,1.072943607E1,-1.981697398E1,5.009032491E0,2.308513944E1
1.430654579E1,1.253628886E1,-8.892604024E0,2.101851687E0,1.551305016E1
1.431654979E1,1.143452842E1,-3.838969556E0,2.394681416E0,1.229717961E1
1.432655379E1,7.775487041E0,-2.864608251E0,-8.948742557E-1,8.334565321E0
1.433655779E1,5.513292861E0,-3.987417498E0,-9.400073345E0,1.160419215E1
1.434656279E1,3.021212766E0,-4.559516678E0,-1.486506294E1,1.583941335E1
1.435656679E1,2.611449541E0,-3.180383624E0,2.046704403E0,4.596031725E0
1.436657079E1,2.850293682E0,-2.579654721E0,1.403462150E0,4.092492952E0
1.437657479E1,1.245461612E0,-1.273486732E0,-1.483647357E0,2.318221853E0
1.438657879E1,4.237936190E-1,6.453109986E-1,-9.887944993E-1,1.254488692E0
1.439658379E1,1.730483472E-2,1.963801410E0,-7.585867685E-1,2.105295543E0
1.440658779E1,-4.810363984E-1,2.871901483E0,-1.087519546E0,3.108361772E0
1.441659179E1,-5.747994250E-1,3.701713185E0,-1.202044281E0,3.934207079E0
1.442659579E1,-6.939583710E-1,4.458762721E0,-1.272641809E0,4.688471008E0
1.443659979E1,-5.408054674E-1,5.284224679E0,-1.415802260E0,5.497271783E0
1.444660479E1,-2.693408793E-1,5.916708641E0,-9.676206350E-1,6.001356126E0
1.445660879E1,-9.635334313E-2,6.345955666E0,-7.995044873E-1,6.396846465E0
1.446661279E1,1.398127735E-2,6.523564841E0,-8.890902630E-1,6.583887545E0
1.447661679E1,-4.121643841E-2,6.491256636E0,-1.319834102E0,6.624203617E0
1.448662179E1,-1.648926508E-1,6.390274052E0,-1.773583445E0,6.633881992E0
1.449662579E1,-2.982433739E-1,6.205041277E0,-2.224831642E0,6.598587894E0
1.450662979E1,-5.340802923E-1,5.915850270E0,-2.597139650E0,6.482874404E0
1.451663379E1,-6.993667531E-1,5.658788543E0,-2.634475876E0,6.281040103E0
1.452663779E1,-9.243041691E-1,5.424753737E0,-2.413563391E0,6.008958275E0
1.453664279E1,-1.087424237E0,5.210922815E0,-2.042428919E0,5.701554520E0
1.454664679E1,-1.151357400E0,4.876384896E0,-1.619219583E0,5.265607807E0
1.455665079E1,-1.235715180E0,4.372160195E0,-1.211446677E0,4.702167567E0
1.456665479E1,-1.347764204E0,3.779060154E0,-9.039170478E-1,4.112764281E0
1.457665979E1,-1.413833941E0,2.998103108E0,-7.093122091E-1,3.389789443E0
1.458666379E1,-1.410986347E0,1.721879295E0,-5.491225469E-1,2.292877307E0
1.459666779E1,-1.462744145E0,1.726179922E-1,-4.246640136E-1,1.532891689E0
1.460667179E1,-1.411144514E0,-1.568112141E0,6.644889157E-2,2.110620757E0
1.461667579E1,-1.298601985E0,-3.846152861E0,9.328542602E-1,4.165270221E0
1.462668079E1,-1.180171602E0,-6.158576962E0,2.195479204E0,6.643869667E0
1.463668479E1,-1.019793586E0,-5.583777537E0,2.022454246E0,6.025684336E0
1.464668879E1,-7.504646936E-1,-6.602287075E0,3.116774104E0,7.339459973E0
1.465669279E1,6.485158575E-1,-1.005872886E1,4.250739838E0,1.093925904E1
1.466669679E1,1.431477621E0,-1.114490647E1,4.239857000E0,1.200976502E1
1.467670179E1,2.116733289E0,-1.011490306E1,4.407790203E0,1.123478697E1
1.468670579E1,2.372560084E0,-6.734709553E0,3.359376251E0,7.891182605E0
1.469670979E1,1.509231849E0,-1.698343082E0,2.108794817E0,3.099865413E0
1.470671379E1,8.800205737E-1,1.690896653E0,1.685836473E0,2.544722443E0
1.471671879E1,4.932450923E-1,3.233882139E0,1.282031268E0,3.513529362E0
1.472672279E1,-6.367822498E-2,3.671954366E0,9.585317230E-1,3.795535120E0
1.473672679E1,-6.533538437E-1,2.978125511E0,6.653687024E-1,3.120707983E0
1.474673079E1,-9.922938386E-1,2.112306654E0,5.013180506E-1,2.387007803E0
1.475673479E1,-1.284696721E0,1.626618796E0,2.666505754E-1,2.089841358E0
1.476673979E1,-1.608279296E0,1.267517894E0,-1.834552217E-1,2.055923083E0
1.477674379E1,-1.814005101E0,9.032784587E-1,-7.674002767E-1,2.166894013E0
1.478674779E1,-1.826459962E0,6.150744617E-1,-1.119153568E0,2.228626773E0
1.479675179E1,-1.812462313E0,3.472877723E-1,-1.348702390E0,2.285744205E0
1.480675679E1,-1.596930143E0,1.847720146E-4,-1.412155205E0,2.131752387E0
1.481676079E1,-1.242012047E0,-2.704173517E-1,-1.410998626E0,1.899114686E0
1.482676479E1,-8.742148733E-1,-4.486018932E-1,-1.474681821E0,1.772055805E0
1.483676879E1,-5.967460719E-1,-6.701359373E-1,-1.549727325E0,1.790765990E0
1.484677279E1,-2.602741867E-1,-8.413476741E-1,-1.579625309E0,1.808542141E0
1.485677779E1,3.479590327E-2,-9.458906275E-1,-1.602970902E0,1.861568034E0
1.486678179E1,2.249093494E-1,-9.427266991E-1,-1.593858601E0,1.865396227E0
1.487678579E1,3.988569984E-1,-9.275408953E-1,-1.487732806E0,1.797989967E0
1.488678979E1,5.588312638E-1,-8.299631453E-1,-1.330318744E0,1.664595796E0
1.489679379E1,6.305315763E-1,-7.082720625E-1,-1.314979159E0,1.621230881E0
1.490679879E1,6.415448070E-1,-5.449347711E-1,-1.356164607E0,1.596156660E0
1.491680279E1,5.997734678E-1,-3.936281258E-1,-1.352203703E0,1.530727333E0
1.492680679E1,4.944124889E-1,-3.346683115E-1,-1.324072748E0,1.452451456E0
1.493681079E1,3.481762567E-1,-2.959246606E-1,-1.229453105E0,1.311622296E0
1.494681579E1,1.101019013E-1,-2.747267497E-1,-1.073986166E0,1.114021319E0
1.495681979E1,-1.321134523E-1,-2.317900604E-1,-9.212346733E-1,9.590901520E-1
1.496682379E1,-3.588070795E-1,-2.376559871E-1,-8.100299871E-1,9.172630313E-1
1.497682779E1,-5.282362926E-1,-2.472658861E-1,-6.929009020E-1,9.056962290E-1
1.498683179E1,-6.796236295E-1,-2.753956711E-1,-5.501329458E-1,9.167209561E-1
1.499683679E1,-7.361302444E-1,-3.024618477E-1,-4.300860636E-1,9.046241917E-1
1.500684079E1,-7.909739113E-1,-3.261728919E-1,-3.019713028E-1,9.073120474E-1
1.501684479E1,-8.372493607E-1,-2.984758008E-1,-2.224924028E-1,9.162844345E-1
1.502684879E1,-8.608384904E-1,-2.430254853E-1,-1.717257436E-1,9.108205224E-1
1.503685379E1,-8.386357355E-1,-2.051799667E-1,-1.036255070E-1,8.695671114E-1
1.504685779E1,-7.177202860E-1,-1.338778496E-1,-5.712612748E-2,7.323312651E-1
1.505686179E1,-5.840877271E-1,-4.330798745E-2,1.629386941E-2,5.859176946E-1
1.506686579E1,-4.257585758E-1,8.428059697E-2,7.034202257E-2,4.396835044E-1
1.507686979E1,-2.454883325E-1,2.015055764E-1,1.023566794E-1,3.336853436E-1
1.508687479E1,-2.341722161E-2,2.648741913E-1,1.264062774E-1,2.944235902E-1
1.509687879E1,2.062874293E-1,2.925490630E-1,9.689300459E-2,3.708472894E-1
1.510688279E1,4.076210976E-1,2.830794972E-1,5.672504503E-2,4.995064481E-1
1.511688679E1,5.930865920E-1,2.621055347E-1,1.132960159E-2,6.485209147E-1
1.512689179E1,7.172820371E-1,2.684573650E-1,-2.538981635E-2,7.662946694E-1
1.513689579E1,8.050703788E-1,2.527470660E-1,-5.671916127E-2,8.457165349E-1
1.514689979E1,8.098501852E-1,2.397738487E-1,-1.497671099E-1,8.577756165E-1
1.515690379E1,7.634238777E-1,2.606811529E-1,-2.795588156E-1,8.537703508E-1
1.516690779E1,6.628696024E-1,2.827631629E-1,-3.940473346E-1,8.213552325E-1
1.517691279E1,5.454446483E-1,2.331431061E-1,-4.373705979E-1,7.369929526E-1
1.518691717E1,4.417027634E-1,8.231710196E-2,-4.013715569E-1,6.024753632E-1
1.519692117E1,2.292605549E-1,-1.111175627E-1,-3.276510314E-1,4.150454351E-1
1.520692517E1,-1.392558262E-1,-2.524915427E-1,-2.298961107E-1,3.687768783E-1
1.521693017E1,-4.858249757E-1,-2.861311591E-1,-2.084801352E-1,6.011330252E-1
1.522693417E1,-7.218761945E-1,-2.961708283E-1,-2.137706594E-1,8.090242855E-1
1.523693817E1,-8.002867717E-1,-2.381062227E-1,-2.292412591E-1,8.658550947E-1
1.524694217E1,-7.612592384E-1,-1.691827530E-1,-1.403308002E-1,7.923579781E-1
1.525694617E1,-7.123616052E-1,-7.946132183E-2,-3.069557983E-2,7.174366709E-1
1.526695117E1,-6.807767004E-1,5.143561721E-2,6.808958374E-2,6.861040227E-1
1.527695517E1,-6.715310830E-1,1.850205213E-1,1.221845877E-1,7.071885620E-1
1.528695917E1,-6.723239654E-1,3.037441421E-1,1.327481310E-1,7.496012838E-1
1.529696317E1,-6.403785798E-1,3.736774260E-1,9.447576564E-2,7.474257250E-1
1.530696817E1,-6.099236494E-1,3.826505631E-1,2.575113773E-2,7.204800016E-1
1.531697217E1,-6.056706771E-1,3.252648193E-1,-4.092700124E-2,6.887010899E-1
1.532697617E1,-5.318580580E-1,2.784637052E-1,-1.304396868E-1,6.143529448E-1
1.533698017E1,-4.083242252E-1,2.310755306E-1,-1.975540646E-1,5.090699188E-1
1.534698417E1,-2.587916252E-1,2.147009879E-1,-2.285489853E-1,4.065762637E-1
1.535698917E1,-1.169887519E-1,2.116990274E-1,-2.938670619E-1,3.806056967E-1
1.536699317E1,5.247495979E-2,2.445638877E-1,-3.075097489E-1,3.963929392E-1
1.537699717E1,1.894030094E-1,3.185405213E-1,-2.844097571E-1,4.671514461E-1
1.538700117E1,3.606083143E-1,3.640605104E-1,-2.995364857E-1,5.935490863E-1
1.539700617E1,4.802104792E-1,3.723688191E-1,-2.806195919E-1,6.693339952E-1
1.540701017E1,5.593478653E-1,3.757520181E-1,-2.955709040E-1,7.358136808E-1
1.541701417E1,6.526945701E-1,3.592406505E-1,-3.253846872E-1,8.129816981E-1
1.542701817E1,7.326379949E-1,3.811624467E-1,-3.717250407E-1,9.056614976E-1
1.543702217E1,8.572243264E-1,3.794854653E-1,-3.516293299E-1,1.001242203E0
1.544702717E1,9.118022373E-1,3.719630224E-1,-3.448009515E-1,1.043373138E0
1.545703117E1,9.811721420E-1,3.459499294E-1,-3.253712386E-1,1.090067231E0
1.546703517E1,1.071776210E0,2.990131599E-1,-3.047182882E-1,1.153675149E0
1.547703917E1,1.099611003E0,3.438168651E-1,-3.206928813E-1,1.195908993E0
1.548704417E1,9.718423247E-1,3.230136412E-1,-3.391665745E-1,1.078818466E0
1.549704817E1,9.250663537E-1,1.858935106E-1,-4.196534979E-1,1.032672850E0
1.550705217E1,8.748574823E-1,1.820419496E-1,-5.598908158E-1,1.054510603E0
1.551705617E1,7.998388749E-1,1.427714646E-1,-7.816815162E-1,1.127453728E0
1.552706117E1,7.149726793E-1,7.004964352E-2,-9.348937690E-1,1.179033182E0
1.553706517E1,6.098575759E-1,1.907537162E-2,-9.859838158E-1,1.159506023E0
1.554706917E1,5.256404212E-1,-2.160546184E-3,-1.022027807E0,1.149279496E0
1.555707317E1,3.907594818E-1,-2.235799849E-2,-1.053299301E0,1.123669111E0
1.556707717E1,2.424980664E-1,-3.792211711E-2,-1.124890271E0,1.151356383E0
1.557708217E1,1.123533717E-1,-1.183382893E-1,-1.178979939E0,1.190218857E0
1.558708617E1,3.819576681E-2,-1.848339951E-1,-1.182860152E0,1.197823301E0
1.559709017E1,-1.245837003E-2,-1.814385170E-1,-1.185807148E0,1.199672347E0
1.560709417E1,-1.050949305E-1,-1.419002295E-1,-1.218165640E0,1.230897293E0
1.561709917E1,-1.952744910E-1,-9.452959657E-2,-1.257189957E0,1.275772142E0
1.562710317E1,-1.695905963E-1,-8.312752604E-2,-1.279001241E0,1.292870964E0
1.563710717E1,-6.601535708E-2,-1.375762135E-1,-1.256685342E0,1.265915989E0
1.564711117E1,-1.285071820E-2,-2.974870366E-1,-1.141507546E0,1.179704690E0
1.565711617E1,9.008512795E-3,-4.892020351E-1,-1.075299450E0,1.181384227E0
1.566712017E1,4.659236848E-2,-6.410577339E-1,-1.089577766E0,1.265031848E0
1.567712417E1,6.323003590E-2,-7.892653549E-1,-1.090498191E0,1.347636502E0
1.568712817E1,7.334162593E-2,-8.811824155E-1,-1.089877801E0,1.403458252E0
1.569713217E1,4.581439644E-2,-8.758170104E-1,-1.067092883E0,1.381246399E0
1.570713717E1,-6.170771331E-2,-7.423660076E-1,-1.063523085E0,1.298459273E0
1.571714117E1,-1.474705794E-1,-5.645054018E-1,-1.028688882E0,1.182630431E0
1.572714517E1,-2.495366523E-1,-2.984874952E-1,-1.007685684E0,1.080182282E0
1.573714917E1,-3.415001982E-1,-4.108955383E-2,-9.466970316E-1,1.007246746E0
1.574715417E1,-3.813244146E-1,1.624619633E-1,-8.478621302E-1,9.437544122E-1
1.575715817E1,-4.155168852E-1,2.955557013E-1,-7.480553484E-1,9.053144529E-1
1.576716217E1,-4.227104223E-1,4.125812906E-1,-6.495198244E-1,8.779427229E-1
1.577716617E1,-4.412922889E-1,5.032359374E-1,-5.640744621E-1,8.753086836E-1
1.578717117E1,-4.523601910E-1,5.486150086E-1,-4.821158675E-1,8.590948026E-1
1.579717517E1,-4.677246273E-1,6.365623945E-1,-4.220912752E-1,8.956221601E-1
1.580717917E1,-4.113922593E-1,7.896097559E-1,-3.511885229E-1,9.571105141E-1
1.581718317E1,-2.558577847E-1,9.819533300E-1,-1.751749796E-1,1.029748426E0
1.582718817E1,-1.071414560E-1,1.121793001E0,3.698656261E-2,1.127504693E0
1.583719217E1,-2.381512463E-2,1.121132850E0,2.598613733E-1,1.151101195E0
1.584719617E1,6.256403804E-2,1.053363036E0,4.320723993E-1,1.140251947E0
1.585720017E1,1.731822485E-1,9.496661747E-1,6.299995527E-1,1.152717386E0
1.586720517E1,3.096559694E-1,8.658691424E-1,7.539855945E-1,1.189163768E0
1.587720917E1,4.244578627E-1,7.351072741E-1,9.858399743E-1,1.300933371E0
1.588721317E1,6.071713650E-1,6.627357012E-1,1.455019974E0,1.710251093E0
1.589721717E1,8.241115442E-1,5.957114071E-1,1.893835967E0,2.149568930E0
1.590722117E1,7.974915102E-1,5.097900814E-1,2.150101302E0,2.349215666E0
1.591722617E1,6.201574463E-1,3.415990162E-1,2.277171239E0,2.384699980E0
1.592723017E1,3.471030003E-1,-3.472018182E-2,2.279634086E0,2.306169454E0
1.593723417E1,3.907197207E-2,-3.624665594E-1,2.211871873E0,2.241714926E0
1.594723817E1,-2.454164118E-1,-6.163351214E-1,2.067200063E0,2.171039912E0
1.595724317E1,-4.850133821E-1,-7.331601512E-1,1.956740313E0,2.145132732E0
1.596724717E1,-6.544621834E-1,-7.361252743E-1,1.889624217E0,2.130934267E0
1.597725117E1,-7.748776960E-1,-6.046938998E-1,1.847597355E0,2.092774747E0
1.598725517E1,-8.169449043E-1,-4.344949007E-1,1.837761753E0,2.057559977E0
1.599726017E1,-8.139078605E-1,-2.955247110E-1,1.856274038E0,2.048300311E0
1.600726417E1,-6.888862038E-1,-1.396028584E-1,1.867977240E0,1.995843714E0
1.601726817E1,-5.177577898E-1,2.768773556E-2,1.885631738E0,1.955619286E0
1.602727217E1,-3.217015260E-1,9.018803895E-2,1.865169992E0,1.894857476E0
1.603727717E1,-1.420987424E-1,2.445679808E-1,1.746967943E0,1.769718210E0
1.604728117E1,-1.103691190E-2,4.381605202E-1,1.599238039E0,1.658212520E0
1.605728517E1,2.417969853E-2,5.722558862E-1,1.453092147E0,1.561902123E0
1.606728917E1,7.822843641E-2,6.459945381E-1,1.308865310E0,1.461696628E0
1.607729317E1,1.335311097E-1,6.153872877E-1,1.217421289E0,1.370637321E0
1.608729817E1,1.825214213E-1,4.211743587E-1,1.156416046E0,1.244186473E0
1.609730217E1,2.188554347E-1,1.952344376E-1,1.135891807E0,1.173142951E0
1.610730617E1,2.262004146E-1,2.117978454E-2,1.114412060E0,1.137334362E0
1.611731017E1,1.915293494E-1,-8.748837948E-2,1.112106503E0,1.131865090E0
1.612731517E1,1.442782921E-1,-2.292459369E-2,1.087130706E0,1.096902427E0
1.613731917E1,4.478090107E-2,3.707134724E-2,1.066009979E0,1.067593972E0
1.614732317E1,-2.614816368E-2,5.675307512E-2,1.091558218E0,1.093345317E0
1.615732717E1,-6.997538388E-2,-3.921727538E-3,1.124904450E0,1.127085603E0
1.616733217E1,-1.301865023E-1,-9.986868918E-2,1.121939327E0,1.133873950E0
1.617733617E1,-2.236866966E-1,-1.919155580E-1,1.057384751E0,1.097692958E0
1.618734004E1,-3.391858703E-1,-2.860615772E-1,9.169989502E-1,1.018707689E0
1.619734404E1,-4.653170362E-1,-3.341742218E-1,6.925442219E-1,8.987824286E-1
1.620734904E1,-5.996585700E-1,-3.562457067E-1,4.309994352E-1,8.199157989E-1
1.621735304E1,-6.440284118E-1,-4.147237104E-1,2.229854693E-1,7.978037796E-1
1.622735704E1,-6.522688928E-1,-4.043577665E-1,-2.968485206E-3,7.674429775E-1
1.623736104E1,-6.089576894E-1,-3.067045873E-1,-1.821787745E-1,7.057522775E-1
1.624736604E1,-5.060572189E-1,-2.421992737E-1,-3.673232567E-1,6.705824125E-1
1.625737004E1,-3.263272583E-1,-2.086257309E-1,-5.109221023E-1,6.411361554E-1
1.626737404E1,-1.067119780E-1,-1.990035528E-1,-6.292960596E-1,6.685831219E-1
1.627737804E1,8.883382380E-2,-1.565632921E-1,-7.555193192E-1,7.766678533E-1
1.628738304E1,2.773810932E-1,-1.243486422E-1,-9.069427626E-1,9.565291581E-1
1.629738704E1,4.277141771E-1,-8.477293253E-3,-1.018709951E0,1.104889698E0
1.630739104E1,5.250048289E-1,9.400802493E-2,-1.121342765E0,1.241723470E0
1.631739504E1,5.987513745E-1,1.268500811E-1,-1.194381505E0,1.342066068E0
1.632740004E1,6.346471390E-1,1.017783898E-1,-1.210176004E0,1.370277998E0
1.633740404E1,6.495820972E-1,9.118674338E-2,-1.246354628E0,1.408428834E0
1.634740804E1,6.346564946E-1,1.732261026E-1,-1.233127934E0,1.397641102E0
1.635741204E1,5.710007814E-1,2.720113027E-1,-1.206499275E0,1.362230723E0
1.636741704E1,5.064603844E-1,3.331983215E-1,-1.144593049E0,1.295228354E0
1.637742104E1,4.434028414E-1,4.066066056E-1,-1.049133745E0,1.209386880E0
1.638742504E1,3.780985057E-1,4.132490426E-1,-9.691214691E-1,1.119343412E0
1.639742904E1,3.263202417E-1,3.757549417E-1,-9.066451393E-1,1.034254362E0
