"Time (s)","Linear Acceleration x (m/s^2)","Linear Acceleration y (m/s^2)","Linear Acceleration z (m/s^2)","Absolute acceleration (m/s^2)"
5.999791669E-3,5.845783085E-2,-3.550894198E-1,-8.180745864E-1,8.937291776E-1
1.605479166E-2,1.360202694E-1,-8.445718288E-2,-9.701325989E-1,9.832557088E-1
2.610979165E-2,2.243871930E-1,2.440496251E-1,-9.935302323E-1,1.047383480E0
3.616441667E-2,3.575078282E-1,5.730666026E-1,-8.790902817E-1,1.108610347E0
4.621941666E-2,4.974735063E-1,7.556166753E-1,-3.059064424E-1,9.549948696E-1
5.627441665E-2,7.559271625E-1,9.338889250E-1,1.022303796E-1,1.205829776E0
6.632941664E-2,7.284394017E-1,9.643882942E-1,3.633518279E-1,1.262019530E0
7.638441666E-2,6.081393716E-1,8.333463442E-1,3.597861958E-1,1.092586716E0
8.643941666E-2,5.492997175E-1,7.703668615E-1,3.722027582E-1,1.016725221E0
9.649541666E-2,3.588371927E-1,4.150499851E-1,1.201895177E-2,5.487942020E-1
1.065504166E-1,6.928541243E-2,2.197526899E-1,-2.367935228E-1,3.303980713E-1
1.166054167E-1,-1.533367985E-1,2.501316065E-1,-6.803679800E-1,7.409308892E-1
1.266604167E-1,-4.115270376E-1,2.783695650E-1,-1.313175293E0,1.404020465E0
1.367154167E-1,-7.740690261E-1,3.165366805E-1,-2.040349064E0,2.205085629E0
1.467704167E-1,-1.030955336E0,5.786308131E-1,-2.856922086E0,3.091874242E0
1.568254167E-1,-1.071299662E0,9.087368345E-1,-3.843545587E0,4.092227789E0
1.668804167E-1,-6.982306391E-1,1.118508912E0,-4.390741476E0,4.584451867E0
1.769354166E-1,-2.811610258E-1,1.133162912E0,-4.695221783E0,4.838203933E0
1.869904167E-1,-1.135997057E-1,7.266095155E-1,-5.655210632E0,5.702830313E0
1.970454167E-1,9.592430368E-2,1.026823694E-1,-6.147806976E0,6.149412635E0
2.071004167E-1,4.367928565E-1,-2.348705198E-1,-4.625763293E0,4.652272370E0
2.171554167E-1,9.222111583E-1,-7.857578295E-1,-1.475468856E0,1.909161369E0
2.272104167E-1,1.156977159E0,-1.720618050E0,1.170969839E0,2.381237700E0
2.372654167E-1,8.975443136E-1,-2.312987481E0,3.724562350E0,4.475249890E0
2.473204166E-1,4.694630045E-1,-2.121073385E0,5.599970816E0,6.006581470E0
2.573754167E-1,-8.870657377E-1,-9.413124038E-1,7.277311869E0,7.391361357E0
2.674304167E-1,-1.665026671E0,5.274612442E-2,7.322403842E0,7.509506908E0
2.774864167E-1,-1.505059568E0,5.017284521E-1,6.523873574E0,6.714004927E0
2.875414166E-1,-1.345188798E0,4.956087562E-1,5.382761958E0,5.570393813E0
2.975964167E-1,-1.443185794E0,-3.112983061E-1,3.876640243E0,4.148256434E0
3.076514167E-1,-1.538527861E0,-6.464952059E-1,2.989661483E0,3.423901256E0
3.177064167E-1,-1.362421420E0,-5.247099830E-1,2.309372440E0,2.732162835E0
3.277614167E-1,-1.413835841E0,-7.479007626E-1,1.415381699E0,2.135788540E0
3.378164167E-1,-1.477754533E0,-1.041397952E0,1.303999257E0,2.229054108E0
3.478714167E-1,-8.878620554E-1,-1.632598159E0,2.157294547E0,2.847383982E0
3.579264166E-1,2.760530443E-1,-2.733606062E0,3.111578853E0,4.150991489E0
3.679814167E-1,1.231860842E0,-3.977260007E0,3.376092855E0,5.360418012E0
3.780364167E-1,1.702577928E0,-4.837255329E0,2.599834047E0,5.749517179E0
3.880914167E-1,1.605418400E0,-4.416453730E0,1.929064856E0,5.079736510E0
3.981464167E-1,5.891259804E-1,-3.863956463E0,1.913794268E0,4.351992356E0
4.082014167E-1,1.301229139E-1,-2.780432319E0,2.538178082E0,3.766972767E0
4.182564167E-1,6.216113564E-1,-6.948473670E-1,3.877769340E0,3.988271380E0
4.283114166E-1,7.751593857E-1,1.776610695E-2,4.756599421E0,4.819380226E0
4.383664167E-1,1.028618204E0,1.169828316E-1,5.909746361E0,5.999736865E0
4.484214167E-1,2.052676749E0,2.770511641E-1,5.025475447E0,5.435590368E0
4.584764167E-1,3.284600303E0,1.367659210E0,-2.247320618E0,4.208270526E0
4.685324166E-1,2.359506906E0,1.163456605E0,-4.399555569E0,5.126108984E0
4.785874167E-1,-2.297366060E0,2.710171299E-1,-1.369583382E0,2.688326568E0
4.886424167E-1,-4.228573628E0,-1.762652222E0,-2.412812024E0,5.177783275E0
4.986974167E-1,-4.463327057E0,-3.681443520E0,-4.301149269E0,7.209313410E0
5.087524166E-1,-4.909820445E0,-4.513440911E0,-2.686728349E0,7.189992690E0
5.188074167E-1,-4.108553972E0,-3.537831810E0,3.680895928E0,6.553278912E0
5.288624167E-1,-4.097208035E0,-3.073357650E0,4.995212013E0,7.154354197E0
5.389174166E-1,-2.514307116E0,-2.061319519E0,1.981845333E0,3.807688190E0
5.489724167E-1,2.336722060E-1,-2.263749540E-1,-2.349455688E0,2.371874860E0
5.590274167E-1,1.799931145E0,4.917251086E-1,-3.328883606E0,3.816151434E0
5.690824167E-1,1.083797793E0,1.720402873E-1,-1.812574872E0,2.118877812E0
5.791374167E-1,2.870782435E-1,-1.538520552E0,-1.689377546E-1,1.574166246E0
5.891924167E-1,-2.615551838E-1,-3.227633512E0,9.830572844E-2,3.239705730E0
5.992474167E-1,-3.353742897E-1,-4.310947156E0,-2.908872843E-1,4.333746267E0
6.093024166E-1,-3.306319785E-1,-5.427490819E0,-2.560068887E-1,5.443575444E0
6.193574167E-1,-2.783640102E-1,-6.353539504E0,-2.579317921E-1,6.364862887E0
6.294124167E-1,-4.935643503E-1,-5.678633993E0,-1.383083434E0,5.865441977E0
6.394674167E-1,-4.598747402E-1,-3.408499879E0,-2.369555492E0,4.176619378E0
6.495234167E-1,4.168345553E0,5.490094033E-1,2.314161310E0,4.799151856E0
6.595784167E-1,7.631868900E0,2.682523324E0,2.826703675E0,8.569224467E0
6.696334167E-1,6.255239038E0,1.490592679E0,-3.449904013E-1,6.439635109E0
6.796884167E-1,4.792080910E0,5.508761269E-1,2.567699504E-1,4.830469415E0
6.897434166E-1,1.309086335E0,-6.156746784E-1,1.147434211E0,1.846447294E0
6.997984167E-1,-1.373811504E0,-2.872098826E0,1.610288107E0,3.567819713E0
7.098534167E-1,-1.836654875E0,-4.070859019E0,1.707192258E0,4.781181830E0
7.199084166E-1,-1.749468797E0,-5.095181274E0,2.323486449E0,5.866864798E0
7.299634167E-1,-1.242612848E0,-4.962458834E0,3.124432202E0,5.994344080E0
7.400184167E-1,-2.614202410E-1,-3.694039299E0,2.765872752E0,4.622155230E0
7.500734167E-1,3.222575963E-2,-2.739450939E0,1.639476823E0,3.192728332E0
7.601284166E-1,-6.038676882E-1,-2.318543213E0,-4.289312750E-2,2.396275993E0
7.701834167E-1,-1.332777498E0,-1.820732322E0,-1.318533973E0,2.613406568E0
7.802384167E-1,-1.876419450E0,-1.370065777E0,-2.480613413E0,3.398745811E0
7.902934166E-1,-2.167155291E0,-8.063684607E-1,-3.114819379E0,3.879290131E0
8.003484167E-1,-2.411827353E0,1.305507839E-2,-2.673500778E0,3.600651056E0
8.104034167E-1,-2.403444784E0,6.918527886E-1,-1.738451181E0,3.045885687E0
8.204584167E-1,-2.140794289E0,9.088622573E-1,-2.381193790E0,3.328530405E0
8.305134167E-1,-1.855086468E0,1.070719618E0,-3.260843650E0,3.901395599E0
8.405694167E-1,-1.784204181E0,1.335132464E0,-3.433325110E0,4.093126503E0
8.506244167E-1,-1.820705425E0,1.702906834E0,-3.512918579E0,4.307604540E0
8.606794167E-1,-1.819447104E0,2.003436469E0,-3.707427669E0,4.590116052E0
8.707344166E-1,-1.721944783E0,2.239252922E0,-3.712660342E0,4.665103890E0
8.807894167E-1,-1.316121120E0,2.417244798E0,-4.277522424E0,5.086496369E0
8.908444167E-1,-1.407589114E0,2.240971711E0,-3.673617899E0,4.527552296E0
9.008994167E-1,-1.942328095E0,1.653216464E0,-2.788374007E0,3.778993611E0
9.109544167E-1,-2.692827580E0,7.933670305E-1,-2.083367615E0,3.495879323E0
9.210094167E-1,-2.790639219E0,-2.493963191E-1,-2.330027729E0,3.644021816E0
9.310644167E-1,-1.915967678E0,-6.704058594E-1,-3.921212398E0,4.415459527E0
9.411194166E-1,-1.734547872E0,-1.532051631E-1,-3.912003618E0,4.282043957E0
9.511744167E-1,-1.407352302E0,1.504670399E-1,-4.521776994E0,4.738116506E0
9.612294167E-1,-9.430634987E-1,7.415656334E-2,-4.687434461E0,4.781935778E0
9.712844166E-1,-1.008396193E0,-5.541552454E-2,-4.910927907E0,5.013695910E0
9.813394167E-1,-1.436411210E0,-4.926646100E-1,-4.927756194E0,5.156430615E0
9.913944167E-1,-1.293200619E0,-1.295956558E0,-3.977050384E0,4.378218930E0
1.001449417E0,-6.221712273E-1,-1.718186047E0,-2.264312042E0,2.909702623E0
1.011504417E0,-2.011442184E-1,-1.321809730E0,-9.825626099E-1,1.659237548E0
1.021559417E0,1.359729069E-1,-9.546842551E-1,2.804336321E-1,1.004267733E0
1.031615417E0,1.113870608E0,-9.128480119E-1,1.338013680E0,1.965777157E0
1.041671083E0,2.194898576E0,-5.314779890E-1,2.046534834E0,3.047680009E0
1.051726083E0,3.777044034E0,4.583690822E-2,3.721283816E0,5.302463191E0
1.061781083E0,5.384132545E0,6.279278111E-1,5.347920738E0,7.614685340E0
1.071836083E0,4.944997294E0,2.350525144E-1,5.493338653E0,7.394931878E0
1.081891083E0,3.643871359E0,1.540928435E-1,6.303970903E0,7.282965895E0
1.091946083E0,1.295984479E0,-4.109361765E-1,5.240928386E0,5.414404368E0
1.102001083E0,3.319400007E-1,-5.795169586E-1,5.863515351E0,5.901426636E0
1.112056083E0,-5.569624937E-1,-5.798598978E-1,4.548953683E0,4.619461477E0
1.122111083E0,-1.109134364E0,-3.993964040E-1,2.534582044E0,2.795317989E0
1.132166083E0,-8.812286085E-1,4.479458356E-1,1.132106466E0,1.502958543E0
1.142221083E0,-1.224864795E0,-9.844313800E-2,2.243610998E-1,1.249128784E0
1.152276083E0,-1.424836646E0,-1.412548723E0,-2.360330340E0,3.097840001E0
1.162331083E0,-1.147998467E0,-1.631210614E0,-5.001807672E0,5.384870336E0
1.172386083E0,-1.560016086E0,-2.034288425E0,-5.230919123E0,5.825332133E0
1.182441083E0,-2.307010750E0,-2.713228515E0,-1.170040643E0,3.748720139E0
1.192496083E0,-1.869939566E-2,-1.653218365E0,-3.192752824E0,3.595434775E0
1.202551083E0,-2.612804925E-1,4.734104598E-1,-4.631749088E0,4.663205396E0
1.212606083E0,-3.409137225E-1,-5.360551894E-2,-2.059418735E0,2.088133435E0
1.222661083E0,1.922842249E0,1.695962681E0,-4.117818593E0,4.850777432E0
1.232717083E0,1.586908016E0,3.451055329E0,-6.441898534E0,7.478376606E0
1.242772083E0,-1.543107108E0,-5.393237829E-1,-4.118939504E-1,1.685736135E0
1.252827083E0,-2.641498967E0,-1.282541730E0,5.170538435E0,5.946166647E0
1.262882083E0,-1.995448880E0,1.823205695E0,5.499551904E0,6.127884332E0
1.272937083E0,-1.290546568E0,2.676308026E0,3.183780564E0,4.354835677E0
1.282992083E0,-7.220966345E-1,2.312573791E0,3.351868426E0,4.135751809E0
1.293047083E0,-5.339022446E-1,2.036548374E0,4.916682737E0,5.348490443E0
1.303102083E0,-5.302395487E-1,1.480656506E0,5.498105303E0,5.718623925E0
1.313157083E0,-1.372364902E-1,1.329797173E0,4.588735800E0,4.779507361E0
1.323212083E0,-6.102388144E-2,1.037253664E0,2.647694384E0,2.844275766E0
1.333267083E0,7.811745626E-1,6.180161959E-1,4.682453218E-1,1.100650443E0
1.343322083E0,1.043086554E0,-2.128848428E-1,-6.142713466E-1,1.229096743E0
1.353377083E0,7.516367680E-1,-1.466195172E-1,-6.339062968E-1,9.941289187E-1
1.363432083E0,1.377813923E0,-6.508798867E-1,-1.681959769E0,2.269582450E0
1.373487083E0,2.187901213E0,-1.917966256E0,-2.651857017E0,3.936731120E0
1.383542083E0,2.847965906E0,-2.973890080E0,-2.984046401E0,5.085220244E0
1.393597083E0,2.726414571E0,-3.422821172E0,-2.969114074E0,5.288164102E0
1.403652083E0,2.269154706E0,-3.198461168E0,-2.417631007E0,4.606968266E0
1.413707083E0,1.942640921E0,-2.358626169E0,-2.848781008E0,4.177621857E0
1.423762083E0,1.228487729E0,-1.679694850E0,-3.915406990E0,4.434069101E0
1.433818083E0,2.056939369E-1,-9.522746176E-1,-3.897817104E0,4.017725117E0
1.443873083E0,-9.184999305E-1,-4.953267011E-1,-4.176165619E0,4.304573143E0
1.453928083E0,-2.115545427E0,-5.593621910E-1,-4.351213714E0,4.870470131E0
1.463983083E0,-3.531928169E0,-7.067854080E-1,-4.131950728E0,5.481521598E0
1.474038083E0,-4.881471389E0,-1.101540877E0,-3.849835729E0,6.313746144E0
1.484093083E0,-5.528664606E0,-1.668350666E0,-2.872423932E0,6.449832984E0
1.494148083E0,-4.952579378E0,-1.721876079E0,-1.397933899E0,5.426519964E0
1.504203083E0,-3.017605911E0,-1.361011364E0,3.160756275E-1,3.325387371E0
1.514258083E0,-2.721188915E-1,-1.113044104E0,2.374471246E0,2.636480527E0
1.524313083E0,-1.307393566E0,-1.712785705E0,4.348082238E0,4.852703571E0
1.534368083E0,-3.055013473E0,7.890416989E-1,5.708795686E0,6.522732733E0
1.544423083E0,-3.997082360E0,1.963979166E0,4.115381766E0,6.063847676E0
1.554478083E0,-4.659203519E0,1.214113519E0,3.038579289E0,5.693435972E0
1.564533083E0,-4.505523489E0,1.248745993E0,2.196837512E0,5.165772306E0
1.574588083E0,-3.991710523E0,5.158208996E-1,1.321952548E0,4.236435134E0
1.584643083E0,-1.946984818E0,7.233654803E-1,1.939296022E0,2.841632728E0
1.594698083E0,6.103801416E0,3.601378473E0,3.055341502E0,7.717605219E0
1.604753083E0,1.109150970E1,8.749744266E-1,6.271916467E-1,1.114363213E1
1.614808083E0,8.588607867E0,-6.489402484E0,-2.254330553E0,1.099811511E1
1.624863083E0,6.378537521E0,-8.750726014E0,-2.272150235E0,1.106452048E1
1.634918083E0,5.631622964E0,-8.556938177E0,3.197455447E0,1.073126691E1
1.644974083E0,3.274991281E0,-8.603627610E0,4.801280335E0,1.038269083E1
1.655029083E0,1.772456540E0,-5.828864166E0,1.592151799E0,6.296999842E0
1.665084083E0,-1.102472046E-1,-2.952537510E0,-1.491104895E0,3.309535618E0
1.675139083E0,-7.213400048E-1,9.250733703E-1,-1.691179951E0,2.058198671E0
1.685194083E0,-1.010032829E0,4.268654537E0,4.461124411E-1,4.409148918E0
1.695249083E0,-1.547639577E0,5.100677072E0,1.185849248E0,5.460616567E0
1.705304083E0,-1.539244145E0,3.817904377E0,6.086977807E-1,4.161271363E0
1.715359083E0,-1.329131175E0,1.702756560E0,-1.060063360E0,2.406180357E0
1.725414083E0,-8.393455875E-1,1.838329518E-1,-2.574308319E0,2.713919471E0
1.735469083E0,-5.225402275E-1,-1.095090521E0,-3.432456798E0,3.640608632E0
1.745524083E0,-5.085323453E-3,-1.312225705E0,-3.080430442E0,3.348285214E0
1.755579083E0,4.322905004E-1,-4.870221931E-1,-2.199598567E0,2.293970259E0
1.765634083E0,6.328587681E-1,6.006154668E-1,-1.357015961E0,1.613301422E0
1.775689083E0,5.150081366E-1,1.048793437E0,-3.315520379E-1,1.214548397E0
1.785744083E0,-1.027712470E-1,4.991370392E-1,7.063781494E-1,8.710165343E-1
1.795799083E0,-7.128650504E-1,1.866665125E-2,1.263969803E0,1.451256245E0
1.805854083E0,-1.037200455E0,-9.441966891E-2,9.483452886E-1,1.408566166E0
1.815909083E0,-7.826278880E-1,3.712537551E-1,7.018462649E-1,1.114864988E0
1.825964083E0,-9.803237110E-1,-1.724782437E-1,1.516731195E0,1.814182141E0
1.836019083E0,-1.247975914E0,-1.071847254E0,2.136898874E0,2.696782753E0
1.846075083E0,-1.171167474E0,-1.001206457E0,1.317667416E0,2.027386259E0
1.856130083E0,-1.026920173E0,-5.730095923E-1,3.988493970E-1,1.241767239E0
1.866185083E0,-8.873579523E-1,-3.435899931E-1,3.581714872E-1,1.016732528E0
1.876240083E0,-3.704471317E-1,1.760023606E-1,-6.571305603E-2,4.153626296E-1
1.886295083E0,1.981285170E-1,8.418277305E-1,-4.286430073E-1,9.652272607E-1
1.896350083E0,8.156959391E-1,3.588043898E0,8.291091594E-1,3.771848469E0
1.906405083E0,8.942506501E-1,3.812924888E0,2.570622527E0,4.684675080E0
1.916460083E0,7.221574455E-1,-9.609781981E-2,2.189347521E0,2.307377025E0
1.926515083E0,1.026122612E0,-9.515454698E-1,-7.879327744E-2,1.401632897E0
1.936570083E0,1.297493353E0,-1.003743564E0,-1.813231806E0,2.445158426E0
1.946625083E0,1.164327694E0,-1.463456336E0,-1.897354529E0,2.664079134E0
1.956680083E0,1.035379047E0,-1.390857891E0,-1.042038441E0,2.022953177E0
1.966735083E0,5.604813480E-1,-1.716769997E0,-1.363392350E-1,1.811084469E0
1.976790083E0,5.219525823E-1,-1.410781694E0,1.467066407E-1,1.511377625E0
1.986845083E0,1.846404523E-1,4.396819657E-1,5.915429270E-1,7.598258762E-1
1.996900083E0,-4.555399069E-1,1.194947516E0,1.357672311E0,1.865124735E0
2.006955083E0,-9.176260641E-1,3.198976600E-1,1.449443192E0,1.745066667E0
2.017010083E0,-1.502822716E0,-1.762865353E-1,7.855476952E-1,1.704886576E0
2.027065083E0,-1.695877019E0,-3.192076886E-1,2.515647590E-1,1.743897141E0
2.037119792E0,-1.349604323E0,2.270368588E-1,1.841560104E-1,1.380902242E0
2.047175792E0,-8.658478001E-1,4.416495538E-1,5.282982731E-1,1.106275647E0
2.057230792E0,-9.298388511E-1,-1.941287291E-1,1.050818620E0,1.416511922E0
2.067285792E0,-1.242331597E-1,-3.732277751E-2,3.660324839E-1,3.883383151E-1
2.077340792E0,6.280947492E-1,6.032625014E-1,-1.029127789E0,1.348158991E0
2.087395792E0,1.415189910E-1,-9.567389667E-2,-2.228634379E0,2.235171652E0
2.097450792E0,-5.179215118E-1,-1.093293087E0,-2.037653790E0,2.369718430E0
2.107505792E0,7.071154833E-2,-6.111451328E-1,-5.144532359E-1,8.019729598E-1
2.117560792E0,1.038802007E0,7.261136717E-1,8.509713140E-1,1.526598458E0
2.127615792E0,1.276866715E0,2.145797752E0,1.523727973E0,2.925163847E0
2.137670792E0,1.559027030E0,2.409548108E0,1.533343427E0,3.253863769E0
2.147725792E0,1.565960658E0,1.732864459E0,4.729559849E-1,2.383010570E0
2.157780792E0,1.230088112E0,6.252608961E-1,-7.375967261E-1,1.564645929E0
2.167835792E0,1.055189998E0,4.146020883E-1,-1.822752535E0,2.146566475E0
2.177890792E0,4.341110310E-1,-8.363623381E-2,-2.591582749E0,2.629020454E0
2.187945792E0,-1.504511976E-1,-1.978201348E0,-3.834609872E0,4.317423886E0
2.198000792E0,-8.987024277E-1,-2.977057809E0,-3.480076815E0,4.667062662E0
2.208055792E0,-1.358945543E0,-3.078321059E0,-4.158830671E-1,3.390538638E0
2.218110792E0,-1.228969248E0,-2.073684626E0,1.766659026E0,2.988581177E0
2.228165792E0,-3.799257606E-1,3.667782962E-2,1.306671288E0,1.361278334E0
2.238220792E0,-2.931887484E-1,9.458789331E-1,1.746845297E0,2.008012722E0
2.248275792E0,-2.892936257E-1,8.122817498E-1,-2.916712497E0,3.041497038E0
2.258331792E0,6.277751988E-1,8.815496206E-1,-3.755219886E0,3.908056784E0
2.268386792E0,1.019728974E0,9.676329142E-1,-1.669091216E0,2.182206710E0
2.278441792E0,1.638565973E0,3.808993220E-1,9.127222236E-1,1.913908200E0
2.288496792E0,1.239694211E0,3.190965915E-1,2.408643544E0,2.727678150E0
2.298551792E0,1.166060078E0,-2.862826020E-1,3.266020775E0,3.479733544E0
2.308606792E0,1.133000067E0,-1.861125473E0,3.393171988E0,4.032504596E0
2.318661792E0,1.578267585E0,-2.054162527E0,1.952103471E0,3.243643047E0
2.328716792E0,1.849558511E0,-1.941736357E0,2.175211000E-1,2.690450184E0
2.338771792E0,1.205938015E0,-2.344237633E0,-1.415754751E0,2.992339902E0
2.348826792E0,6.299226619E-1,-1.809250730E0,-3.165507722E0,3.700085121E0
2.358881792E0,-4.596722073E-1,-1.351122553E0,-4.040559917E0,4.285201878E0
2.368936792E0,-9.601853156E-1,-1.121647990E-1,-2.746516129E0,2.911681238E0
2.378991792E0,-9.282468005E-1,1.357936313E0,-1.392973999E0,2.155460441E0
2.389046792E0,-1.725972930E0,1.120021879E0,1.567170739E-1,2.063490200E0
2.399101792E0,-2.332417925E0,8.459628814E-1,1.938300533E0,3.148465583E0
2.409156792E0,-2.886810713E0,6.663779318E-1,3.102984030E0,4.290250055E0
2.419211792E0,-2.912283524E0,7.203155726E-1,3.794292151E0,4.837034502E0
2.429266792E0,-2.070109638E0,1.670253058E0,3.424614805E0,4.336252501E0
2.439321792E0,-1.316204589E0,2.279961530E0,2.845589597E0,3.876596349E0
2.449376792E0,-1.469127843E0,2.097843567E0,2.329437160E0,3.462017004E0
2.459431792E0,-1.699345295E0,2.053572543E0,2.108880186E0,3.398868968E0
2.469487792E0,-1.632504896E0,2.944509868E0,2.354830449E0,4.108580903E0
2.479542792E0,-1.179518979E0,3.328883021E0,2.036157049E0,4.076599406E0
2.489597792E0,-3.929071641E-1,2.904752895E0,1.598781956E0,3.338872439E0
2.499652792E0,-5.407046029E-1,1.951884200E0,1.044409925E0,2.278816686E0
2.509707792E0,-4.215917037E-1,1.029120480E0,1.307026653E-1,1.119781994E0
2.519762792E0,5.240214734E-1,8.000546372E-1,-9.693995042E-1,1.361771393E0
2.529817792E0,8.477918905E-1,1.647605038E-1,-2.030920575E0,2.206928974E0
2.539872792E0,8.935950311E-1,-9.867077011E-1,-2.963456601E0,3.248719624E0
2.549927792E0,1.143632351E0,-2.282521441E0,-3.569333392E0,4.388386942E0
2.559982792E0,1.190271644E0,-3.216268571E0,-3.948901888E0,5.230196576E0
2.570037792E0,1.509809992E0,-3.147952627E0,-3.686385294E0,5.077259939E0
2.580092792E0,1.455689187E0,-2.622592580E0,-3.023868864E0,4.259202479E0
2.590147792E0,1.406450661E0,-1.726002751E0,-1.871069248E0,2.908279404E0
2.600202792E0,1.394875075E0,-6.536602378E-1,-5.853144729E-1,1.647889927E0
2.610257792E0,1.146969503E0,9.066517174E-2,2.092904862E-1,1.169427947E0
2.620312792E0,1.333317489E0,6.810819250E-1,8.831201828E-1,1.738248938E0
2.630367792E0,1.112362904E0,1.050026615E0,8.914827975E-1,1.770493914E0
2.640422792E0,-5.675906852E-1,6.063872534E-1,6.406688210E-1,1.048961975E0
2.650477792E0,-1.166370126E0,5.408499062E-1,1.764314731E-1,1.297715669E0
2.660532792E0,-1.219410366E0,5.341525054E-1,-4.871339480E-1,1.417596565E0
2.670588792E0,-1.537259015E0,8.711942017E-2,-4.666569257E-1,1.608888983E0
2.680643792E0,-1.370178482E0,-1.853122973E-1,-1.907396829E-1,1.395747595E0
2.690698792E0,-1.002952582E0,-4.792664462E-1,8.309794644E-1,1.387853407E0
2.700753792E0,-7.051651445E-1,-7.546901840E-1,1.411581008E0,1.749107229E0
2.710808792E0,-4.779740654E-1,-8.971207559E-1,1.568551852E0,1.869128077E0
2.720863792E0,6.655983518E-1,4.225548863E-2,1.139145198E0,1.320022149E0
2.730918792E0,1.596624041E0,9.346633887E-1,-2.247155142E-1,1.863679437E0
2.740973792E0,4.699088547E-1,1.579449892E-2,4.596472105E-1,6.575251752E-1
2.751028792E0,1.056049685E0,1.990655333E-1,4.057258688E-2,1.075413483E0
2.761083792E0,1.288151841E0,4.313800889E-1,-2.863709680E-1,1.388319948E0
2.771138792E0,1.112367874E0,1.750387394E-1,-7.863211356E-2,1.128797527E0
2.781193792E0,3.591169819E-1,-5.242976081E-1,4.288231746E-1,7.666435310E-1
2.791248792E0,4.114330436E-1,9.837998807E-2,3.210694420E-1,5.310756613E-1
2.801303792E0,4.721454147E-1,5.061858577E-1,-9.872099038E-1,1.205706768E0
2.811358792E0,-1.867543669E-1,2.115271193E-1,-6.684677267E-1,7.255825366E-1
2.821413792E0,1.543521675E-1,3.620695335E-1,-5.584044170E-1,6.831796482E-1
2.831468792E0,-4.639838710E-2,-6.499706447E-2,-1.007715066E0,1.010874415E0
2.841523792E0,-1.929464221E-2,-2.325811887E-1,-6.453525869E-1,6.862552396E-1
2.851578792E0,-4.852306062E-1,-1.032560982E0,-1.000411090E-1,1.145268154E0
2.861633792E0,-3.714955375E-1,-9.899242544E-1,-4.546782466E-1,1.150952333E0
2.871688792E0,-2.966000140E-4,-1.693955916E-1,-9.059652543E-1,9.216658811E-1
2.881744792E0,-2.907498747E-2,-7.104191601E-2,-5.587178278E-1,5.639662400E-1
2.891799792E0,-1.327043134E-1,1.851491600E-1,4.364268208E-1,4.922997218E-1
2.901854792E0,-3.754877239E-2,9.157494003E-1,5.734820473E-1,1.081151485E0
2.911909792E0,-2.962613140E-1,7.654666024E-1,4.460126730E-1,9.341505179E-1
2.921964792E0,-5.123875608E-1,-5.026500463E-2,3.411030992E-1,6.175912138E-1
2.932019792E0,-9.207456999E-1,-7.380355597E-1,1.150367174E0,1.647972623E0
2.942074792E0,-1.519580251E-1,-6.109907663E-1,2.957311908E-1,6.955989470E-1
2.952129792E0,4.726083679E-1,-2.900984949E-1,-3.641072881E-1,6.633927370E-1
2.962184792E0,7.293508364E-1,-3.491372466E-2,1.123378766E-1,7.387769686E-1
2.972239792E0,7.292546497E-1,8.700832307E-2,2.445749243E-1,7.740798964E-1
2.982294792E0,7.722831403E-1,2.110581726E-1,-1.959706020E-1,8.242398182E-1
2.992349792E0,2.342168011E-1,1.729436821E-1,-1.094715714E-1,3.110483114E-1
3.002404792E0,-3.919552374E-1,1.682647401E-1,1.298070180E-1,4.458607325E-1
3.012459792E0,-5.972163342E-1,3.596353376E-1,-2.248912230E-3,6.971441626E-1
3.022514792E0,-8.187433617E-1,2.985763729E-1,1.878469191E-2,8.716888249E-1
3.032569792E0,-6.750724491E-1,1.347379750E-1,-1.342683705E-1,7.013594862E-1
3.042624667E0,-4.419922006E-1,-7.428185821E-2,-3.759080657E-1,5.849630533E-1
3.052679667E0,-3.731962001E-1,-1.931820649E-1,-3.489816376E-1,5.462443568E-1
3.062734667E0,-2.627588148E-1,-9.940909803E-2,-6.311711155E-2,2.879377247E-1
3.072789667E0,-6.631236640E-1,-4.443439507E-1,4.282793836E-1,9.058685173E-1
3.082844667E0,-1.676756185E0,-1.509673898E0,1.298792896E0,2.603361206E0
3.092900667E0,-3.225857712E0,-3.100249872E0,2.456356823E0,5.104056827E0
3.102955667E0,-2.981449068E0,-2.945513835E0,1.659382499E0,4.507620279E0
3.113010667E0,-1.006593789E-1,-3.849502730E-1,-7.717447579E-1,8.682793298E-1
3.123065667E0,2.386820273E-1,2.785929286E-1,-1.205518112E0,1.260101999E0
3.133120667E0,-5.181279185E-1,-5.313598752E-2,-1.031709627E0,1.155726926E0
3.143175667E0,-3.466457480E-1,1.440484965E-1,-1.805849404E0,1.844452579E0
3.153230667E0,-6.257602483E-2,-1.173167807E-1,-1.577325014E0,1.582919197E0
3.163285667E0,1.816086709E-1,-2.819772971E-1,-1.814979247E0,1.845709233E0
3.173340667E0,8.054069591E-1,6.996661305E-2,-1.947711042E0,2.108827637E0
3.183395667E0,6.864490112E-1,1.548868954E-1,-1.395012338E0,1.562453717E0
3.193450667E0,1.329865585E0,5.413954514E-1,-5.732014175E-1,1.546030845E0
3.203505667E0,1.741268077E0,1.200155631E0,-7.351037657E-1,2.238920633E0
3.213560667E0,1.519589899E0,1.461829641E0,-1.136806312E0,2.395501607E0
3.223615667E0,2.398901352E-1,4.596613169E-2,-5.448961794E-1,5.971365075E-1
3.233670667E0,-1.580413221E-1,-6.881278199E-1,1.739667255E-2,7.062574603E-1
3.243725667E0,1.836714225E-1,-9.042075813E-2,-1.261934388E-1,2.404909331E-1
3.253780667E0,-5.829630882E-1,-6.677251303E-1,-5.157825273E-2,8.878981518E-1
3.263835667E0,-9.320238825E-1,-7.854868841E-1,-2.646543360E-1,1.247277066E0
3.273890667E0,-4.369285119E-1,7.408831537E-2,-9.360994649E-1,1.035701603E0
3.283945667E0,-3.537052377E-1,2.231063604E-1,-8.326657283E-1,9.317811215E-1
3.294000667E0,1.292015389E-3,6.460114950E-1,1.314465773E-1,6.592501222E-1
3.304056667E0,7.416725278E-2,5.762606442E-1,7.645175993E-1,9.602417774E-1
3.314111667E0,2.232474976E-1,1.197544849E-1,1.339434553E0,1.363182125E0
3.324166667E0,4.142851692E-1,-2.115183485E-1,1.844762625E0,1.902503969E0
3.334221667E0,5.960755424E-1,-3.590745896E-1,1.899007244E0,2.022490822E0
3.344276667E0,8.077485497E-1,-5.455645162E-1,1.833650576E0,2.076625338E0
3.354331667E0,3.455518802E-1,-2.315197436E0,2.388354875E0,3.344216542E0
3.364386667E0,9.433232613E-2,-3.544583883E0,3.152432764E0,4.744555387E0
3.374441667E0,4.942240624E-1,-3.122333052E0,3.295854439E0,4.566823578E0
3.384496667E0,9.942073399E-1,-1.271861206E0,1.670186985E0,2.322843887E0
3.394551667E0,3.202357753E0,4.473757905E0,-1.435514832E0,5.685974657E0
3.404606667E0,2.622202570E0,4.086031374E0,-8.054447468E-1,4.921416458E0
3.414661667E0,1.202715834E0,1.709987812E0,7.218585066E-1,2.211710514E0
3.424716667E0,1.071018119E0,2.435527872E0,2.264474595E-1,2.670234873E0
3.434771667E0,6.400754017E-1,3.328646209E0,-1.040003318E0,3.545587258E0
3.444826667E0,-2.792103946E-2,3.038911411E0,-1.870558055E0,3.568578090E0
3.454881667E0,-3.702543928E-1,2.753970160E0,-2.050418555E0,3.453354341E0
3.464936667E0,-5.671988486E-1,2.666527389E0,-1.766558454E0,3.248509138E0
3.474991667E0,-4.403717910E-1,2.589369285E0,-1.287380301E0,2.925082674E0
3.485046667E0,-2.644270986E-1,2.503391826E0,-8.296041993E-1,2.650497209E0
3.495101667E0,-8.544740885E-2,2.398772859E0,-5.258542100E-1,2.457221020E0
3.505156667E0,2.011051883E-1,2.227468151E0,-3.509358501E-1,2.263893468E0
3.515212667E0,5.591102491E-1,2.041452434E0,-2.872351865E-1,2.136032856E0
3.525267667E0,9.979666610E-1,1.681150514E0,-3.972691870E-1,1.995000580E0
3.535322667E0,1.479941684E0,1.104177679E0,-4.483843768E-1,1.900127439E0
3.545377667E0,1.774199011E0,1.178167176E-1,9.258481264E-3,1.778130656E0
3.555432667E0,1.913257786E0,-9.792220956E-1,5.813617551E-1,2.226524816E0
3.565487667E0,2.280329174E0,-1.632251419E0,9.018757117E-1,2.945764015E0
3.575542667E0,2.288050714E0,-2.720673190E0,6.107953231E-1,3.606980677E0
3.585597667E0,1.887445837E0,-3.402804691E0,1.225270007E0,4.079561023E0
3.595652667E0,1.375225945E0,-2.725510007E0,2.160305278E0,3.739862310E0
3.605707667E0,4.379104055E-1,-2.017474757E0,1.987847354E0,2.865921670E0
3.615762667E0,-1.363674478E-1,-1.260381952E0,1.644323580E0,2.076284851E0
3.625817667E0,-8.033486661E-1,-9.260346526E-1,1.492349768E0,1.931325215E0
3.635872667E0,-1.630285585E0,-1.092097331E0,7.264744449E-1,2.092432266E0
3.645927667E0,-2.567143434E0,-1.311542750E0,-1.908123346E-1,2.889079290E0
3.655982667E0,-3.070623785E0,-1.236854510E0,-1.098211180E0,3.487779710E0
3.666037667E0,-2.853454687E0,-6.329230875E-1,-2.217699354E0,3.668921601E0
3.676092667E0,-2.450642632E0,-4.148131728E-2,-2.882901850E0,3.783978473E0
3.686147667E0,-2.039335303E0,4.549133778E-4,-2.936863464E0,3.575479785E0
3.696202667E0,-1.159167380E0,2.351586413E-1,-2.055198069E0,2.371246023E0
3.706257667E0,-5.407434869E-1,5.373784143E-1,-1.046394324E0,1.294650594E0
3.716312667E0,-2.700065848E-1,6.690781760E-1,-3.865570148E-1,8.185325205E-1
3.726368667E0,-1.150300808E-1,7.269515777E-1,-4.482358575E-2,7.373599322E-1
3.736423667E0,-1.244945303E-2,7.465888667E-1,7.985652052E-2,7.509507232E-1
3.746478667E0,5.675541401E-2,6.859585029E-1,1.221962091E-1,6.990652031E-1
3.756533667E0,8.412959263E-2,5.364750195E-1,1.257467115E-1,5.574006372E-1
3.766588667E0,6.532787070E-2,3.998741215E-1,1.053657297E-1,4.186513833E-1
3.776643667E0,5.857141301E-2,2.916924459E-1,7.569805384E-2,3.069939556E-1
3.786698667E0,-8.323277593E-2,9.392265558E-2,1.447607604E-1,1.915850672E-1
3.796753667E0,-3.199029225E-1,-4.355357051E-2,2.828975757E-1,4.292619616E-1
3.806808667E0,-6.467328952E-1,-8.727904916E-2,4.113971563E-1,7.714458441E-1
3.816863667E0,-1.011759219E0,-9.421793997E-2,4.615862203E-1,1.116062533E0
3.826918667E0,-1.282567896E0,-1.227558607E-1,3.937772663E-1,1.347260162E0
3.836973667E0,-1.387192126E0,-2.067435122E-1,2.227894779E-1,1.420098597E0
3.847028667E0,-1.262813224E0,-4.081795067E-1,-1.334097069E-2,1.327209754E0
3.857083667E0,-9.799502201E-1,-6.387001365E-1,-1.958197073E-1,1.185995639E0
3.867138667E0,-6.365356435E-1,-8.392818528E-1,-3.407792731E-1,1.107114342E0
3.877193667E0,-2.790725465E-1,-8.728641665E-1,-4.099950306E-1,1.003926922E0
3.887248667E0,1.693412125E-2,-8.021426779E-1,-4.437779037E-1,9.168742924E-1
3.897303667E0,2.695294520E-1,-6.734337670E-1,-4.510694182E-1,8.541795971E-1
3.907358667E0,4.711527036E-1,-5.847192264E-1,-4.909754956E-1,8.971835827E-1
3.917413667E0,5.888996932E-1,-4.548847264E-1,-5.124792159E-1,9.035252679E-1
3.927469667E0,5.277992132E-1,-3.003843319E-1,-5.246262217E-1,8.025181797E-1
3.937524667E0,3.214115041E-1,-1.549558926E-1,-4.641262507E-1,5.854313455E-1
3.947579667E0,-7.462801337E-2,-7.108869374E-2,-3.784481692E-1,3.922320226E-1
3.957634667E0,-5.185866326E-1,-3.304495454E-2,-2.914977336E-1,5.958145628E-1
3.967689667E0,-9.472422114E-1,-2.412210345E-2,-2.041753968E-1,9.692973102E-1
3.977744667E0,-1.257663874E0,-3.352150261E-2,-1.201520956E-1,1.263834893E0
3.987799667E0,-1.454211450E0,-4.885348678E-3,-9.212171316E-2,1.457134591E0
3.997854667E0,-1.585771755E0,4.707008600E-4,-5.990530908E-2,1.586902936E0
4.007909667E0,-1.623583653E0,-9.513361394E-2,-6.152674655E-2,1.627531819E0
4.017964667E0,-1.654975599E0,-2.167521912E-1,-9.044121425E-2,1.671557764E0
4.028019667E0,-1.602453131E0,-2.822819370E-1,-1.070882463E-1,1.630646197E0
4.038074667E0,-1.504650263E0,-3.358687449E-1,-1.322581526E-1,1.547343674E0
4.048132542E0,-1.380764720E0,-3.430286604E-1,-1.897906981E-1,1.435339815E0
4.058187542E0,-1.340810549E0,-3.570146155E-1,-2.272163683E-1,1.406008408E0
4.068242542E0,-1.320456830E0,-3.906916541E-1,-2.109949861E-1,1.393113453E0
4.078297542E0,-1.278290804E0,-4.765124077E-1,-2.042391497E-1,1.379422011E0
4.088352542E0,-1.282485889E0,-5.417842913E-1,-2.326718205E-1,1.411536910E0
4.098407542E0,-1.360623109E0,-6.055189419E-1,-3.004263953E-1,1.519277609E0
4.108462542E0,-1.405691108E0,-6.558155215E-1,-4.288184603E-1,1.609331153E0
4.118517542E0,-1.462386588E0,-6.273167771E-1,-5.556901395E-1,1.685494706E0
4.128572542E0,-1.524627860E0,-6.075099188E-1,-6.691652264E-1,1.772382722E0
4.138627542E0,-1.517856492E0,-5.674968374E-1,-8.094628072E-1,1.811400294E0
4.148683542E0,-1.461134115E0,-4.781665850E-1,-9.098086292E-1,1.786423221E0
4.158738542E0,-1.310321559E0,-4.366700649E-1,-9.742461151E-1,1.690200824E0
4.168793542E0,-1.125369450E0,-4.216970998E-1,-9.807208101E-1,1.551160259E0
4.178848542E0,-9.693707067E-1,-3.765799838E-1,-9.082241068E-1,1.380711077E0
4.188903542E0,-8.047359180E-1,-2.240711510E-1,-8.181670455E-1,1.169275456E0
4.198958542E0,-6.878275654E-1,-6.332885385E-2,-8.390526420E-1,1.086796503E0
4.209013542E0,-7.504939297E-1,-5.472058296E-2,-9.136456452E-1,1.183631634E0
4.219068542E0,-7.258341748E-1,-7.272825301E-2,-9.580943513E-1,1.204188288E0
4.229123542E0,-7.247635496E-1,-1.114841831E-1,-1.014323004E0,1.251623778E0
4.239178542E0,-8.730851912E-1,-2.260223669E-1,-1.053563084E0,1.386852203E0
4.249233542E0,-1.010690641E0,-3.019139636E-1,-1.032644670E0,1.476144514E0
4.259288542E0,-1.197872585E0,-3.373948681E-1,-9.612723130E-1,1.572507071E0
4.269343542E0,-1.361248176E0,-3.611632150E-1,-8.887131176E-1,1.665306720E0
4.279398542E0,-1.495036271E0,-4.083537537E-1,-7.992191432E-1,1.743742377E0
4.289453542E0,-1.644997472E0,-4.800990897E-1,-7.315000536E-1,1.863224127E0
4.299508542E0,-1.739900998E0,-5.164506447E-1,-6.358401903E-1,1.923088531E0
4.309563542E0,-1.790242016E0,-5.245899689E-1,-5.496043575E-1,1.944794607E0
4.319618542E0,-1.847912520E0,-5.365177041E-1,-4.444726626E-1,1.974889332E0
4.329673542E0,-1.922316585E0,-5.619033909E-1,-3.553938404E-1,2.034045539E0
4.339728542E0,-1.996361631E0,-5.620922559E-1,-3.115666202E-1,2.097255641E0
4.349784542E0,-2.048858810E0,-5.590230525E-1,-3.027379093E-1,2.145222468E0
4.359839542E0,-2.042137728E0,-5.744597018E-1,-3.441179236E-1,2.149127170E0
4.369894542E0,-2.025063566E0,-5.669711727E-1,-4.292352571E-1,2.146294868E0
4.379949542E0,-2.023463767E0,-5.131703568E-1,-5.716278952E-1,2.164372400E0
4.390004542E0,-2.047797248E0,-4.965829754E-1,-7.487137449E-1,2.236211191E0
4.400059542E0,-2.033702827E0,-5.173177868E-1,-8.906216488E-1,2.279642911E0
4.410114542E0,-1.945120726E0,-4.650366622E-1,-9.442960918E-1,2.211662009E0
4.420169542E0,-1.831002957E0,-5.226679891E-1,-9.467273641E-1,2.126510371E0
4.430224542E0,-1.721224406E0,-7.603321624E-1,-8.567222699E-1,2.067532709E0
4.440279542E0,-1.550040151E0,-1.187046758E0,-7.503848791E-1,2.091597940E0
4.450334542E0,-1.288723699E0,-1.670681074E0,-6.614060444E-1,2.211208262E0
4.460389542E0,-1.018972052E0,-2.123740300E0,-5.361838647E-1,2.415795944E0
4.470444542E0,-7.959642175E-1,-2.421330248E0,-5.140678678E-1,2.600127877E0
4.480499542E0,-6.573144552E-1,-2.412571703E0,-5.831895947E-1,2.567620420E0
4.490554542E0,-6.590224269E-1,-1.994296979E0,-7.261744827E-1,2.222354692E0
4.500609542E0,-6.756793901E-1,-1.279959599E0,-7.432758343E-1,1.627051991E0
4.510664542E0,-4.932263812E-1,-6.330417860E-1,-5.900893092E-1,9.961021829E-1
4.520719542E0,-9.528885752E-2,-2.399989665E-1,-4.016575223E-1,4.775020791E-1
4.530774542E0,4.983713463E-1,-1.605347210E-1,-2.948049188E-1,6.008788027E-1
4.540829542E0,1.193996758E0,-2.997329521E-1,-1.838902545E-1,1.244702265E0
4.550885542E0,1.889669241E0,-5.748976582E-1,1.214162636E-1,1.978913607E0
4.560940542E0,2.433584257E0,-1.090013968E0,5.093287361E-1,2.714752024E0
4.570995542E0,2.804974837E0,-1.787992592E0,9.775690877E-1,3.467051005E0
4.581050542E0,3.136497054E0,-2.225950799E0,1.354461898E0,4.077626487E0
4.591105542E0,3.225470042E0,-2.325130101E0,1.708555244E0,4.327707014E0
4.601160542E0,3.032078354E0,-1.978757418E0,1.975689969E0,4.124600698E0
4.611215542E0,2.638856902E0,-1.079974884E0,2.029548672E0,3.499854185E0
4.621270542E0,2.189801558E0,1.795744246E-1,1.868673059E0,2.884339931E0
4.631325542E0,1.870216431E0,1.312823875E0,1.451172506E0,2.706864915E0
4.641380542E0,1.445351018E0,1.736347060E0,1.217427794E0,2.566334178E0
4.651435542E0,1.052468997E0,1.843672704E0,9.397820413E-1,2.321639574E0
4.661490542E0,1.001824800E0,1.918556240E0,3.728862246E-1,2.196259346E0
4.671545542E0,9.959793386E-1,1.962383460E0,-6.436739244E-2,2.201605516E0
4.681600542E0,8.622131708E-1,2.025573735E0,-4.738093130E-1,2.251856073E0
4.691655542E0,7.297541481E-1,2.027686334E0,-8.450326625E-1,2.314764175E0
4.701710542E0,5.005532348E-1,1.824542368E0,-1.226861619E0,2.254927455E0
4.711765542E0,2.697563240E-1,1.706364877E0,-1.698554167E0,2.422712493E0
4.721820542E0,1.308346662E-1,1.650708155E0,-1.862995412E0,2.492530246E0
4.731875542E0,2.855750889E-2,1.562606987E0,-1.824863380E0,2.402640731E0
4.741930542E0,-1.829213709E-2,1.354563639E0,-1.529463215E0,2.043143407E0
4.751985542E0,1.923909366E-2,1.189418389E0,-9.708694211E-1,1.535471810E0
4.762041542E0,1.112163806E-1,1.153009531E0,-4.459507656E-1,1.241238151E0
4.772096542E0,2.340511787E-1,1.236484382E0,-8.236848436E-2,1.261133675E0
4.782151542E0,2.979536444E-1,1.307309951E0,1.416663408E-1,1.348297086E0
4.792206542E0,3.763911188E-1,1.271802149E0,3.647283355E-1,1.375564516E0
4.802261542E0,4.112715143E-1,1.174034364E0,5.276036970E-1,1.351246317E0
4.812316542E0,4.018267992E-1,1.069271556E0,5.343677560E-1,1.261092913E0
4.822371542E0,3.326600853E-1,8.727296805E-1,3.916991293E-1,1.012792198E0
4.832426542E0,1.842814332E-1,6.688355166E-1,1.681578092E-1,7.138470730E-1
4.842481542E0,6.716638148E-2,5.244812107E-1,-1.397507199E-1,5.469205855E-1
4.852536542E0,2.459602028E-2,3.457610643E-1,-5.549661811E-1,6.543264781E-1
4.862591542E0,8.560908437E-3,2.633562541E-1,-8.348549259E-1,8.754499146E-1
4.872646542E0,-3.461727083E-2,2.584030777E-1,-9.858078877E-1,1.019699808E0
4.882701542E0,-5.750385761E-2,3.220886117E-1,-1.269195460E0,1.310688706E0
4.892756542E0,-1.168960735E-1,4.789214605E-1,-1.542290837E0,1.619163822E0
4.902811542E0,-1.363409892E-1,7.569694287E-1,-1.772645406E0,1.932320707E0
4.912866542E0,-1.790294641E-1,9.202295369E-1,-1.856383381E0,2.079671418E0
4.922921542E0,-2.259460607E-1,8.780652648E-1,-1.775899966E0,1.993958605E0
4.932976542E0,-2.189264783E-1,8.141475964E-1,-1.663421756E0,1.864869178E0
4.943031542E0,-1.850816247E-1,7.401475739E-1,-1.570282627E0,1.745812467E0
4.953086542E0,-1.186417598E-1,7.472899479E-1,-1.519846884E0,1.697778750E0
4.963142542E0,-1.179728383E-1,7.262329549E-1,-1.486742288E0,1.658835292E0
4.973197542E0,-1.616863301E-1,7.004771394E-1,-1.437852548E0,1.607554243E0
4.983252542E0,-2.606741363E-1,7.346693176E-1,-1.397981554E0,1.600638135E0
4.993307542E0,-3.934731746E-1,8.586671269E-1,-1.414124547E0,1.700552442E0
5.003362542E0,-5.496148825E-1,9.990646219E-1,-1.480766433E0,1.868923719E0
5.013417542E0,-6.695339665E-1,1.164918555E0,-1.595211647E0,2.085668039E0
5.023472542E0,-7.408100635E-1,1.300349425E0,-1.543609968E0,2.149986026E0
5.033527542E0,-7.314068636E-1,1.310249931E0,-1.455894717E0,2.090775050E0
5.043579667E0,-6.980227706E-1,1.231512494E0,-1.429851218E0,2.012047047E0
5.053634667E0,-6.780358180E-1,1.168269594E0,-1.327289886E0,1.893748890E0
5.063689667E0,-6.774145514E-1,1.029623925E0,-1.213326484E0,1.729501968E0
5.073744667E0,-6.805960214E-1,8.541554153E-1,-1.114841831E0,1.560661631E0
5.083799667E0,-7.064997715E-1,5.652982843E-1,-1.020583545E0,1.363926263E0
5.093854667E0,-7.869755852E-1,2.124983418E-1,-9.941915524E-1,1.285652737E0
5.103909667E0,-8.542384458E-1,-1.393613684E-1,-1.046133538E0,1.357770339E0
5.113964667E0,-8.065166876E-1,-4.025106311E-1,-1.204193133E0,1.504182528E0
5.124019667E0,-8.851439041E-1,-6.443520552E-1,-1.396036770E0,1.774144291E0
5.134074667E0,-9.511914209E-1,-9.020563906E-1,-1.585604671E0,2.057331530E0
5.144129667E0,-1.022713393E0,-1.087609009E0,-1.772300420E0,2.317301193E0
5.154185667E0,-1.086264441E0,-1.193806724E0,-1.860634307E0,2.463149397E0
5.164240667E0,-1.043744951E0,-1.259822373E0,-1.828606768E0,2.453641915E0
5.174295667E0,-8.536820832E-1,-1.380427628E0,-1.767932550E0,2.399987299E0
5.184350667E0,-6.900220254E-1,-1.641725662E0,-1.743136847E0,2.491971030E0
5.194405667E0,-4.392235440E-1,-1.984009972E0,-1.675500934E0,2.633726689E0
5.204460667E0,4.041010737E-3,-2.569823213E0,-1.560290905E0,3.006412377E0
5.214515667E0,6.255833700E-1,-3.334818529E0,-1.281696807E0,3.626998192E0
5.224570667E0,1.374513754E0,-3.982005900E0,-8.081004059E-1,4.289368871E0
5.234625667E0,2.092791280E0,-4.429462323E0,-3.636126137E-1,4.912446025E0
5.244680667E0,2.504309839E0,-4.239676906E0,7.365156490E-2,4.924616999E0
5.254735667E0,2.563464366E0,-3.234323019E0,6.668060211E-1,4.180529298E0
5.264790667E0,2.645162247E0,-2.349105440E0,9.491902844E-1,3.662805193E0
5.274845667E0,2.826110183E0,-1.667893122E0,1.155846015E0,3.479187584E0
5.284900667E0,3.012356865E0,-1.007365914E0,1.445663259E0,3.489845588E0
5.294955667E0,2.955334234E0,-2.691368115E-1,1.653018390E0,3.396896356E0
5.305010667E0,2.718858507E0,3.902665615E-1,1.695646931E0,3.227958811E0
5.315065667E0,2.431568430E0,9.142355561E-1,1.565872657E0,3.033201091E0
5.325120667E0,2.078053665E0,1.365569853E0,1.297169709E0,2.804592183E0
5.335175667E0,1.548931227E0,1.692804599E0,9.930186740E-1,2.500172283E0
5.345230667E0,9.677048349E-1,1.860082914E0,8.663843552E-1,2.268696310E0
5.355286667E0,4.308965242E-1,1.817160258E0,9.163055436E-1,2.080230532E0
5.365341667E0,5.369512752E-2,1.682311186E0,1.044251904E0,1.980786746E0
5.375396667E0,-1.535455441E-1,1.499822509E0,1.309925995E0,1.997235566E0
5.385451667E0,-2.673735836E-1,1.242754936E0,1.669473624E0,2.098349505E0
5.395506667E0,-4.265878572E-1,8.700148183E-1,2.119320828E0,2.330326963E0
5.405561667E0,-3.842706804E-1,5.447236866E-1,2.546416808E0,2.632228412E0
5.415616667E0,-3.451187477E-2,2.325326568E-1,2.883492419E0,2.893059113E0
5.425671667E0,3.593796681E-1,-1.397712582E-1,3.099444126E0,3.123338541E0
5.435726667E0,7.485045607E-1,-3.525034887E-1,3.065455431E0,3.175143270E0
5.445781667E0,1.168887937E0,-3.731739807E-1,2.757552749E0,3.018220501E0
5.455836667E0,1.559666130E0,-3.428836495E-1,2.299211733E0,2.799375328E0
5.465891667E0,1.718894583E0,-3.692411435E-1,1.868427476E0,2.565532857E0
5.475946667E0,1.761654687E0,-3.020396787E-1,1.525643814E0,2.349945584E0
5.486001667E0,1.680501911E0,-1.128921926E-1,1.300721308E0,2.128075949E0
5.496056667E0,1.509923428E0,1.058375269E-1,1.143198634E0,1.896832480E0
5.506111667E0,1.245012984E0,2.721680081E-1,9.717698923E-1,1.602644527E0
5.516166667E0,1.029289757E0,4.826911604E-1,7.750836642E-1,1.375929811E0
5.526221667E0,9.022991963E-1,6.971442264E-1,5.681176655E-1,1.273935475E0
5.536276667E0,7.886152907E-1,9.027375913E-1,3.831363206E-1,1.258428653E0
5.546331667E0,6.477625899E-1,1.028034652E0,2.430194919E-1,1.239157009E0
5.556387667E0,4.885199574E-1,1.055953352E0,2.089385569E-1,1.182093292E0
5.566442667E0,3.168373735E-1,9.929273844E-1,2.431376056E-1,1.070236706E0
5.576497667E0,2.044764005E-1,9.119370157E-1,2.856760995E-1,9.772668790E-1
5.586552667E0,6.345427662E-2,7.938612664E-1,3.713333503E-1,8.787096292E-1
5.596607667E0,-7.081489787E-2,7.512537754E-1,5.221774077E-1,9.176416675E-1
5.606662667E0,-5.056923527E-1,6.186541271E-1,9.304265694E-1,1.226438456E0
5.616717667E0,-8.708278736E-1,5.178329265E-1,1.292847447E0,1.642542738E0
5.626772667E0,-1.034451094E0,5.231983316E-1,1.274823990E0,1.723079152E0
5.636827667E0,-1.183022412E0,5.696778488E-1,1.071043847E0,1.694464458E0
5.646882667E0,-1.320801524E0,6.391111958E-1,8.521299398E-1,1.696792627E0
5.656937667E0,-1.645966794E0,5.602954066E-1,7.673277712E-1,1.900507705E0
5.666992667E0,-2.017569920E0,3.748673344E-1,7.832637727E-1,2.196500863E0
5.677047667E0,-2.133993685E0,1.789762545E-1,7.681311786E-1,2.275079571E0
5.687102667E0,-2.088438759E0,-1.124279237E-1,7.142385614E-1,2.210057286E0
5.697157667E0,-1.902013005E0,-3.950337964E-1,6.146930771E-1,2.037535951E0
5.707212667E0,-1.632908061E0,-5.781299990E-1,4.739649220E-1,1.795902497E0
5.717267667E0,-1.394434633E0,-6.562300891E-1,2.403288956E-1,1.559757627E0
5.727322667E0,-1.081915867E0,-6.044272667E-1,-8.308995768E-2,1.242086231E0
5.737377667E0,-8.386676028E-1,-5.359470159E-1,-4.500343879E-1,1.092306506E0
5.747432667E0,-6.486634997E-1,-3.432286352E-1,-8.204684365E-1,1.100790029E0
5.757488667E0,-5.066969043E-1,-1.346023196E-1,-1.123262991E0,1.239588352E0
5.767543667E0,-4.759560451E-1,3.330047786E-2,-1.277934709E0,1.364096843E0
5.777598667E0,-5.068840152E-1,2.481090546E-1,-1.285887214E0,1.404277549E0
5.787653667E0,-5.281795746E-1,3.339262998E-1,-1.163061626E0,1.320300262E0
5.797708667E0,-5.106978616E-1,2.389973384E-1,-9.629206431E-1,1.115862088E0
5.807763667E0,-5.067278945E-1,1.073116100E-1,-8.180549251E-1,9.682472831E-1
5.817818667E0,-5.711840916E-1,3.640593410E-2,-7.657911229E-1,9.560401155E-1
5.827873667E0,-6.960051888E-1,3.731693029E-3,-6.805270243E-1,9.734239463E-1
5.837928667E0,-8.396996364E-1,-5.681154728E-3,-6.138113900E-1,1.040140460E0
5.847983667E0,-9.947324198E-1,-2.698723912E-2,-5.266119361E-1,1.125851247E0
5.858038667E0,-1.187663932E0,1.683237970E-2,-3.898609109E-1,1.250128183E0
5.868093667E0,-1.414991982E0,1.125132930E-1,-2.098859520E-1,1.434891516E0
5.878148667E0,-1.550784502E0,1.912787962E-1,-7.274170160E-2,1.564228725E0
5.888203667E0,-1.621642815E0,2.952136391E-1,1.054672520E-1,1.651665782E0
5.898258667E0,-1.576349114E0,3.947274023E-1,2.410936383E-1,1.642806255E0
5.908313667E0,-1.480787776E0,3.731751502E-1,3.763924344E-1,1.572788414E0
5.918368667E0,-1.326748727E0,2.268427312E-1,4.170221047E-1,1.409122863E0
5.928423667E0,-1.099287360E0,4.554396272E-3,3.623974161E-1,1.157490963E0
5.938478667E0,-7.893366909E-1,-3.230200732E-1,2.258685851E-1,8.822760322E-1
5.948533667E0,-4.243584600E-1,-7.486529338E-1,3.603639007E-2,8.613129160E-1
5.958589667E0,-1.250953317E-1,-1.205288317E0,-1.055656314E-1,1.216352281E0
5.968644667E0,1.760622945E-1,-1.767706262E0,-2.097023495E-1,1.788786862E0
5.978699667E0,4.384204289E-1,-2.318499944E0,-1.733829542E-1,2.365949304E0
5.988754667E0,5.788091531E-1,-2.567121214E0,-2.152057488E-1,2.640349386E0
5.998809667E0,6.718632048E-1,-2.390884965E0,-4.201667373E-1,2.518783669E0
6.008864667E0,6.633864963E-1,-1.936311895E0,-6.659111048E-1,2.152399359E0
6.018919667E0,6.570630249E-1,-1.303491134E0,-8.284672813E-1,1.678445409E0
6.028974667E0,7.156413084E-1,-7.685574406E-1,-8.068537065E-1,1.324324705E0
6.039029667E0,7.602333444E-1,-3.880031043E-1,-6.008459933E-1,1.043799336E0
6.049084333E0,7.956879365E-1,-2.210364461E-1,-2.132982409E-1,8.529200094E-1
6.059139333E0,8.794019383E-1,-1.896789980E-1,2.349025333E-1,9.297876594E-1
6.069194333E0,1.052649383E0,-1.443437809E-1,7.115897727E-1,1.278775139E0
6.079249333E0,1.279437443E0,-6.947720110E-2,1.094217678E0,1.684962783E0
6.089304333E0,1.450126146E0,-3.170769632E-2,1.396502209E0,2.013477002E0
6.099359333E0,1.430125745E0,4.055394888E-2,1.786344409E0,2.288652576E0
6.109414333E0,1.391410453E0,1.566954392E-1,1.967996057E0,2.415281555E0
6.119469333E0,1.305756638E0,3.553633618E-1,1.893910811E0,2.327698794E0
6.129524333E0,1.293506721E0,6.622059435E-1,1.721269430E0,2.252652836E0
6.139579333E0,1.312707223E0,9.013547248E-1,1.542497828E0,2.216966428E0
6.149635333E0,1.281423157E0,1.112853777E0,1.321546605E0,2.151040276E0
6.159690333E0,1.207836826E0,1.319638220E0,1.026734816E0,2.062643743E0
6.169745333E0,1.138472476E0,1.479541442E0,8.374067970E-1,2.046072481E0
6.179800333E0,1.165757923E0,1.500183282E0,7.237743469E-1,2.033074204E0
6.189855333E0,1.298092692E0,1.381616367E0,6.797774843E-1,2.013952793E0
6.199910333E0,1.554672316E0,1.085680012E0,5.172471817E-1,1.965515644E0
6.209965333E0,1.995053024E0,7.383343524E-1,3.507789986E-1,2.156019501E0
6.220020333E0,2.530044312E0,4.753014493E-1,1.587331208E-1,2.579192101E0
6.230075333E0,2.674286352E0,3.056251913E-1,-1.043693642E-1,2.693716246E0
6.240130333E0,2.660756772E0,1.738429838E-1,-4.573400453E-1,2.705366500E0
6.250185333E0,2.574252186E0,1.923950297E-1,-7.834812891E-1,2.697708860E0
6.260240333E0,1.927423543E0,-4.103926778E-2,-9.033492100E-1,2.129010458E0
6.270295333E0,8.591553694E-1,-4.176157433E-1,-8.232447676E-1,1.261064156E0
6.280350333E0,-1.192603952E-1,-6.526048154E-1,-6.627245915E-1,9.377206253E-1
6.290405333E0,-9.038292664E-1,-5.942425865E-1,-5.290677667E-1,1.204136328E0
6.300460333E0,-1.381367276E0,-4.167047471E-1,-4.765411321E-1,1.519509739E0
6.310515333E0,-1.380585211E0,-6.035203636E-2,-5.816144279E-1,1.499310920E0
6.320570333E0,-1.331387323E0,2.468191588E-1,-6.701249007E-1,1.510820732E0
6.330625333E0,-1.405387638E0,3.996829176E-1,-5.585529363E-1,1.564238546E0
6.340680333E0,-1.598594846E0,4.046717620E-1,-4.562441310E-1,1.710971485E0
6.350736333E0,-1.862020097E0,3.943297917E-1,-4.029363084E-1,1.945500577E0
6.360791333E0,-2.138641052E0,2.364397663E-1,-3.410563580E-1,2.178533624E0
6.370846333E0,-2.193490274E0,-2.278309107E-2,-2.236209154E-1,2.204977316E0
6.380901333E0,-2.011899729E0,-3.208092409E-1,-1.037062168E-2,2.037343034E0
6.390956333E0,-1.678391213E0,-5.551387471E-1,1.743943763E-1,1.776397898E0
6.401011333E0,-1.134864159E0,-5.244747788E-1,2.293559011E-1,1.271060416E0
6.411066333E0,-3.421585947E-1,-1.846404523E-1,2.085701823E-2,3.893579533E-1
6.421121333E0,4.165252376E-1,3.447693765E-1,-3.238994579E-1,6.302936263E-1
6.431176333E0,9.848094025E-1,8.989532733E-1,-6.877962828E-1,1.500343385E0
6.441231333E0,1.308494012E0,1.364243705E0,-1.019485438E0,2.147712276E0
6.451286333E0,1.385198664E0,1.723332912E0,-1.304079949E0,2.566958546E0
6.461341333E0,1.246845063E0,1.920640188E0,-1.390200080E0,2.678831388E0
6.471396333E0,1.134116885E0,1.925849472E0,-1.260422298E0,2.565888085E0
6.481451333E0,1.083336448E0,1.675061808E0,-9.500813270E-1,2.209548472E0
6.491506333E0,9.654738298E-1,1.256812227E0,-6.926798773E-1,1.729601718E0
6.501561333E0,7.863622123E-1,8.385222995E-1,-4.135361044E-1,1.221678061E0
6.511616333E0,6.240671870E-1,4.108797508E-1,-1.338603079E-1,7.590787875E-1
6.521671333E0,4.049842957E-1,4.242154956E-3,1.758456552E-1,4.415336568E-1
6.531726333E0,1.661594501E-1,-3.814074451E-1,4.326740777E-1,6.002395018E-1
6.541781333E0,-3.432198644E-2,-6.669024271E-1,5.454259372E-1,8.622217226E-1
6.551837333E0,-2.663973910E-1,-7.920778656E-1,4.397819531E-1,9.443320821E-1
6.561892333E0,-4.153727514E-1,-6.973746067E-1,1.835721660E-1,8.322046652E-1
6.571947333E0,-3.911214244E-1,-3.999893117E-1,-1.209180625E-1,5.723535585E-1
6.582002333E0,-2.667420843E-1,-1.173594654E-1,-3.741902268E-1,4.742814665E-1
6.592057333E0,9.405246377E-4,7.528757930E-2,-5.461112674E-1,5.512772629E-1
6.602112333E0,3.098816720E-1,2.050899196E-1,-6.658037353E-1,7.624848455E-1
6.612167333E0,5.553483698E-1,3.066461152E-1,-6.805936825E-1,9.304038975E-1
6.622222333E0,7.328096107E-1,4.165305001E-1,-6.072309701E-1,1.038863337E0
6.632277333E0,8.680562934E-1,4.882723278E-1,-4.892154837E-1,1.109623082E0
6.642332333E0,9.373805898E-1,4.462121361E-1,-3.205046010E-1,1.086513157E0
6.652387333E0,9.376612562E-1,3.333292991E-1,-1.990532907E-1,1.014859234E0
6.662442333E0,9.051492754E-1,1.741862154E-1,-1.247070765E-1,9.301547738E-1
6.672497333E0,8.295956478E-1,1.957647800E-2,-1.186820507E-1,8.382706045E-1
6.682552333E0,7.626078987E-1,-8.137219191E-2,-1.587448518E-1,7.831935704E-1
6.692607333E0,6.775379276E-1,-1.122285336E-1,-2.335880609E-1,7.254076574E-1
6.702662333E0,5.757531059E-1,-9.133701682E-2,-3.203654007E-1,6.651827415E-1
6.712717333E0,4.179867491E-1,-3.216553330E-2,-4.576393497E-1,6.206297756E-1
6.722772333E0,2.575713113E-1,6.181793332E-2,-5.746818960E-1,6.327904225E-1
6.732827333E0,8.470276594E-2,1.011644322E-1,-7.085843039E-1,7.207638424E-1
6.742883333E0,-2.964509100E-2,1.080816883E-1,-8.272535455E-1,8.348107039E-1
6.752938333E0,-8.652826667E-2,1.618281251E-1,-9.033117878E-1,9.217633476E-1
6.762993333E0,-4.658856779E-2,2.251528859E-1,-9.659810758E-1,9.929671472E-1
6.773048333E0,6.376388669E-3,3.079266554E-1,-9.773515713E-1,1.024731954E0
6.783103333E0,8.333100915E-2,3.543646574E-1,-9.129737270E-1,9.828730303E-1
6.793158333E0,2.276318130E-1,4.050693727E-1,-8.214262104E-1,9.437364346E-1
6.803213333E0,3.587483150E-1,4.473312932E-1,-7.291980779E-1,9.276505141E-1
6.813268333E0,4.757464224E-1,4.858714610E-1,-6.852831495E-1,9.654111715E-1
6.823323333E0,6.078747851E-1,4.802955562E-1,-6.998017859E-1,1.043991434E0
6.833378333E0,6.846031183E-1,4.243154830E-1,-7.036656260E-1,1.069518757E0
6.843433333E0,6.921881264E-1,3.497412640E-1,-6.572527671E-1,1.016574913E0
6.853488333E0,6.620644408E-1,2.717119253E-1,-6.430253220E-1,9.621009608E-1
6.863543333E0,6.477671215E-1,1.536718440E-1,-6.329283500E-1,9.185943476E-1
6.873598333E0,7.752232665E-1,-5.490477026E-2,-6.093921375E-1,9.875952734E-1
6.883653333E0,9.503587773E-1,-2.444124448E-1,-5.316838475E-1,1.116067634E0
6.893708333E0,1.154704346E0,-3.416843855E-1,-4.342703676E-1,1.280109800E0
6.903763333E0,1.311251266E0,-3.135312116E-1,-2.896078769E-1,1.378968610E0
6.913818333E0,1.448060325E0,-2.057535785E-1,-1.474573867E-1,1.470019361E0
6.923873333E0,1.475482305E0,-1.066222233E-1,-4.719046555E-2,1.480082184E0
6.933928333E0,1.360187491E0,-3.068034053E-3,1.295976877E-2,1.360252690E0
6.943984333E0,1.197885157E0,1.242884159E-2,1.151784539E-1,1.203473889E0
6.954039333E0,1.075691506E0,1.995198619E-1,2.115908905E-1,1.114311938E0
6.964094333E0,8.517875853E-1,2.795343304E-1,2.950375649E-1,9.437842428E-1
6.974149333E0,7.328578502E-1,2.440493327E-1,3.898841536E-1,8.652458371E-1
6.984204333E0,7.144312271E-1,2.063640279E-1,4.819100090E-1,8.861350614E-1
6.994259333E0,7.303827238E-1,1.922248757E-1,6.028608707E-1,9.663594339E-1
7.004314333E0,7.252006289E-1,1.861396784E-1,6.565769020E-1,9.958198433E-1
7.014369333E0,6.972608784E-1,1.161935306E-1,6.816778294E-1,9.820174806E-1
7.024424333E0,6.193698263E-1,7.336910784E-2,6.188786602E-1,8.786425916E-1
7.034479333E0,5.757507670E-1,6.229272723E-2,6.114912879E-1,8.421941135E-1
7.044535167E0,5.023758119E-1,6.530989051E-2,6.849252999E-1,8.519210671E-1
7.054590167E0,4.413680103E-1,1.064251721E-1,7.952504917E-1,9.157266963E-1
7.064645167E0,4.126280683E-1,1.990304500E-1,8.954753494E-1,1.005858412E0
7.074700167E0,3.855148217E-1,2.960702562E-1,9.525360612E-1,1.069394325E0
7.084755167E0,3.337856743E-1,4.072088689E-1,8.870624486E-1,1.031557913E0
7.094810167E0,3.138317585E-1,4.618212783E-1,7.833164708E-1,9.619532001E-1
7.104865167E0,3.011143568E-1,4.535334349E-1,7.860727751E-1,9.561761554E-1
7.114920167E0,2.291974050E-1,4.067323208E-1,8.825858203E-1,9.984589934E-1
7.124975167E0,1.248324993E-1,3.219418466E-1,1.033602955E0,1.089754456E0
7.135031167E0,2.633702874E-2,2.283010268E-1,1.160762354E0,1.183293810E0
7.145086167E0,-2.893319249E-2,7.381232679E-2,1.247545706E0,1.250062269E0
7.155141167E0,-8.235774010E-2,-7.685112476E-2,1.344739147E0,1.349448875E0
7.165196167E0,-5.222616076E-2,-9.957165062E-2,1.426886826E0,1.431309925E0
7.175251167E0,-3.592207700E-2,-2.213405013E-2,1.432412299E0,1.433033602E0
7.185306167E0,-2.889927864E-2,2.169141591E-2,1.348731772E0,1.349215728E0
7.195361167E0,-4.503847092E-2,2.232817769E-2,1.321932814E0,1.322888270E0
7.205416167E0,-3.724676371E-2,1.244737726E-1,1.253774014E0,1.260488127E0
7.215471167E0,-4.096091509E-2,2.144197369E-1,1.148637714E0,1.169197254E0
7.225526167E0,-5.086142063E-2,3.013064378E-1,1.026502097E0,1.071017744E0
7.235581167E0,1.135529280E-3,3.203993511E-1,9.662921476E-1,1.018026300E0
7.245636167E0,5.409551561E-3,2.976928586E-1,9.320274639E-1,9.784301175E-1
7.255691167E0,-3.205706745E-2,2.338593900E-1,9.104920225E-1,9.405921501E-1
7.265746167E0,-5.764945328E-2,1.365219605E-1,8.812302165E-1,8.936041627E-1
7.275801167E0,-8.507260233E-2,1.501564980E-2,8.234166026E-1,8.279358181E-1
7.285856167E0,-1.031653494E-1,-3.582413614E-2,8.349413916E-1,8.420531963E-1
7.295911167E0,-1.099226841E-1,-7.697157741E-2,8.671466859E-1,8.774685152E-1
7.305966167E0,-8.424142063E-2,-9.929917037E-2,8.306776019E-1,8.408223478E-1
7.316021167E0,-5.223405451E-2,-8.480860054E-2,8.104977643E-1,8.165950779E-1
7.326077167E0,-1.769016623E-2,-1.089558470E-1,7.033990661E-1,7.120074190E-1
7.336132167E0,-1.760479689E-2,-1.769934636E-1,6.198609193E-1,6.448753169E-1
7.346187167E0,-2.296961725E-2,-2.743338168E-1,4.755446204E-1,5.494809663E-1
7.356242167E0,-3.606796503E-2,-2.974753422E-1,4.052376994E-1,5.039941173E-1
7.366297167E0,-3.692312032E-2,-2.620540792E-1,3.078102958E-1,4.059345211E-1
7.376352167E0,-4.225607336E-2,-2.345452684E-1,1.856210303E-1,3.020798331E-1
7.386407167E0,-5.035446703E-2,-2.086076045E-1,1.120478547E-1,2.420897080E-1
7.396462167E0,-4.970864207E-2,-1.929475915E-1,5.338507891E-3,1.993193966E-1
7.406517167E0,-7.972678542E-2,-1.395473099E-1,-7.786729775E-2,1.785864722E-1
7.416572167E0,-1.247757813E-1,-1.182681227E-1,-5.824762344E-2,1.815189524E-1
7.426627167E0,-1.898827735E-1,-9.479856849E-2,3.101290092E-3,2.122542208E-1
7.436682167E0,-2.531762516E-1,-8.390111268E-2,8.702403747E-2,2.805544407E-1
7.446737167E0,-2.965842265E-1,-7.149799883E-2,1.754245826E-1,3.519203765E-1
7.456792167E0,-3.376585776E-1,-7.149624467E-2,2.355362984E-1,4.178544912E-1
7.466847167E0,-3.889909914E-1,-4.492298841E-2,2.388599288E-1,4.586786804E-1
7.476902167E0,-3.753465137E-1,-1.308489919E-2,2.367550043E-1,4.439697647E-1
7.486957167E0,-2.928905404E-1,-5.350085378E-2,2.200214425E-1,3.702116221E-1
7.497012167E0,-2.858420143E-1,-8.942146897E-2,1.461839727E-1,3.332740766E-1
7.507067167E0,-2.934767237E-1,-3.586565137E-2,1.042980281E-1,3.135171622E-1
7.517123167E0,-3.544842330E-1,-4.992411196E-2,6.951177277E-2,3.646688565E-1
7.527178167E0,-4.792848650E-1,-1.312033331E-1,5.125091828E-2,4.995547548E-1
7.537233167E0,-5.741974542E-1,-1.769075096E-1,9.173923217E-2,6.077952534E-1
7.547288167E0,-6.425385413E-1,-2.229034621E-1,2.180485920E-1,7.142036956E-1
7.557343167E0,-6.780957520E-1,-3.159618992E-1,3.977427384E-1,8.472573732E-1
7.567398167E0,-6.538704452E-1,-4.017493236E-1,5.136954367E-1,9.234890794E-1
7.577453167E0,-6.814280802E-1,-3.576478690E-1,5.324815173E-1,9.358380164E-1
7.587508167E0,-6.714436671E-1,-3.485080862E-1,4.718750540E-1,8.916056028E-1
7.597563167E0,-6.880579457E-1,-3.541073799E-1,3.085996699E-1,8.330963506E-1
7.607618167E0,-7.820200700E-1,-4.171941590E-1,2.010272741E-1,9.088555007E-1
7.617673167E0,-8.365044254E-1,-5.240590417E-1,9.757014871E-2,9.919160584E-1
7.627728167E0,-9.440034387E-1,-5.586441529E-1,7.413100004E-3,1.096941537E0
7.637783167E0,-1.067610069E0,-5.672816598E-1,-2.776257992E-2,1.209285120E0
7.647838167E0,-1.129898703E0,-5.374918503E-1,-3.841035962E-2,1.251816250E0
7.657893167E0,-1.172586009E0,-4.056897622E-1,-6.355572581E-2,1.242409539E0
7.667948167E0,-1.220023885E0,-2.795325762E-1,-8.489455462E-2,1.254513382E0
7.678003167E0,-1.218929286E0,-2.388149053E-1,-8.341053128E-2,1.244900992E0
7.688058167E0,-1.181851799E0,-2.326700664E-1,-7.314504985E-2,1.206755664E0
7.698113167E0,-1.190233783E0,-2.280817562E-1,-3.026979290E-2,1.212268124E0
7.708169167E0,-1.175696143E0,-1.843515998E-1,4.205558695E-2,1.190804604E0
7.718224167E0,-1.131499379E0,-1.404758477E-1,1.430766892E-1,1.149128038E0
7.728279167E0,-1.113743139E0,-1.386977094E-1,2.995622865E-1,1.161636087E0
7.738334167E0,-1.099757184E0,-1.579210156E-1,5.037784859E-1,1.219917076E0
7.748389167E0,-1.017381902E0,-1.672841620E-1,6.630321550E-1,1.225830969E0
7.758444167E0,-9.439198235E-1,-2.066844553E-1,7.623038435E-1,1.230776278E0
7.768499167E0,-8.260770857E-1,-2.351469469E-1,7.855794163E-1,1.163972705E0
7.778554167E0,-7.110915899E-1,-2.345218796E-1,7.765242720E-1,1.078722256E0
7.788609167E0,-6.250585824E-1,-1.970160842E-1,7.371748495E-1,9.863773759E-1
7.798664167E0,-5.230185297E-1,-1.629636544E-1,6.394515038E-1,8.420236106E-1
7.808719167E0,-4.336856461E-1,-1.453945255E-1,5.281065210E-1,6.986553550E-1
7.818774167E0,-3.542135069E-1,-1.150100541E-1,4.528995967E-1,5.863553237E-1
7.828829167E0,-3.157294723E-1,-5.112746894E-2,3.847433181E-1,5.003264321E-1
7.838884167E0,-2.413157594E-1,-6.936551929E-3,3.069437385E-1,3.905071959E-1
7.848939167E0,-1.974043393E-1,4.932009459E-2,2.471804436E-1,3.201548323E-1
7.858994167E0,-1.651771179E-1,2.869228721E-2,2.178332683E-1,2.748782647E-1
7.869049167E0,-1.197302189E-1,-4.015692294E-2,2.054641779E-1,2.411709605E-1
7.879104167E0,-2.124223280E-1,-1.084997642E-1,2.749944790E-1,3.640294051E-1
7.889159167E0,-3.505727381E-1,-1.668181390E-1,4.878530824E-1,6.234822902E-1
7.899214167E0,-3.903984162E-1,-1.447946012E-1,7.175948632E-1,8.296497982E-1
7.909270167E0,-4.051719913E-1,-1.675741839E-1,9.055653048E-1,1.006128208E0
7.919325167E0,-4.154975894E-1,-1.972803783E-1,1.010544972E0,1.110296778E0
7.929380167E0,-3.403287086E-1,-1.778418946E-1,1.168492373E0,1.229969835E0
7.939435167E0,-2.774392730E-1,-1.612387258E-1,1.355326116E0,1.392795519E0
7.949490167E0,-1.906335559E-1,-2.513601065E-1,1.488233328E0,1.521302565E0
7.959545167E0,-3.704532713E-2,-2.416268313E-1,1.579672086E0,1.598474204E0
7.969600167E0,5.373269588E-2,-3.090399653E-1,1.626014779E0,1.655994252E0
7.979655167E0,1.726621386E-1,-3.978258419E-1,1.660010490E0,1.715725049E0
7.989710167E0,2.438975975E-1,-4.050570935E-1,1.717227834E0,1.781131304E0
7.999765167E0,2.820594504E-1,-3.622624916E-1,1.781924937E0,1.840121770E0
8.009820167E0,1.916948256E-1,-2.806207430E-1,1.841083556E0,1.872186841E0
8.019875167E0,9.371244818E-2,-1.821799439E-1,1.852574505E0,1.863867981E0
8.029930167E0,-3.142235219E-2,2.684573650E-2,1.787180414E0,1.787658214E0
8.039985167E0,1.125814131E-1,3.608685154E-1,1.654822987E0,1.697450965E0
8.050039292E0,-1.915255487E-2,5.843678087E-1,1.507338520E0,1.616762806E0
8.060094292E0,-1.066114059E-1,7.544720829E-1,1.482581263E0,1.666925708E0
8.070149292E0,2.028247082E-1,6.470756882E-1,1.351181610E0,1.511799111E0
8.080204292E0,1.836367777E-1,3.640230882E-1,1.369688047E0,1.429083840E0
8.090259292E0,1.896950778E-1,2.896605384E-1,1.414803994E0,1.456556827E0
8.100315292E0,3.303434184E-1,3.544880337E-1,1.343448082E0,1.428160106E0
8.110370292E0,4.092013076E-1,2.825766367E-1,1.264838407E0,1.359084789E0
8.120425292E0,4.107856107E-1,2.574353635E-2,1.197449028E0,1.266211563E0
8.130480292E0,4.189541709E-1,-2.884735537E-1,1.164470658E0,1.270720859E0
8.140535292E0,4.023492479E-1,-5.760226625E-1,1.160339235E0,1.356493334E0
8.150590292E0,2.887308311E-1,-8.151843077E-1,1.153605362E0,1.441768456E0
8.160645292E0,1.881297782E-1,-1.010197136E0,1.051473289E0,1.470199695E0
8.170700292E0,7.841320843E-2,-1.123333157E0,8.715647690E-1,1.423956165E0
8.180755292E0,-6.895270586E-2,-1.161886774E0,6.637410568E-1,1.339883406E0
8.190810292E0,-1.940220174E-1,-1.190270913E0,4.651916865E-1,1.292591464E0
8.200865292E0,-2.451690745E-1,-1.097439348E0,2.091560733E-1,1.143777627E0
8.210920292E0,-2.289024130E-1,-7.754904842E-1,-7.009539798E-2,8.116003762E-1
8.220975292E0,-1.476421952E-1,-3.844690472E-1,-2.064441347E-1,4.606884488E-1
8.231030292E0,-5.938987702E-2,-3.903133392E-2,-2.211357757E-1,2.322749100E-1
8.241085292E0,1.182219297E-2,2.410403556E-1,-5.964269601E-2,2.485909661E-1
8.251140292E0,7.318813652E-2,4.829004908E-1,1.667274340E-1,5.160885821E-1
8.261195292E0,1.094049132E-1,6.977307022E-1,3.723541280E-1,7.984016310E-1
8.271250292E0,8.459780842E-2,8.400443298E-1,5.781305838E-1,1.023262546E0
8.281306292E0,9.994587243E-2,8.761924016E-1,7.305056615E-1,1.145137906E0
8.291361292E0,1.473042262E-1,7.610694963E-1,8.409196579E-1,1.143709397E0
8.301416292E0,1.971078855E-1,5.869271350E-1,9.205646554E-1,1.109402661E0
8.311471292E0,2.995566586E-1,5.067202932E-1,9.764335585E-1,1.140141281E0
8.321526292E0,3.696551263E-1,5.178767806E-1,9.872251797E-1,1.174501949E0
8.331581292E0,4.718276185E-1,4.767708546E-1,9.502216601E-1,1.163122071E0
8.341636292E0,5.710811806E-1,4.581755394E-1,8.357249916E-1,1.111078216E0
8.351691292E0,5.729452729E-1,5.059689260E-1,6.981352564E-1,1.035211899E0
8.361746292E0,6.563981965E-1,5.943840891E-1,4.835611530E-1,1.008951152E0
8.371801292E0,7.279111058E-1,6.707668519E-1,2.299640480E-1,1.016201855E0
8.381856292E0,8.009127161E-1,8.203251797E-1,-1.650310837E-2,1.146589260E0
8.391911292E0,7.203079712E-1,7.582020217E-1,-1.187967110E-1,1.052533390E0
8.401966292E0,6.916577840E-1,6.506986231E-1,-1.756268962E-1,9.657349506E-1
8.412021292E0,7.540925986E-1,5.228597778E-1,-1.194293066E-1,9.253655244E-1
8.422076292E0,7.844185978E-1,4.274314642E-1,6.354289848E-2,8.955712664E-1
8.432131292E0,7.453337619E-1,3.046989924E-1,2.908861514E-1,8.561417205E-1
8.442186292E0,6.515075853E-1,1.326581204E-1,3.319067081E-1,7.431166621E-1
8.452241292E0,5.551384547E-1,-3.516164660E-2,2.443774346E-1,6.075651207E-1
8.462296292E0,5.107762143E-1,-1.689365852E-1,7.255334817E-2,5.428590049E-1
8.472352292E0,5.265303674E-1,-2.269497353E-1,-1.135868418E-1,5.845018228E-1
8.482407292E0,5.082455394E-1,-1.899257505E-1,-3.414621548E-1,6.410785616E-1
8.492462292E0,4.587453505E-1,-2.862656450E-1,-5.229982837E-1,7.522782204E-1
8.502517292E0,5.434998643E-1,-4.288236862E-1,-6.328768945E-1,9.379845521E-1
8.512572292E0,6.480910572E-1,-5.437436932E-1,-7.542861414E-1,1.133413784E0
8.522627292E0,6.924617761E-1,-6.342077208E-1,-8.523556423E-1,1.268161222E0
8.532682292E0,6.294270372E-1,-6.189540893E-1,-1.073477458E0,1.389833232E0
8.542737292E0,6.470262793E-1,-5.473561031E-1,-1.287390826E0,1.541303620E0
8.552792292E0,6.074277654E-1,-3.732254362E-1,-1.518283339E0,1.677334198E0
8.562847292E0,3.707526487E-1,-1.283545697E-1,-1.575379061E0,1.623499802E0
8.572902292E0,-6.956637114E-2,-2.109640324E-1,-1.419781144E0,1.437053861E0
8.582957292E0,-3.069668350E-1,-2.557817709E-1,-1.269801232E0,1.331182978E0
8.593012292E0,-3.849587515E-1,-2.274496722E-1,-1.169736661E0,1.252282096E0
8.603067292E0,-3.226569611E-1,-1.702551323E-1,-1.061143341E0,1.122104948E0
8.613122292E0,-1.937603545E-1,-6.239856184E-2,-9.365274811E-1,9.583946882E-1
8.623177292E0,1.377019286E-4,9.075521886E-2,-8.189855826E-1,8.239987337E-1
8.633232292E0,1.498050803E-1,2.899681020E-1,-7.603403485E-1,8.274300622E-1
8.643287292E0,2.796799260E-1,4.808820319E-1,-7.874468708E-1,9.641270476E-1
8.653342292E0,3.357585248E-1,5.376596653E-1,-8.885183322E-1,1.091456151E0
8.663398292E0,4.275296974E-1,6.253339863E-1,-1.027908937E0,1.276879407E0
8.673453292E0,4.547356224E-1,5.623138654E-1,-1.200102421E0,1.401152094E0
8.683508292E0,4.787545225E-1,4.182560134E-1,-1.372083067E0,1.512202343E0
8.693563292E0,4.506712228E-1,3.016052306E-1,-1.529783642E0,1.623055223E0
8.703618292E0,3.576206794E-1,1.862893671E-1,-1.625401990E0,1.674672478E0
8.713673292E0,2.190504393E-1,1.148358071E-1,-1.641183625E0,1.659715051E0
8.723728292E0,7.020284057E-2,8.737903655E-2,-1.628359512E0,1.632212681E0
8.733783292E0,-2.070557535E-2,1.114403290E-1,-1.548868954E0,1.553010852E0
8.743838292E0,-3.571099252E-2,8.198088706E-2,-1.388713717E0,1.391589713E0
8.753893292E0,4.505688965E-2,3.024530768E-2,-1.176961480E0,1.178211877E0
8.763948292E0,1.531958807E-1,2.771404803E-2,-1.022949328E0,1.034728165E0
8.774003292E0,2.343847623E-1,1.860993326E-2,-8.902128553E-1,9.207396343E-1
8.784058292E0,4.718445754E-1,8.951268554E-2,-6.572352254E-1,8.140073499E-1
8.794113292E0,6.187886131E-1,2.155383092E-1,-4.308111548E-1,7.841902585E-1
8.804168292E0,6.329748353E-1,2.965561599E-1,-3.195047271E-1,7.685609727E-1
8.814223292E0,6.579094094E-1,3.576642412E-1,-2.259316985E-1,7.821851653E-1
8.824278292E0,6.673567557E-1,4.294125009E-1,-1.816928709E-1,8.141083679E-1
8.834333292E0,6.167651841E-1,4.177157307E-1,-1.936761546E-1,7.696727726E-1
8.844388292E0,4.858621055E-1,3.364160442E-1,-2.641491731E-1,6.473117688E-1
8.854443292E0,3.478058356E-1,3.517550451E-1,-3.655106199E-1,6.150597729E-1
8.864499292E0,3.123079741E-1,4.163615155E-1,-4.336225327E-1,6.774375862E-1
8.874554292E0,3.594976357E-1,4.307941979E-1,-4.734560680E-1,7.341545065E-1
8.884609292E0,3.834361365E-1,3.478122675E-1,-4.992773358E-1,7.192179797E-1
8.894664292E0,4.288631549E-1,1.479982907E-1,-4.871455328E-1,6.656860144E-1
8.904719292E0,4.948019135E-1,-6.351538002E-2,-4.646829057E-1,6.817575375E-1
8.914774292E0,6.603170004E-1,-1.695435262E-1,-3.744579927E-1,7.778061048E-1
8.924829292E0,8.370651734E-1,-1.950467420E-1,-2.281606571E-1,8.892573427E-1
8.934884292E0,9.015400815E-1,-1.231721824E-1,-1.131950784E-1,9.169291308E-1
8.944939292E0,8.524050513E-1,6.370541453E-2,-2.312453192E-2,8.550950212E-1
8.954994292E0,7.414181739E-1,3.093539608E-1,7.351590950E-2,8.067250898E-1
8.965049292E0,6.128440413E-1,5.777166009E-1,1.240404940E-1,8.513050769E-1
8.975104292E0,5.038700679E-1,8.315687907E-1,2.164077902E-1,9.961044276E-1
8.985159292E0,3.444892949E-1,1.016814430E0,2.862434622E-1,1.111089456E0
8.995214292E0,2.082541403E-1,1.021473491E0,3.560942638E-1,1.101626527E0
9.005269292E0,1.079384315E-1,9.411719245E-1,3.696060097E-1,1.016889325E0
9.015324292E0,3.655386865E-2,8.036518443E-1,3.263658500E-1,8.681630838E-1
9.025379292E0,-6.492309719E-2,5.816500229E-1,1.582888420E-1,6.062896298E-1
9.035434292E0,-1.786043715E-1,3.886018592E-1,1.573489387E-2,4.279702249E-1
9.045490042E0,-3.571067092E-1,2.245172936E-1,-1.376177287E-1,4.437024410E-1
9.055546042E0,-5.538991374E-1,8.517112792E-2,-1.984556687E-1,5.945107466E-1
9.065601042E0,-7.345567587E-1,2.970034719E-2,-2.703740458E-1,7.832993470E-1
9.075656042E0,-8.317374828E-1,-5.680570006E-2,-2.812089729E-1,8.798253317E-1
9.085711042E0,-8.124592128E-1,-6.212608159E-2,-2.454742992E-1,8.510036746E-1
9.095766042E0,-7.277114233E-1,-1.387602746E-2,-8.798075158E-2,7.331419184E-1
9.105821042E0,-5.981692842E-1,-3.989379823E-2,1.377685869E-1,6.151245331E-1
9.115876042E0,-5.245887995E-1,-6.142500043E-2,2.239495289E-1,5.736896641E-1
9.125931042E0,-5.168356839E-1,-1.189955163E-1,1.789856100E-1,5.597453936E-1
9.135986042E0,-5.178288335E-1,-1.914729238E-1,8.952788830E-2,5.593065564E-1
9.146041042E0,-4.747062027E-1,-2.351270664E-1,-4.173508644E-2,5.313873669E-1
9.156096042E0,-3.387885520E-1,-2.293248743E-1,-1.800264509E-1,4.469643207E-1
9.166151042E0,-1.991207895E-1,-2.382793003E-1,-2.871450663E-1,4.229401883E-1
9.176206042E0,-1.241895980E-1,-2.628376061E-1,-3.128564795E-1,4.270665524E-1
9.186261042E0,-6.833874822E-2,-2.816989696E-1,-3.098767018E-1,4.243207093E-1
9.196316042E0,-3.241111636E-2,-3.399682277E-1,-2.980314489E-1,4.532677144E-1
9.206371042E0,-2.516729325E-2,-4.533229351E-1,-2.808979011E-1,5.338901638E-1
9.216426042E0,-7.376934975E-2,-5.778557646E-1,-2.949323881E-1,6.529504692E-1
9.226481042E0,-4.471424282E-2,-6.500887585E-1,-3.813624215E-1,7.550179163E-1
9.236536042E0,-1.146141976E-2,-6.163672811E-1,-5.103321183E-1,8.002992317E-1
9.246592042E0,2.366338938E-2,-5.528641802E-1,-6.252521253E-1,8.349604649E-1
9.256647042E0,-9.170889974E-2,-4.873233247E-1,-6.735396016E-1,8.363911405E-1
9.266702042E0,-2.012664253E-1,-3.350442874E-1,-6.475803030E-1,7.563881922E-1
9.276757042E0,-3.403094128E-1,-1.951940918E-1,-4.871829915E-1,6.255065924E-1
9.286812042E0,-5.083773941E-1,-1.971271813E-2,-2.393300450E-1,5.622410840E-1
9.296867042E0,-6.649035564E-1,2.323835528E-1,-9.055465937E-2,7.101401279E-1
9.306922042E0,-8.693043816E-1,4.779098922E-1,-6.614136457E-2,9.942145910E-1
9.316977042E0,-1.053528512E0,7.456012720E-1,-7.228386919E-2,1.292698163E0
9.327032042E0,-1.242963974E0,1.069613618E0,-8.581255834E-2,1.642070804E0
9.337087042E0,-1.405787295E0,1.411828346E0,-1.057492431E-1,1.995164178E0
9.347142042E0,-1.593121267E0,1.760194929E0,-1.604429380E-1,2.379509087E0
9.357197042E0,-1.791886838E0,2.153764583E0,-2.930829138E-1,2.816994482E0
9.367252042E0,-2.019760141E0,2.578270100E0,-4.216240462E-1,3.302222672E0
9.377307042E0,-2.310794775E0,2.969527180E0,-5.176400415E-1,3.798133144E0
9.387362042E0,-2.478193835E0,3.417082422E0,-5.775897529E-1,4.260458530E0
9.397417042E0,-2.640524821E0,3.939064533E0,-6.618850044E-1,4.788182586E0
9.407472042E0,-2.776011532E0,4.473201835E0,-7.124627620E-1,5.312567917E0
9.417527042E0,-2.929448025E0,5.020009469E0,-8.308730451E-1,5.871329562E0
9.427582042E0,-3.048652872E0,5.429839645E0,-8.618427497E-1,6.286510624E0
9.437638042E0,-3.124741227E0,5.869660774E0,-8.166805371E-1,6.699544197E0
9.447693042E0,-3.143929450E0,6.322232342E0,-6.583812066E-1,7.091430039E0
9.457748042E0,-3.282989395E0,6.571285722E0,-5.543803632E-1,7.366624261E0
9.467803042E0,-3.295523486E0,6.711823550E0,-5.000434307E-1,7.493937140E0
9.477858042E0,-3.132459552E0,6.540594272E0,-3.765642694E-1,7.261781939E0
9.487913042E0,-2.736725844E0,6.026844456E0,-1.865022788E-1,6.621729800E0
9.497968042E0,-2.270275033E0,5.245072893E0,-9.695041694E-2,5.716147108E0
9.508023042E0,-2.009774266E0,4.601383327E0,2.352108277E-2,5.021202482E0
9.518078042E0,-1.714926370E0,3.696963492E0,2.707722777E-1,4.084339499E0
9.528133042E0,-1.374784773E0,2.610634439E0,6.371249697E-1,3.018505188E0
9.538188042E0,-1.153875796E0,1.919835026E0,1.147336635E0,2.516659936E0
9.548243042E0,-1.256083664E0,1.708181607E0,1.474542657E0,2.582616236E0
9.558298042E0,-1.560126598E0,1.577033823E0,1.476326058E0,2.664689346E0
9.568353042E0,-1.807263553E0,1.341931899E0,1.132092213E0,2.519645918E0
9.578408042E0,-1.737181458E0,1.036800798E0,5.511473646E-1,2.096787717E0
9.588463042E0,-1.579929364E0,6.112714326E-1,-6.901592888E-2,1.695462402E0
9.598518042E0,-1.238484129E0,6.013510466E-2,-5.315393847E-1,1.349071268E0
9.608573042E0,-6.576664576E-1,-7.695368493E-1,-8.156385633E-1,1.299991691E0
9.618628042E0,-1.331440240E-2,-1.895339870E0,-9.780099678E-1,2.132837077E0
9.628683042E0,4.321484131E-1,-3.146388497E0,-1.007365329E0,3.331861001E0
9.638739042E0,9.891705483E-1,-4.608566632E0,-8.719110703E-1,4.793492848E0
9.648794042E0,1.635097843E0,-6.330980362E0,-6.175273687E-1,6.567815265E0
9.658849042E0,2.442795084E0,-8.172673198E0,2.643526196E-2,8.529978537E0
9.668904042E0,3.778794983E0,-9.874819894E0,4.125795730E-1,1.058118998E1
9.678959042E0,4.688965555E0,-1.143193459E1,5.003351702E-1,1.236631965E1
9.689014042E0,5.195168661E0,-1.237992145E1,4.913643354E-1,1.343479331E1
9.699069042E0,5.823194706E0,-1.260627418E1,1.900491267E-1,1.388754348E1
9.709124042E0,6.272103578E0,-1.241347394E1,-3.494190824E-1,1.391243013E1
9.719179042E0,7.005002943E0,-1.197753945E1,-3.743592113E-1,1.388062183E1
9.729234042E0,7.854507483E0,-1.213270585E1,1.662310785E-1,1.445418527E1
9.739289042E0,8.448563544E0,-1.279568187E1,7.397172189E-1,1.535105475E1
9.749344042E0,8.279609417E0,-1.379511019E1,1.141965895E0,1.612950970E1
9.759399042E0,7.991029444E0,-1.460424906E1,1.420557654E0,1.670804076E1
9.769454042E0,7.784049119E0,-1.473713990E1,1.665028571E0,1.674953830E1
9.779509042E0,7.675836453E0,-1.385925531E1,1.687925098E0,1.593256144E1
9.789564042E0,7.948711975E0,-1.164159353E1,9.546234441E-1,1.412869519E1
9.799619042E0,7.244918879E0,-1.035180417E1,5.456704239E-1,1.264699393E1
9.809674042E0,7.091229494E0,-1.007873920E1,1.792431214E0,1.245308513E1
9.819729042E0,7.660321451E0,-1.258959090E1,2.383551972E0,1.492848431E1
9.829785042E0,7.107381842E0,-1.661397450E1,2.820778692E0,1.828922682E1
9.839840042E0,6.424712983E0,-1.849897883E1,3.120359616E0,1.982992181E1
9.849895042E0,6.651760951E0,-1.883910903E1,1.507055515E0,2.003569737E1
9.859950042E0,7.952835431E0,-1.900136926E1,-7.073733455E-1,2.061067690E1
9.870005042E0,6.684840989E0,-1.753359651E1,-3.417528564E0,1.907337430E1
9.880060042E0,5.428930988E0,-1.314702468E1,-4.260150347E0,1.484811202E1
9.890115042E0,4.097341936E0,-9.746760609E0,-2.465944503E0,1.085672306E1
9.900170042E0,2.640249417E0,-6.439538598E0,-1.752703477E0,7.177084632E0
9.910225042E0,1.195046041E0,-3.098783391E0,-1.999868206E0,3.876862956E0
9.920280042E0,-1.815458134E-1,1.547301900E-1,-2.401264942E0,2.413083844E0
9.930335042E0,-1.406209171E0,3.250584126E0,-1.901046753E0,4.019664183E0
9.940390042E0,-2.430829342E0,6.084716688E0,-7.725370556E-1,6.597690654E0
9.950445042E0,-3.531372099E0,8.506871978E0,1.096748207E0,9.275791954E0
9.960500042E0,-4.063385400E0,9.898943167E0,2.072802281E0,1.089938925E1
9.970555042E0,-4.264910273E0,1.075312080E1,2.731506912E0,1.188613464E1
9.980610042E0,-4.780439396E0,1.150649244E1,3.241489366E0,1.287475135E1
9.990665042E0,-5.626070448E0,1.187375371E1,2.772632718E0,1.342855868E1
1.000072004E1,-6.438643974E0,1.236210264E1,2.271809342E0,1.412228153E1
1.001077504E1,-6.795630523E0,1.290210353E1,1.512197556E0,1.466054607E1
1.002083104E1,-6.815332131E0,1.335860618E1,7.100776827E-1,1.501350464E1
1.003088604E1,-6.720082158E0,1.379413604E1,3.656733552E-2,1.534402263E1
1.004094104E1,-6.719540121E0,1.407343999E1,-4.327922281E-1,1.560132179E1
1.005099571E1,-6.523274235E0,1.452735700E1,-5.526086569E-1,1.593432096E1
1.006105071E1,-6.201666264E0,1.425265364E1,-6.342907512E-1,1.555638535E1
1.007110571E1,-5.261029944E0,1.403141839E1,-3.556872245E-1,1.498951805E1
1.008116071E1,-4.184838502E0,1.384852450E1,3.809099201E-1,1.447202807E1
1.009121571E1,-3.115612262E0,1.336549771E1,8.533484995E-1,1.375033718E1
1.010127071E1,-2.197757572E0,1.274814167E1,9.762089523E-1,1.297298108E1
1.011132571E1,-1.655884110E0,1.211494200E1,7.855699146E-1,1.225279119E1
1.012138071E1,-1.340130080E0,1.152732022E1,4.453601968E-1,1.161350101E1
1.013143571E1,-1.265326065E0,1.082779910E1,3.788421985E-1,1.090806146E1
1.014149071E1,-1.336717352E0,1.017629999E1,4.681187296E-1,1.027438709E1
1.015154571E1,-1.374369036E0,9.999703556E0,7.598269629E-1,1.012226746E1
1.016160071E1,-1.466546590E0,9.918543034E0,1.203251731E0,1.009832013E1
1.017165571E1,-1.625933502E0,9.589007993E0,1.533420610E0,9.846020151E0
1.018171071E1,-1.854209971E0,9.240965345E0,1.860874043E0,9.607100880E0
1.019176571E1,-1.935795001E0,8.893860006E0,1.912466365E0,9.300837365E0
1.020182071E1,-1.892481167E0,8.729180194E0,1.864754255E0,9.124548222E0
1.021187671E1,-1.890972000E0,8.704080436E0,1.776204167E0,9.082493742E0
1.022193171E1,-1.909376404E0,8.821304246E0,1.592451761E0,9.164989332E0
1.023198671E1,-2.296436352E0,9.070521932E0,1.291990246E0,9.445487115E0
1.024204171E1,-2.861280893E0,9.401655017E0,1.058630208E0,9.884267465E0
1.025209671E1,-3.154251832E0,9.697449870E0,8.974388444E-1,1.023695438E1
1.026215171E1,-3.354648484E0,9.863923023E0,8.033255696E-1,1.044968783E1
1.027220671E1,-3.415581734E0,1.015324325E1,6.582455512E-1,1.073255954E1
1.028226171E1,-3.408992214E0,1.031667995E1,4.182840800E-1,1.087336538E1
1.029231671E1,-3.391528920E0,1.039744403E1,2.129882654E-1,1.093867793E1
1.030237171E1,-3.322046164E0,1.043638415E1,1.006819638E-1,1.095281889E1
1.031242671E1,-3.192494377E0,1.034909223E1,7.771417379E-2,1.083059416E1
1.032248171E1,-3.103900874E0,1.018915217E1,7.713529944E-2,1.065171219E1
1.033253671E1,-3.095778506E0,1.008785969E1,1.282492832E-1,1.055297141E1
1.034259171E1,-3.081394941E0,1.007185001E1,2.616172556E-1,1.053591956E1
1.035264671E1,-3.057609344E0,1.003216145E1,4.426751554E-1,1.049710434E1
1.036270171E1,-3.148737616E0,9.847556666E0,5.416965465E-1,1.035289119E1
1.037275671E1,-3.263300650E0,9.480228732E0,7.015816784E-1,1.005067584E1
1.038281171E1,-3.428408771E0,9.012277232E0,8.089774883E-1,9.676237502E0
1.039286671E1,-3.420046668E0,8.381299514E0,8.074022484E-1,9.088168085E0
1.040292271E1,-3.121328500E0,7.770467207E0,6.128630447E-1,8.396335708E0
1.041297771E1,-2.950488061E0,7.335999788E0,9.625218630E-2,7.907688485E0
1.042303271E1,-2.799603585E0,6.319192960E0,-1.629513752E0,7.101077028E0
1.043308771E1,-1.083380302E0,3.612782298E0,-2.224190787E0,4.378690839E0
1.044314271E1,1.095399371E1,-1.778453328E1,2.921605740E0,2.109064679E1
1.045319771E1,2.752751249E1,-7.306965088E1,2.192095420E1,8.110157863E1
1.046325271E1,3.391811691E1,-8.939785558E1,1.820137076E1,9.733296016E1
1.047330771E1,2.205185465E1,-4.921431612E1,-3.813675671E0,5.406364145E1
1.048336271E1,3.338996950E-1,-1.854221899E1,-1.432606894E1,2.343419778E1
1.049341771E1,-1.084051563E1,-9.243910003E0,-1.038870478E1,1.763212517E1
1.050347271E1,4.186689438E0,-5.422848714E0,-1.059554770E1,1.261749926E1
1.051352771E1,9.794531776E0,-1.683228497E1,-1.184932171E1,2.279616404E1
1.052358271E1,7.512453554E0,-1.916624905E1,-7.601853388E0,2.194470861E1
1.053363771E1,7.874255869E0,-1.113245073E1,-6.104687853E0,1.493996582E1
1.054369271E1,5.463224323E0,-7.002688031E0,-4.451584094E0,9.934840744E0
1.055374771E1,2.450605210E0,-5.249748327E0,-1.327579908E0,5.943718684E0
1.056380271E1,-1.497989407E-1,-4.997553238E0,8.217729503E-1,5.066881572E0
1.057385771E1,-1.972558785E0,-5.527832547E0,2.052178566E0,6.217664972E0
1.058391271E1,-2.682646993E0,-5.157520194E0,1.143218368E0,5.924825540E0
1.059396771E1,-3.139078015E0,-4.398538154E0,-2.073767656E-1,5.407767913E0
1.060402371E1,-3.089196003E0,-2.882911205E0,-3.471942168E-1,4.239676024E0
1.061407871E1,-3.772121848E0,-2.125929497E0,5.545850158E-1,4.365322898E0
1.062413371E1,-3.515492815E0,-1.487385482E0,-6.012515525E-2,3.817672110E0
1.063418871E1,-2.516506254E0,-5.890479201E-1,-3.522970819E-1,2.608427575E0
1.064424371E1,-1.398607499E0,6.479691428E-1,3.809367442E-1,1.587790839E0
1.065429871E1,-6.578494754E-1,2.071147519E0,8.975557888E-1,2.351175104E0
1.066435371E1,-3.121112153E-1,3.122961627E0,1.456362494E0,3.459955845E0
1.067440871E1,-3.517620617E-1,3.946634923E0,1.651632600E0,4.292732697E0
1.068446371E1,-8.351048943E-1,4.380122933E0,1.447861812E0,4.688195913E0
1.069451871E1,-1.157805125E0,4.762070661E0,1.093140475E0,5.021233492E0
1.070457371E1,-1.677542489E0,4.967842950E0,7.936390722E-1,5.303157112E0
1.071462871E1,-2.197085727E0,5.111447058E0,5.448845216E-1,5.590257227E0
1.072468371E1,-2.523195468E0,5.257512844E0,2.525552773E-1,5.837100380E0
1.073473871E1,-2.625946835E0,5.334255211E0,-4.328814346E-2,5.945733706E0
1.074479371E1,-2.467203701E0,5.273504979E0,-2.001806339E-1,5.825549000E0
1.075484871E1,-2.301693292E0,4.948882184E0,-1.838060911E-1,5.461044915E0
1.076490371E1,-2.103786969E0,4.579328215E0,-4.679643631E-2,5.039678205E0
1.077495871E1,-1.793295432E0,4.395097652E0,5.743138868E-2,4.747219212E0
1.078501371E1,-1.481196496E0,4.227588957E0,1.568691746E-1,4.482305142E0
1.079506971E1,-1.223142790E0,3.976085009E0,2.835115334E-1,4.169617377E0
1.080512471E1,-9.848997420E-1,3.657228738E0,4.533815534E-1,3.814564769E0
1.081517971E1,-6.991024590E-1,3.306995723E0,6.368810678E-1,3.439561376E0
1.082523471E1,-3.765019235E-1,2.867628338E0,7.910160112E-1,2.998458323E0
1.083528971E1,-1.061328113E-1,2.306070517E0,8.710527722E-1,2.467378839E0
1.084534471E1,2.042318407E-1,1.765835153E0,8.810783350E-1,1.983981720E0
1.085539971E1,4.237500572E-1,1.177577777E0,8.721508062E-1,1.525418159E0
1.086545471E1,5.614002380E-1,6.812146568E-1,9.124249658E-1,1.269544388E0
1.087550971E1,6.044398382E-1,2.629627365E-1,9.933482377E-1,1.192156718E0
1.088556471E1,5.314975771E-1,-1.179091036E-1,1.062167773E0,1.193562989E0
1.089561971E1,4.713010767E-1,-3.874294925E-1,1.084695926E0,1.244504547E0
1.090567471E1,4.785630262E-1,-6.695085311E-1,1.037104560E0,1.323952459E0
1.091572971E1,4.272519547E-1,-9.926373625E-1,8.770649524E-1,1.391803182E0
1.092578471E1,5.177829328E-1,-1.270527456E0,6.685530961E-1,1.526205236E0
1.093583971E1,5.961657357E-1,-1.419411600E0,5.094398332E-1,1.621626288E0
1.094589471E1,5.702535072E-1,-1.463599593E0,4.302451444E-1,1.628626328E0
1.095594971E1,4.824563947E-1,-1.347636443E0,3.834649341E-1,1.481868250E0
1.096600471E1,4.022030675E-1,-1.169355422E0,2.574504201E-1,1.263107331E0
1.097605971E1,2.733269262E-1,-9.308907652E-1,2.952712342E-2,9.706374588E-1
1.098611571E1,1.182187137E-1,-6.189692920E-1,-1.278119481E-1,6.429887579E-1
1.099617071E1,-2.100963056E-2,-3.289813095E-1,-2.426151569E-1,4.093070009E-1
1.100622571E1,-9.410070330E-2,-8.240890324E-2,-2.509391069E-1,2.803865280E-1
1.101628071E1,-1.470177126E-1,1.136751348E-1,-2.766341114E-1,3.332606723E-1
1.102633571E1,-8.611866921E-2,2.410011792E-1,-3.267973745E-1,4.150837476E-1
1.103639071E1,-4.448883265E-2,4.145699286E-1,-3.212015891E-1,5.263249403E-1
1.104644571E1,-7.228269517E-2,6.702213067E-1,-2.995690839E-1,7.376740635E-1
1.105650042E1,-1.361521241E-1,8.653388000E-1,-2.463667305E-1,9.099698926E-1
1.106655542E1,-2.127804700E-1,9.496889788E-1,-1.957801290E-1,9.927308516E-1
1.107661042E1,-2.793366945E-1,9.495480609E-1,-7.552029848E-2,9.926599742E-1
1.108666542E1,-3.144211578E-1,8.086114526E-1,3.483537197E-2,8.682894960E-1
1.109672042E1,-3.201873896E-1,6.083308679E-1,7.703472733E-2,6.917519487E-1
1.110677542E1,-3.368890840E-1,3.812460619E-1,1.100890374E-1,5.205404987E-1
1.111683042E1,-3.084110972E-1,1.477316576E-1,1.010283382E-1,3.565792656E-1
1.112688542E1,-2.170498145E-1,-7.208505929E-2,1.093661754E-1,2.535110216E-1
1.113694042E1,-1.047461441E-1,-2.639193410E-1,1.373744845E-1,3.154313273E-1
1.114699542E1,-4.100506157E-2,-3.529870534E-1,2.085058630E-1,4.120145262E-1
1.115705042E1,-8.036705554E-3,-4.647425473E-1,2.453515077E-1,5.255926048E-1
1.116710542E1,1.535127997E-2,-5.394249398E-1,1.871822369E-1,5.711848363E-1
1.117716042E1,-6.460003853E-3,-5.678476703E-1,4.270323917E-2,5.694877303E-1
1.118721642E1,-9.773328602E-2,-5.912815565E-1,-1.094423354E-1,6.092153142E-1
1.119727142E1,-2.096168339E-1,-5.611648875E-1,-2.498689203E-1,6.490606485E-1
1.120732642E1,-4.010049731E-1,-4.143565053E-1,-3.095081811E-1,6.544399255E-1
1.121738142E1,-6.435764220E-1,-2.378278953E-1,-3.010694794E-1,7.492633384E-1
1.122743642E1,-7.618749502E-1,-2.948283076E-2,-2.863299644E-1,8.144369378E-1
1.123749142E1,-8.252421033E-1,1.660118079E-1,-2.977871449E-1,8.928950852E-1
1.124754642E1,-8.485950056E-1,3.315926760E-1,-3.728207358E-1,9.844097152E-1
1.125760142E1,-8.572775361E-1,4.314748138E-1,-4.078641956E-1,1.042807984E0
1.126765642E1,-8.737827641E-1,4.647489792E-1,-4.653774087E-1,1.093647139E0
1.127771142E1,-8.791087005E-1,4.087355769E-1,-4.444573867E-1,1.066507969E0
1.128776642E1,-7.977309537E-1,2.755114460E-1,-3.185317504E-1,9.020774398E-1
1.129782142E1,-5.891859144E-1,1.166560453E-1,-1.210887464E-1,6.127080538E-1
1.130787642E1,-1.210037425E-1,1.673905814E-1,4.322495699E-2,2.110211111E-1
1.131793142E1,-1.127232081E-1,1.306688976E-1,3.035359812E-1,3.491632488E-1
1.132798642E1,-3.446170565E-1,4.827051938E-2,6.600335567E-1,7.461469390E-1
1.133804142E1,-4.929343128E-1,-3.096773118E-1,9.097613398E-1,1.080069428E0
1.134809642E1,-4.108923224E-1,-4.476569831E-1,9.842536247E-1,1.156712788E0
1.135815142E1,-3.976018935E-1,-4.026872170E-1,9.175357246E-1,1.078014873E0
1.136820642E1,-3.091294277E-1,-3.769384181E-1,7.325310639E-1,8.799121171E-1
1.137826142E1,-9.655361027E-2,-3.582787836E-1,4.838092212E-1,6.097193198E-1
1.138831742E1,1.145460775E-1,-3.696422625E-1,1.794769954E-1,4.265773060E-1
1.139837242E1,3.466732299E-1,-3.522777861E-1,-9.434482455E-2,5.031728459E-1
1.140842742E1,5.104546174E-1,-3.050211740E-1,-4.058574311E-1,7.199458920E-1
1.141848242E1,6.109893045E-1,-2.283478045E-1,-5.921406586E-1,8.809547149E-1
1.142853742E1,6.146204254E-1,-2.197635072E-1,-6.122457249E-1,8.949296588E-1
1.143859242E1,5.738521761E-1,-2.278396815E-1,-5.913568394E-1,8.549386831E-1
1.144864742E1,4.856785029E-1,-2.756687361E-1,-5.526542652E-1,7.856867041E-1
1.145870242E1,3.718463704E-1,-3.051229155E-1,-4.924606884E-1,6.883946879E-1
1.146875742E1,2.996510911E-1,-3.206209606E-1,-4.012454398E-1,5.946313814E-1
1.147881242E1,2.231101611E-1,-3.955419195E-1,-3.496461006E-1,5.731351932E-1
1.148886742E1,1.924739671E-1,-4.555922395E-1,-2.495324130E-1,5.539647478E-1
1.149892242E1,1.291600236E-1,-4.836284691E-1,-1.841052859E-1,5.333606323E-1
1.150897742E1,7.415468127E-2,-4.563044304E-1,-1.724963701E-1,4.934244092E-1
1.151903242E1,8.336463064E-2,-3.899192369E-1,-2.231823742E-1,4.569431530E-1
1.152908742E1,1.075951999E-1,-2.941313195E-1,-2.900442620E-1,4.268672324E-1
1.153914242E1,1.300721893E-1,-1.784236926E-1,-2.861266275E-1,3.614169828E-1
1.154919742E1,1.446162611E-1,-3.655211449E-2,-2.491815801E-1,2.904158741E-1
1.155925242E1,1.131100014E-1,1.445425862E-1,-1.919712527E-1,2.655925329E-1
1.156930742E1,7.718412369E-2,2.875163645E-1,-1.286213489E-1,3.242938485E-1
1.157936342E1,4.492971271E-2,4.087104338E-1,-7.530994490E-2,4.180125424E-1
1.158941842E1,-1.354682922E-2,5.237678504E-1,1.453033090E-2,5.241444536E-1
1.159947342E1,-4.784279555E-2,6.432872772E-1,1.275127168E-1,6.575461558E-1
1.160952842E1,-9.467402279E-2,7.114126021E-1,2.053224926E-1,7.464773184E-1
1.161958342E1,-1.940825361E-1,7.185520524E-1,2.710219538E-1,7.921098297E-1
1.162963842E1,-2.961298978E-1,6.502518958E-1,3.164863944E-1,7.814627836E-1
1.163969342E1,-3.814226478E-1,5.419205314E-1,3.443705964E-1,7.468280969E-1
1.164974842E1,-4.596809050E-1,4.894195515E-1,3.428302936E-1,7.539036026E-1
1.165980342E1,-5.210810548E-1,3.767887294E-1,3.263439229E-1,7.211071823E-1
1.166985842E1,-4.840214020E-1,2.363011873E-1,3.085061145E-1,6.207181255E-1
1.167991342E1,-4.217079172E-1,1.397905540E-1,3.076899894E-1,5.404184452E-1
1.168996842E1,-3.463051477E-1,8.603359222E-2,3.516844399E-1,5.010099596E-1
1.170002342E1,-2.505616692E-1,3.185446143E-2,3.493335669E-1,4.310798043E-1
1.171007842E1,-1.899058700E-1,5.492289662E-3,3.223770256E-1,3.741942695E-1
1.172013342E1,-1.093841556E-1,2.566284478E-2,2.513963592E-1,2.753608623E-1
1.173018842E1,-6.510436088E-2,6.571334839E-2,2.060946174E-1,2.259022206E-1
1.174024342E1,-3.030699581E-2,9.488101423E-2,2.188003246E-1,2.404048729E-1
1.175029842E1,1.039196402E-2,1.737201923E-1,2.930788207E-1,3.408546513E-1
1.176035342E1,2.628498852E-2,1.960360909E-1,3.295430808E-1,3.843431951E-1
1.177040842E1,-7.631113440E-2,1.639190894E-1,3.788223910E-1,4.197609570E-1
1.178046442E1,-1.565001422E-1,1.528076255E-1,3.838381326E-1,4.417852159E-1
1.179051942E1,-1.359343153E-1,1.778723001E-1,3.208602579E-1,3.912390552E-1
1.180057442E1,-1.421273938E-1,1.647569954E-1,2.374634676E-1,3.220775715E-1
1.181062942E1,-1.581943730E-1,1.132494575E-1,1.591695423E-1,2.513679424E-1
1.182068442E1,-1.287904796E-1,3.449447930E-2,1.302746491E-1,1.864090688E-1
1.183073942E1,-1.273950416E-1,1.356261671E-2,1.197850366E-1,1.753906958E-1
1.184079442E1,-1.130290174E-1,5.309739590E-2,9.190668181E-2,1.550539596E-1
1.185084942E1,-6.551483542E-2,9.939857304E-2,-9.490718052E-2,1.522486220E-1
1.186090442E1,2.825462312E-2,9.271111250E-2,-2.991166556E-1,3.144271740E-1
1.187095942E1,6.806539088E-2,-2.682468653E-2,-4.286498778E-1,4.348484551E-1
1.188101442E1,1.175787359E-2,-2.749489439E-1,-5.069303544E-1,5.768132744E-1
1.189106942E1,-1.136108154E-1,-5.037130702E-1,-5.869328360E-1,7.817444777E-1
1.190112442E1,-2.045487598E-1,-6.531357425E-1,-6.526989555E-1,9.457496603E-1
1.191117942E1,-1.484689915E-1,-7.325444394E-1,-7.526136915E-1,1.060703430E0
1.192123442E1,1.486976177E-2,-6.422938353E-1,-7.704699187E-1,1.003188106E0
1.193128942E1,1.492343920E-1,-3.516585660E-1,-6.231482971E-1,7.309230130E-1
1.194134442E1,1.470247293E-1,4.919788778E-2,-3.612493153E-1,3.931129239E-1
1.195139942E1,1.360930672E-1,4.083829898E-1,-7.538025767E-2,4.370127830E-1
1.196145442E1,1.383138397E-1,6.660545808E-1,7.045310140E-2,6.839028165E-1
1.197151042E1,1.271479967E-1,8.628829694E-1,1.395614894E-1,8.832955571E-1
1.198156542E1,1.169478214E-1,9.257311821E-1,2.177200516E-1,9.581529290E-1
1.199162042E1,1.348294839E-1,7.791479176E-1,2.227942653E-1,8.215155214E-1
1.200167542E1,1.424332032E-1,4.598712319E-1,1.392223509E-1,5.011503071E-1
1.201173042E1,9.604490250E-2,7.995950460E-2,6.450429037E-2,1.406376520E-1
1.202178542E1,-2.969888538E-2,-3.007100219E-1,-7.499492615E-3,3.022660805E-1
1.203184042E1,-2.438560823E-1,-5.786983484E-1,-6.978081778E-2,6.318440708E-1
1.204189542E1,-5.208503821E-1,-7.374110770E-1,-1.409643826E-1,9.137456836E-1
1.205195117E1,-7.539964119E-1,-7.863323915E-1,-2.623658819E-1,1.120564623E0
1.206200617E1,-9.045850191E-1,-6.916513520E-1,-3.624664132E-1,1.195005251E0
1.207206117E1,-9.510747689E-1,-4.603501189E-1,-3.251192236E-1,1.105517054E0
1.208211617E1,-9.162999156E-1,-2.383617461E-1,-2.736320047E-1,9.855436730E-1
1.209217117E1,-9.581522387E-1,-7.543960690E-2,-2.800089781E-1,1.001075359E0
1.210222617E1,-9.394914347E-1,5.433408201E-2,-3.198602378E-1,9.939350683E-1
1.211228117E1,-8.535224542E-1,1.879447138E-1,-3.462181704E-1,9.400483056E-1
1.212233617E1,-7.433521405E-1,2.828543794E-1,-3.692249174E-1,8.768728781E-1
1.213239117E1,-5.823499346E-1,3.726646882E-1,-3.193154235E-1,7.615594237E-1
1.214244617E1,-3.217731544E-1,4.312689918E-1,-2.420187409E-1,5.900033705E-1
1.215250117E1,-5.133709162E-2,4.883261222E-1,-1.334871094E-1,5.088385863E-1
1.216255717E1,1.785380057E-1,5.418608898E-1,-2.464601398E-2,5.710485700E-1
1.217261217E1,2.987152442E-1,4.859737873E-1,6.906965017E-2,5.746058960E-1
1.218266717E1,4.006561866E-1,3.536138749E-1,1.185489352E-1,5.473773858E-1
1.219272217E1,4.698474589E-1,1.750820088E-1,1.553137422E-1,5.249120907E-1
1.220277717E1,4.543526298E-1,4.173684061E-2,1.423892029E-1,4.779675315E-1
1.221283217E1,4.419904464E-1,-9.874836266E-2,6.345866203E-2,4.573114865E-1
1.222288717E1,3.478862348E-1,-2.507034642E-1,-4.888871625E-2,4.315867999E-1
1.223294217E1,2.408810189E-1,-3.297870559E-1,-1.478306217E-1,4.343236814E-1
1.224299717E1,8.404787779E-2,-3.963611144E-1,-2.263397245E-1,4.641075841E-1
1.225305217E1,-9.451790214E-2,-3.965914947E-1,-2.850339290E-1,4.974563179E-1
1.226310717E1,-2.232408464E-1,-3.378386718E-1,-2.247294744E-1,4.631142195E-1
1.227316217E1,-2.577446812E-1,-2.282115644E-1,-1.300921429E-1,3.680173970E-1
1.228321717E1,-2.995829710E-1,-1.043996966E-1,-1.089077537E-1,3.354253300E-1
1.229327217E1,-3.732833236E-1,6.187172771E-2,-1.119708176E-1,3.945960142E-1
1.230332717E1,-4.051117650E-1,2.301908469E-1,-1.621083529E-1,4.933381054E-1
1.231338217E1,-3.810022330E-1,3.626858300E-1,-8.303981781E-2,5.325404437E-1
1.232343717E1,-3.114884868E-1,4.164199877E-1,6.748746671E-2,5.243903524E-1
1.233349217E1,-1.574491453E-1,4.393860966E-1,2.210390043E-1,5.164383958E-1
1.234354717E1,-4.500455707E-2,4.483767754E-1,3.093785191E-1,5.466097428E-1
1.235360217E1,3.535402000E-2,4.653184980E-1,3.415662718E-1,5.783067779E-1
1.236365817E1,8.058194071E-2,4.599606943E-1,3.594306850E-1,5.892772750E-1
1.237371317E1,1.077282241E-1,3.790399075E-1,3.216003692E-1,5.086289602E-1
1.238376817E1,1.660536155E-1,2.502491355E-1,2.545703010E-1,3.937060720E-1
1.239382317E1,1.850634983E-1,4.944814861E-2,1.578281911E-1,2.482002331E-1
1.240387817E1,1.966807464E-1,-1.149662000E-1,1.753587283E-2,2.284908094E-1
1.241393317E1,2.560636067E-1,-2.405679005E-1,-1.055152722E-1,3.668445967E-1
1.242398817E1,2.637255058E-1,-2.538095051E-1,-2.335424709E-1,4.341802540E-1
1.243404317E1,1.942921588E-1,-2.691613698E-1,-2.734485483E-1,4.300830089E-1
1.244409817E1,1.003040144E-1,-2.991657722E-1,-2.155914458E-1,3.821527523E-1
1.245415317E1,4.358806908E-2,-3.364569747E-1,-1.933707838E-1,3.905066909E-1
1.246420817E1,6.478247166E-2,-2.612524259E-1,-1.702731125E-1,3.185004419E-1
1.247426317E1,9.475500673E-2,-1.140563732E-1,-1.879948537E-1,2.394356544E-1
1.248431817E1,7.444499552E-2,6.613083959E-2,-1.997968738E-1,2.232356066E-1
1.249437317E1,5.456124634E-2,1.798153299E-1,-1.670735161E-1,2.514439147E-1
1.250442817E1,-4.983611137E-2,2.009752339E-1,-8.717833087E-2,2.246658497E-1
1.251448317E1,-1.804468292E-1,1.749323201E-1,1.663430527E-2,2.518711474E-1
1.252453817E1,-3.427968183E-1,1.020309895E-1,1.500148492E-1,3.878458926E-1
1.253459317E1,-4.396772879E-1,2.436359346E-2,2.805119117E-1,5.221078766E-1
1.254464817E1,-4.714206523E-1,-6.617586315E-2,3.310810447E-1,5.798545804E-1
1.255470417E1,-4.934310338E-1,-9.145396113E-2,3.421229998E-1,6.073599914E-1
1.256475917E1,-4.332620153E-1,-8.605931997E-2,2.174181160E-1,4.923340508E-1
1.257481417E1,-3.231317550E-1,-1.665930212E-2,6.989995480E-2,3.310251760E-1
1.258486917E1,-1.327037287E-1,1.047060907E-1,-1.479426690E-1,2.246345440E-1
1.259492417E1,-4.690928757E-2,2.428266799E-1,-3.388402268E-1,4.194972908E-1
1.260497917E1,-9.754032791E-3,2.803698975E-1,-4.847679453E-1,5.600914044E-1
1.261503417E1,-9.276607633E-3,2.178964913E-1,-5.481190916E-1,5.899148031E-1
1.262508917E1,-8.584531188E-2,1.376633370E-1,-5.037762201E-1,5.292552237E-1
1.263514417E1,-2.576566806E-1,3.064291835E-2,-4.187612128E-1,4.926326287E-1
1.264519917E1,-4.015958342E-1,-9.953130484E-3,-3.885463107E-1,5.588796958E-1
1.265525417E1,-5.282883328E-1,6.688162208E-2,-4.470196366E-1,6.952612958E-1
1.266530917E1,-6.092021030E-1,1.807736886E-1,-5.019261611E-1,8.097754009E-1
1.267536417E1,-6.118538153E-1,3.921949732E-1,-5.591037075E-1,9.169399893E-1
1.268541917E1,-6.157205790E-1,5.717647201E-1,-6.171174788E-1,1.042526119E0
1.269547417E1,-6.701897317E-1,6.697921211E-1,-6.973915637E-1,1.176490865E0
1.270552917E1,-7.923018140E-1,7.091807199E-1,-7.048046637E-1,1.275707283E0
1.271558417E1,-9.224494323E-1,6.470189703E-1,-6.674316001E-1,1.309584455E0
1.272563917E1,-9.762400156E-1,5.374006337E-1,-5.368866269E-1,1.236968577E0
1.273569417E1,-9.922093463E-1,3.628173923E-1,-3.375737564E-1,1.109086060E0
1.274575017E1,-9.912635592E-1,2.347464126E-1,-1.430894800E-1,1.028680670E0
1.275580517E1,-1.006489124E0,1.601031965E-1,-6.758675974E-2,1.021382083E0
1.276586017E1,-1.079415598E0,1.835750896E-1,-3.097383421E-2,1.095352557E0
1.277591517E1,-1.147152960E0,4.103172487E-1,1.336533165E-1,1.225635903E0
1.278597017E1,-1.193211185E0,7.554199165E-1,3.594552433E-1,1.457264648E0
1.279602517E1,-1.233487976E0,1.259797815E0,4.487959842E-1,1.819340803E0
1.280608017E1,-1.383062968E0,1.835963734E0,3.610024166E-1,2.326789366E0
1.281613517E1,-1.526549840E0,2.419899434E0,2.677346126E-1,2.873664821E0
1.282619017E1,-1.657390938E0,3.042614452E0,2.909901953E-1,3.476941576E0
1.283624517E1,-1.763275535E0,3.767789061E0,3.404623175E-1,4.173881839E0
1.284630017E1,-1.908117206E0,4.417634575E0,4.007821941E-1,4.828771363E0
1.285635517E1,-2.147102558E0,4.884314305E0,3.105093706E-1,5.344435582E0
1.286641017E1,-2.390758665E0,5.327439696E0,9.516517977E-2,5.840068246E0
1.287646517E1,-2.662401009E0,5.784000819E0,-9.308593730E-2,6.368022425E0
1.288652017E1,-2.868868240E0,6.261455213E0,-3.295987755E-1,6.895278219E0
1.289657517E1,-3.039375679E0,6.700077079E0,-5.897437388E-1,7.380828887E0
1.290663017E1,-3.297324429E0,7.012980884E0,-7.403914028E-1,7.784756175E0
1.291668517E1,-3.598840781E0,7.215874005E0,-7.400487560E-1,8.097417168E0
1.292674017E1,-3.791370589E0,7.435654469E0,-7.544287404E-1,8.380489905E0
1.293679617E1,-3.817928643E0,7.602249244E0,-8.157643515E-1,8.546124512E0
1.294685117E1,-3.718337696E0,6.983888063E0,-1.053382916E0,7.981875924E0
1.295690617E1,-3.309484298E0,5.749209886E0,-1.475319752E0,6.795783178E0
1.296696117E1,-2.637519937E0,4.769023585E0,-1.557252692E0,5.667903785E0
1.297701617E1,-2.011417919E0,3.680544510E0,-1.488170178E0,4.450489907E0
1.298707117E1,-1.375202556E0,2.329865177E0,-1.318641855E0,3.009696023E0
1.299712617E1,-5.521578366E-1,6.622696781E-1,-1.105530067E0,1.402025724E0
1.300718117E1,2.811654112E-1,-1.374263493E0,-7.241162628E-1,1.578606506E0
1.301723617E1,1.070197170E0,-3.524004022E0,-2.968976372E-1,3.694871383E0
1.302729117E1,1.549384971E0,-5.361533056E0,3.806883106E-1,5.593885420E0
1.303734617E1,1.932413557E0,-6.665058104E0,1.093103052E0,7.025104695E0
1.304740117E1,2.217097822E0,-7.352077877E0,1.405671228E0,7.806694785E0
1.305745542E1,2.482932126E0,-6.969385799E0,9.453620392E-1,7.458619158E0
1.306751042E1,3.073091310E0,-6.015147101E0,1.063199588E-1,6.755530237E0
1.307756542E1,3.387516561E0,-5.836873097E0,3.990315378E-2,6.748773834E0
1.308762042E1,2.905483212E0,-6.656698925E0,8.830061620E-1,7.316636738E0
1.309767542E1,3.502637712E0,-8.051388497E0,1.068421955E0,8.845046814E0
1.310773042E1,4.382152794E0,-9.802509717E0,6.808860433E-1,1.075899929E1
1.311778542E1,5.314762348E0,-1.190855400E1,3.751795757E-1,1.304611501E1
1.312784042E1,6.757123100E0,-1.383803694E1,2.696244693E-1,1.540203481E1
1.313789642E1,8.169660712E0,-1.503212959E1,4.639180899E-1,1.711500792E1
1.314795142E1,8.652785736E0,-1.505782927E1,9.972964239E-1,1.739550297E1
1.315800642E1,8.136802869E0,-1.351377608E1,1.370780307E0,1.583378488E1
1.316806142E1,7.660181118E0,-1.186501330E1,1.279446799E0,1.418075807E1
1.317811642E1,7.543697566E0,-1.152250445E1,5.718191357E-1,1.378413795E1
1.318817142E1,7.495142287E0,-1.232300231E1,3.694598293E-1,1.442809913E1
1.319822642E1,7.622687602E0,-1.311028078E1,2.531247962E-1,1.516736301E1
1.320828142E1,7.453331187E0,-1.363301017E1,-2.735093594E-2,1.553743415E1
1.321833642E1,6.930786574E0,-1.341020552E1,1.369686878E-1,1.509596552E1
1.322839142E1,5.711304141E0,-1.287760838E1,1.315208369E0,1.414855348E1
1.323844642E1,4.004134395E0,-1.305242609E1,3.042655967E0,1.398773300E1
1.324850142E1,3.221748289E0,-1.418311154E1,2.829459468E0,1.481708999E1
1.325855642E1,3.214559138E0,-1.560321311E1,1.689365852E0,1.602022493E1
1.326861142E1,2.407324997E0,-1.592974736E1,1.022825367E0,1.614305536E1
1.327866642E1,1.854504086E0,-1.441497235E1,9.259498680E-1,1.456324127E1
1.328872142E1,2.374370089E0,-1.253211277E1,9.507128263E-1,1.279043935E1
1.329877642E1,3.126662622E0,-1.147768555E1,5.378725040E-1,1.190808933E1
1.330883142E1,4.363957720E0,-9.080652233E0,-7.166441059E-1,1.010029459E1
1.331888642E1,4.827598945E0,-6.105664923E0,-2.492501972E0,8.172968971E0
1.332894242E1,3.841185358E0,-4.284743736E0,-3.837441094E0,6.916624031E0
1.333899742E1,2.818033424E0,-2.050501000E0,-4.154635001E0,5.422809118E0
1.334905242E1,1.580136940E0,7.315878350E-1,-4.868475952E0,5.170503999E0
1.335910742E1,3.713040411E-2,3.368528897E0,-4.605180509E0,5.705791191E0
1.336916242E1,-1.282418354E0,5.554742603E0,-1.374417275E0,5.864195177E0
1.337921742E1,-2.444646897E0,7.256863571E0,2.353629431E0,8.011113458E0
1.338927242E1,-3.398118147E0,8.865881664E0,4.739802125E0,1.061210577E1
1.339932742E1,-4.218100388E0,1.013021809E1,5.598592043E0,1.231900654E1
1.340938242E1,-4.912715986E0,1.091396367E1,5.630333068E0,1.322686780E1
1.341943742E1,-5.260339973E0,1.180423032E1,5.490508600E0,1.404125047E1
1.342949242E1,-5.523090456E0,1.254227991E1,4.775067852E0,1.451256651E1
1.343954742E1,-5.655984219E0,1.268398017E1,3.567479825E0,1.433877340E1
1.344960242E1,-5.543355736E0,1.328414891E1,2.202221775E0,1.456184005E1
1.345965742E1,-5.852026157E0,1.415246043E1,2.977519885E-1,1.531753905E1
1.346971242E1,-6.374590065E0,1.460431689E1,-1.387029719E0,1.599516557E1
1.347976742E1,-6.353630136E0,1.522373700E1,-1.783659221E0,1.659253520E1
1.348982242E1,-6.074632580E0,1.673350328E1,-3.427683131E-1,1.780530211E1
1.349987742E1,-5.454799654E0,1.842604300E1,1.661022059E0,1.928815425E1
1.350993242E1,-4.821983863E0,1.687822538E1,3.078545008E0,1.782143259E1
1.351998842E1,-4.121823058E0,1.283030908E1,3.292626776E0,1.387255014E1
1.353004342E1,-3.402465844E0,1.044078827E1,2.443728007E0,1.124982845E1
1.354009842E1,-3.022585692E0,9.553304309E0,1.831937488E0,1.018614954E1
1.355015342E1,-2.784104370E0,9.164608310E0,1.496038191E0,9.694297958E0
1.356020842E1,-2.727174709E0,8.913454025E0,1.389801300E0,9.424366940E0
1.357026342E1,-2.729279122E0,8.765999526E0,1.361807170E0,9.281499393E0
1.358031842E1,-2.740086239E0,8.703974601E0,1.361270396E0,9.226066526E0
1.359037342E1,-2.798877946E0,8.678902910E0,1.391120285E0,9.224548180E0
1.360042842E1,-2.851962770E0,8.705722334E0,1.436681936E0,9.272936319E0
1.361048342E1,-2.943842701E0,8.756730520E0,1.625492330E0,9.380232649E0
1.362053842E1,-3.023319810E0,8.791023855E0,1.819966922E0,9.472847654E0
1.363059342E1,-3.019193138E0,8.715052736E0,1.758431848E0,9.389342573E0
1.364064842E1,-2.912986067E0,8.638017424E0,1.683083603E0,9.270037932E0
1.365070342E1,-2.686702329E0,8.620493318E0,1.642580964E0,9.177654748E0
1.366075842E1,-2.639214752E0,8.560393882E0,1.521498138E0,9.086294872E0
1.367081342E1,-2.618296046E0,8.600554898E0,1.425927737E0,9.102652835E0
1.368086842E1,-2.461184285E0,8.754010980E0,1.368097458E0,9.195750484E0
1.369092342E1,-2.333568803E0,8.927218956E0,1.230773552E0,9.308898172E0
1.370097842E1,-2.235739038E0,9.083273540E0,1.137261371E0,9.423255843E0
1.371103442E1,-2.299935326E0,9.045537949E0,1.164460133E0,9.405712450E0
1.372108942E1,-2.308509683E0,9.146576666E0,1.104032814E0,9.497787644E0
1.373114442E1,-2.322916930E0,9.343468205E0,9.513001791E-1,9.674777165E0
1.374119942E1,-2.393140821E0,9.501288064E0,8.965828121E-1,9.838976501E0
1.375125442E1,-2.482822783E0,9.709186985E0,8.183342759E-1,1.005496852E1
1.376130942E1,-2.576222698E0,9.837619908E0,7.732617449E-1,1.019870691E1
1.377136442E1,-2.719287400E0,9.781495993E0,8.467412189E-1,1.018769643E1
1.378141942E1,-2.853988538E0,9.615138615E0,1.003071134E0,1.007979627E1
1.379147442E1,-2.859827860E0,9.383775401E0,1.150212881E0,9.877086910E0
1.380152942E1,-2.714035139E0,8.950720670E0,1.303685846E0,9.443568395E0
1.381158442E1,-2.561773643E0,8.561545199E0,1.185937980E0,9.014942555E0
1.382163942E1,-2.498418185E0,8.000485561E0,7.069519074E-1,8.411280737E0
1.383169442E1,-2.330469779E0,7.150410917E0,-5.825697899E-1,7.543132853E0
1.384174942E1,-1.453621320E0,6.019012696E0,-2.072227353E0,6.529598378E0
1.385180442E1,4.129504838E0,-5.327981733E0,1.163784488E-1,6.741939150E0
1.386185942E1,1.398593407E1,-5.796407558E1,9.326187344E0,6.035244966E1
1.387191442E1,2.464688170E1,-1.010004996E2,2.272635437E1,1.064192505E2
1.388196942E1,2.441504662E1,-6.165296232E1,2.244156690E0,6.634921630E1
1.389202442E1,7.417740939E0,-2.371557228E1,-1.002486413E1,2.679457314E1
1.390208042E1,6.580541280E0,-1.533000663E1,-7.391818478E0,1.824696159E1
1.391213542E1,5.236854631E0,-7.068570948E0,-1.073542011E1,1.387943034E1
1.392219042E1,-7.273217064E0,-5.896901198E0,-1.600748960E1,1.854488753E1
1.393224542E1,-9.323823314E0,-1.452922460E1,-1.062286121E1,2.027010678E1
1.394230042E1,2.545806944E0,-1.623776698E1,-4.963212540E0,1.716914932E1
1.395235542E1,2.439938134E0,-1.225632183E1,-5.233015934E0,1.354825371E1
1.396241042E1,2.947058085E-1,-7.328679074E0,-4.979581820E0,8.865248084E0
1.397246542E1,2.740303463E-1,-3.479410232E0,-5.858743438E0,6.819550049E0
1.398252042E1,3.067209595E-1,-1.526971132E0,-6.421859542E0,6.608025314E0
1.399257542E1,1.032903921E0,-1.337585079E0,-5.024642803E0,5.301231899E0
1.400263042E1,1.784529579E0,-1.321053831E0,-3.292841368E0,3.971464883E0
1.401268542E1,1.472789516E0,-6.281985372E-1,-1.915265427E0,2.496394203E0
1.402274042E1,9.004418282E-1,-5.328374666E-1,1.249093811E-1,1.053714195E0
1.403279542E1,1.850678837E-1,-5.556649965E-1,1.895293093E0,1.983721154E0
1.404285042E1,-3.009444952E-1,2.433207697E-1,3.040650373E0,3.065179811E0
1.405290592E1,-5.349336934E-1,1.625934672E0,3.322314259E0,3.737323862E0
1.406296092E1,-5.159976317E-1,3.103316737E0,3.165114205E0,4.462597478E0
1.407301592E1,-6.776083866E-1,4.147711898E0,2.922240747E0,5.118804362E0
1.408307092E1,-1.036132315E0,5.047411861E0,2.695393338E0,5.815073681E0
1.409312592E1,-1.009161155E0,5.840108362E0,2.346161367E0,6.374146615E0
1.410318192E1,-8.205340715E-1,6.423231883E0,2.041343676E0,6.789570531E0
1.411323692E1,-7.648425584E-1,6.645768725E0,1.752577761E0,6.915399836E0
1.412329192E1,-5.362879086E-1,6.833914583E0,1.384908350E0,6.993422937E0
1.413334692E1,-4.268924971E-1,6.862589913E0,1.010678289E0,6.949737270E0
1.414340192E1,-6.524599506E-1,6.607846608E0,6.991691172E-1,6.676689167E0
1.415345692E1,-7.719062872E-1,6.346160318E0,4.069673789E-1,6.405873285E0
1.416351192E1,-8.286485450E-1,5.854224125E0,8.321866952E-2,5.913165300E0
1.417356692E1,-1.004698122E0,5.136500039E0,-6.864631176E-2,5.234287275E0
1.418362192E1,-1.211776241E0,4.483583567E0,2.570322711E-2,4.644521925E0
1.419367692E1,-1.376531775E0,3.779263637E0,2.700559938E-1,4.031203741E0
1.420373192E1,-1.419551202E0,2.914900153E0,5.309692081E-1,3.285376206E0
1.421378692E1,-1.276285648E0,1.898051809E0,7.188133498E-1,2.397540063E0
1.422384192E1,-9.361377642E-1,7.475489795E-1,7.585756588E-1,1.417963476E0
1.423389692E1,-5.038760613E-1,-4.407303715E-1,7.579056410E-1,1.011214768E0
1.424395192E1,-3.169687897E-2,-1.534200044E0,7.629259142E-1,1.713718302E0
1.425400692E1,4.753741010E-1,-2.440058879E0,7.454182541E-1,2.595287314E0
1.426406192E1,9.766988759E-1,-2.994415269E0,6.971893231E-1,3.225916374E0
1.427411692E1,1.430341215E0,-3.142665575E0,6.150031257E-1,3.507199987E0
1.428417192E1,1.608243482E0,-2.775665669E0,5.666888253E-1,3.257591630E0
1.429422792E1,1.440050517E0,-2.052091443E0,3.921038298E-1,2.537433781E0
1.430428292E1,9.401920773E-1,-1.368077139E0,9.674452186E-2,1.662815595E0
1.431433792E1,4.402158165E-1,-7.761956584E-1,-3.089738186E-1,9.443169414E-1
1.432439292E1,6.860099584E-3,-3.602229828E-1,-6.156042194E-1,7.132855061E-1
1.433444792E1,-4.327550617E-1,-8.360758245E-2,-7.304960867E-1,8.531656955E-1
1.434450292E1,-7.670025198E-1,6.589928985E-2,-8.125770342E-1,1.119337759E0
1.435455792E1,-9.546703680E-1,2.588883966E-1,-8.266922859E-1,1.289123287E0
1.436461292E1,-1.004002157E0,4.694109643E-1,-7.474846601E-1,1.336824709E0
1.437466792E1,-9.083548652E-1,6.908391738E-1,-7.032259885E-1,1.340482792E0
1.438472292E1,-7.418881439E-1,8.955262202E-1,-7.073061025E-1,1.361119815E0
1.439477792E1,-5.209913000E-1,9.570745969E-1,-6.778174245E-1,1.283300503E0
1.440483292E1,-3.903826287E-1,8.810812587E-1,-4.703267844E-1,1.072338596E0
1.441488792E1,-3.390199555E-1,7.617419261E-1,-1.827920743E-1,8.535796592E-1
1.442494292E1,-3.564945057E-1,5.749958915E-1,1.362190747E-1,6.901190072E-1
1.443499792E1,-3.325143434E-1,3.843059099E-1,4.535474682E-1,6.811476542E-1
1.444505292E1,-2.919712119E-1,1.594173181E-1,7.395593441E-1,8.109310040E-1
1.445510792E1,-2.672274032E-1,-2.034480214E-2,8.976085599E-1,9.367633227E-1
1.446516292E1,-2.487449393E-1,-1.791294515E-1,9.570710886E-1,1.004960931E0
1.447521792E1,-2.751487724E-1,-2.231402743E-1,9.166049941E-1,9.826816088E-1
1.448527392E1,-3.060567158E-1,-2.701437020E-1,8.005575708E-1,8.986327154E-1
1.449532892E1,-4.023125567E-1,-3.465030760E-1,6.388808886E-1,8.307156943E-1
1.450538392E1,-4.665655629E-1,-4.001612198E-1,4.124883199E-1,7.402425551E-1
1.451543892E1,-5.002734455E-1,-4.904018837E-1,1.124301164E-1,7.095125502E-1
1.452549392E1,-5.140461235E-1,-5.426052403E-1,-2.036573517E-1,7.746871503E-1
1.453554892E1,-5.867148811E-1,-5.591084218E-1,-4.675315960E-1,9.356400869E-1
1.454560392E1,-6.455666681E-1,-5.305459428E-1,-6.604500246E-1,1.065096031E0
1.455565892E1,-6.574362235E-1,-4.550572193E-1,-7.917400427E-1,1.125234089E0
1.456571392E1,-6.017948502E-1,-3.261436558E-1,-8.483633097E-1,1.090067443E0
1.457576892E1,-5.341921203E-1,-1.595570666E-1,-8.788680144E-1,1.040782718E0
1.458582392E1,-3.930824344E-1,3.186557114E-2,-8.221091652E-1,9.118073779E-1
1.459587892E1,-3.109343170E-1,1.693365347E-1,-6.209672856E-1,7.148114306E-1
1.460593392E1,-2.042373955E-1,2.635036039E-1,-3.284698243E-1,4.680165473E-1
1.461598892E1,-1.479453734E-1,2.869877762E-1,-1.987834051E-2,3.234887410E-1
1.462604392E1,-1.281177574E-1,2.625054842E-1,1.736225438E-1,3.398059398E-1
1.463609892E1,-7.169621944E-2,2.085462087E-1,2.830695570E-1,3.588317755E-1
1.464615392E1,-3.026635766E-2,1.514042938E-1,3.785883562E-1,4.088623926E-1
1.465620892E1,3.639891744E-5,1.172688335E-1,4.592731348E-1,4.740082204E-1
1.466626392E1,6.977248549E-2,1.165279913E-1,4.950487391E-1,5.133422119E-1
1.467631992E1,5.007204652E-2,1.014719957E-1,4.556347780E-1,4.694750544E-1
1.468637492E1,4.438782200E-2,6.408431411E-2,3.788621521E-1,3.867991835E-1
1.469642992E1,7.351601914E-2,1.206461853E-1,2.569978456E-1,2.932712051E-1
1.470648492E1,-3.527552113E-2,1.988374919E-1,7.713749215E-2,2.161733176E-1
1.471653992E1,-8.011460200E-2,1.549249023E-1,-6.904757693E-2,1.875836952E-1
1.472659492E1,-5.363694772E-2,6.480586052E-2,-1.573110779E-1,1.783914150E-1
1.473664992E1,-3.463758990E-2,-2.169492424E-2,-1.953963324E-1,1.996250462E-1
1.474670492E1,-3.867640793E-3,-3.250408709E-2,-2.326643653E-1,2.349557005E-1
1.475675992E1,-1.193972200E-2,6.692138314E-3,-2.462763910E-1,2.466564462E-1
1.476681492E1,1.072423205E-1,7.867487133E-2,-1.978218305E-1,2.383781183E-1
1.477686992E1,2.055107729E-1,8.239370048E-2,-1.553661478E-1,2.704848231E-1
1.478692492E1,2.979090594E-1,2.627148145E-1,-1.625571267E-1,4.291779362E-1
1.479697992E1,2.960730337E-1,4.455373675E-1,-2.642987522E-1,5.966712809E-1
1.480703492E1,2.634674974E-1,4.138378572E-1,-3.352711594E-1,5.942084185E-1
1.481708992E1,2.681043394E-1,2.877730572E-1,-2.412290744E-1,4.613943385E-1
1.482714492E1,1.734975596E-1,9.822796047E-2,-3.136556111E-2,2.018264943E-1
1.483719992E1,5.570861623E-2,-1.045856380E-1,1.640916554E-1,2.024047356E-1
1.484725492E1,6.167920813E-2,-6.440240264E-2,2.119253147E-1,2.299224504E-1
1.485730992E1,1.135383099E-1,2.288541734E-2,1.268401408E-1,1.717646980E-1
1.486736592E1,1.831776251E-1,3.708011806E-2,4.453224823E-2,1.921252160E-1
1.487742092E1,2.181718951E-1,2.201067388E-2,-5.234544396E-2,2.254406598E-1
1.488747592E1,1.818223867E-1,2.428348660E-3,-1.617503572E-1,2.433689693E-1
1.489753092E1,8.391719252E-2,-4.804774046E-2,-2.763524218E-1,2.927820718E-1
1.490758592E1,-8.556376845E-3,-8.959454656E-2,-3.265273793E-1,3.387041833E-1
1.491764092E1,2.841863751E-2,-1.182347935E-1,-1.976757963E-1,2.320836181E-1
1.492769592E1,1.663969932E-1,-1.721361816E-1,-1.237738609E-2,2.397332352E-1
1.493775092E1,1.704005818E-1,-1.879844749E-1,1.351665759E-1,2.874796068E-1
1.494780592E1,1.127028890E-1,-5.385461032E-2,1.652177560E-1,2.071211412E-1
1.495786092E1,4.769032940E-2,-4.339803457E-3,1.706005566E-1,1.771941063E-1
1.496791592E1,2.699191689E-2,2.261936903E-2,1.616508083E-1,1.654423865E-1
1.497797092E1,-2.454573423E-2,-1.463090301E-2,1.670024724E-1,1.694295789E-1
1.498802592E1,-2.193118098E-1,-1.008843505E-1,1.899374449E-1,3.071669824E-1
1.499808092E1,-2.868613301E-1,-4.012710214E-2,7.803591684E-2,2.999820184E-1
1.500813592E1,-3.498253177E-1,8.164759576E-2,-1.357852113E-1,3.840334704E-1
1.501819092E1,-3.234688470E-1,4.269870758E-2,-2.992324305E-1,4.427135892E-1
1.502824592E1,-1.179335158E-1,-3.306600451E-2,-3.764647937E-1,3.958881353E-1
1.503830092E1,3.236083031E-2,-2.387418151E-2,-3.286952345E-1,3.311461265E-1
1.504835592E1,7.694248751E-2,-4.130765498E-2,-1.696486299E-1,1.908065155E-1
1.505841158E1,9.860715240E-2,-8.591781735E-2,-1.200958161E-1,1.775619523E-1
1.506846658E1,1.983027640E-1,-2.322993529E-1,-1.684416184E-1,3.487972970E-1
1.507852158E1,4.648916513E-1,-3.573508304E-1,-2.241996436E-1,6.277653571E-1
1.508857658E1,4.329297473E-1,-8.306086779E-2,-1.856781869E-1,4.783342585E-1
1.509863158E1,2.527463351E-1,2.039807028E-1,-1.405998087E-1,3.539168592E-1
1.510868658E1,1.270961027E-1,1.886329311E-1,-1.495953114E-1,2.722398928E-1
1.511874158E1,-1.523769781E-2,1.054136038E-2,-1.167231421E-1,1.181845998E-1
1.512879658E1,-2.043344593E-1,-4.997439802E-2,-1.582526989E-1,2.632373994E-1
1.513885158E1,-3.826739520E-1,-1.070233423E-1,-2.579734536E-1,4.737548438E-1
1.514890658E1,-3.670325039E-1,1.489888090E-1,-2.810021277E-1,4.856672934E-1
1.515896158E1,-7.962997015E-1,-9.409047067E-2,-1.294175935E-1,8.122161934E-1
1.516901658E1,-9.064577360E-1,-1.648300856E-1,-3.456159072E-1,9.840147050E-1
1.517907158E1,-6.331866507E-1,-8.744101703E-2,-5.225867128E-1,8.256319631E-1
1.518912658E1,-6.886650328E-1,2.059582311E-1,-3.806806362E-1,8.133855587E-1
1.519918158E1,-1.232582242E0,4.445690686E-1,3.209068894E-2,1.310698460E0
1.520923658E1,-1.289129203E0,6.879360312E-1,2.562599270E-1,1.483502354E0
1.521929158E1,-1.068568135E0,5.454382163E-1,3.446405916E-1,1.248245907E0
1.522934658E1,-8.428559634E-1,4.100862837E-1,4.903558369E-1,1.057840150E0
1.523940158E1,-5.133432882E-1,4.239050084E-1,5.832527447E-1,8.850991763E-1
1.524945658E1,-2.321894252E-1,3.242707926E-1,3.904533800E-1,5.581373649E-1
1.525951258E1,2.800889388E-2,3.235556781E-2,-9.653533772E-2,1.055957022E-1
1.526956758E1,-2.031732023E-2,-2.027171195E-1,-7.348068734E-1,7.625274848E-1
1.527962258E1,-3.243400821E-1,-3.437613165E-1,-1.281785831E0,1.366141738E0
1.528967758E1,-6.566738927E-1,-4.383417839E-1,-1.541213926E0,1.731676784E0
1.529973258E1,-8.149246913E-1,-4.351059347E-1,-1.480181712E0,1.744808679E0
1.530978758E1,-1.054351215E0,-3.375661916E-1,-1.104591808E0,1.563883142E0
1.531984258E1,-1.017810357E0,-1.634670997E-1,-7.047964776E-1,1.248758379E0
1.532989758E1,-7.291255724E-1,-9.408696234E-2,-3.758330751E-1,8.256675828E-1
1.533995258E1,-5.692311215E-1,1.538893604E-1,3.421673656E-2,5.906579298E-1
1.535000758E1,-2.241785936E-1,2.710967982E-1,3.660731220E-1,5.076997602E-1
1.536006258E1,1.922808628E-1,1.139329970E-1,2.353654866E-1,3.245759854E-1
1.537011758E1,2.626415782E-1,2.255493271E-1,1.762687013E-2,3.466465117E-1
1.538017258E1,2.819237950E-1,3.330041939E-1,-6.948948026E-2,4.418162596E-1
1.539022758E1,7.010960671E-1,5.688124609E-1,-2.660833955E-2,9.032116666E-1
1.540028258E1,7.032748859E-1,5.925030398E-1,2.617052197E-1,9.561093239E-1
1.541033758E1,7.097787438E-1,4.462326014E-1,4.838407961E-1,9.679934482E-1
1.542039258E1,6.166909245E-1,1.753258377E-1,5.777435712E-1,8.630379364E-1
1.543044758E1,3.324349675E-1,6.845335364E-3,5.835813582E-1,6.716599347E-1
1.544050258E1,1.926879752E-1,9.922724962E-3,4.868029225E-1,5.236451103E-1
1.545055858E1,6.227021545E-2,1.468820572E-3,3.334466819E-1,3.392144261E-1
1.546061358E1,-9.351685882E-2,2.272461891E-1,1.752211726E-1,3.018090334E-1
1.547066858E1,-2.244883499E-1,4.230869830E-1,7.485963620E-2,4.847696149E-1
1.548072358E1,-6.391006708E-2,2.063909250E-1,-4.161975011E-3,2.160995897E-1
1.549077858E1,1.022906059E-1,4.330506384E-2,-5.766399823E-2,1.251552368E-1
1.550083358E1,5.073424369E-2,9.980787814E-2,-9.856899932E-2,1.491691109E-1
1.551088858E1,2.631659272E-1,-2.686666954E-1,-9.478102684E-2,3.878421605E-1
1.552094358E1,1.682355040E-1,-4.642730159E-1,-3.081248760E-2,4.947747240E-1
1.553099858E1,6.692606091E-2,-4.119269872E-1,-7.016534530E-2,4.231856756E-1
1.554105358E1,6.954999894E-2,-3.268728036E-1,-9.771055497E-2,3.481815397E-1
1.555110858E1,-9.306925446E-2,-2.648753607E-1,-1.161483608E-2,2.809906533E-1
1.556116358E1,-2.439680564E-1,-2.881303221E-1,8.139448442E-2,3.862182766E-1
1.557121858E1,-2.741569385E-1,-3.692171699E-1,8.975242138E-2,4.685497227E-1
1.558127358E1,-2.695809075E-1,-4.624340665E-1,1.256297672E-1,5.498199432E-1
1.559132858E1,-2.009459978E-1,-5.041521960E-1,1.127202114E-1,5.543054906E-1
1.560138358E1,-2.456122935E-2,-3.217436260E-1,5.082282901E-2,3.266575804E-1
1.561143858E1,1.672166267E-1,6.379253805E-2,-1.912280716E-2,1.799904717E-1
1.562149358E1,3.185112852E-1,4.589818704E-1,-8.813274264E-2,5.655803891E-1
1.563154858E1,4.875750473E-1,6.577918804E-1,-1.295239397E-1,8.289728799E-1
1.564160458E1,5.349822253E-1,5.988443452E-1,-1.885072160E-1,8.248366515E-1
1.565165958E1,4.472070399E-1,4.777882701E-1,-2.497017630E-1,7.004475270E-1
1.566171458E1,3.152453229E-1,3.499044013E-1,-2.414139926E-1,5.292385280E-1
1.567176958E1,1.792943430E-1,2.176164097E-1,-1.001382458E-1,2.992173649E-1
1.568182458E1,9.551689893E-2,9.650654018E-2,-8.901801109E-3,1.360743633E-1
1.569187958E1,6.639308721E-2,7.499404907E-2,6.525024891E-2,1.195397190E-1
1.570193458E1,4.636929721E-2,9.224625885E-2,1.553861380E-1,1.865592021E-1
1.571198958E1,8.218115419E-2,9.688076198E-2,2.716628087E-1,2.999004931E-1
1.572204458E1,8.469457984E-2,1.127068359E-1,3.081435871E-1,3.388635020E-1
1.573209958E1,1.617866099E-2,1.276119733E-1,2.068125458E-1,2.435528565E-1
1.574215458E1,-1.534914574E-1,1.060187906E-1,1.015193216E-1,2.123812236E-1
1.575220958E1,-3.313383222E-1,1.527199173E-1,-3.871211249E-2,3.668883816E-1
1.576226458E1,-4.899513558E-1,3.213963014E-1,-1.713924523E-1,6.105106766E-1
1.577231958E1,-6.522782484E-1,4.897312081E-1,-2.414525660E-1,8.506485238E-1
1.578237458E1,-6.928061771E-1,7.386582881E-1,-2.753067386E-1,1.049471422E0
1.579242958E1,-7.282742178E-1,1.047001850E0,-1.550985464E-1,1.284776934E0
1.580248458E1,-8.517589340E-1,1.377196457E0,-2.180307945E-2,1.619456309E0
1.581253958E1,-1.022737074E0,1.689126701E0,5.949308038E-2,1.975520074E0
1.582259458E1,-1.220748355E0,1.951031091E0,1.207999671E-1,2.304634786E0
1.583265058E1,-1.438295183E0,2.243196577E0,1.642517960E-1,2.669757024E0
1.584270558E1,-1.622909030E0,2.605660213E0,1.880873859E-1,3.075496013E0
1.585276058E1,-1.757157008E0,3.047095758E0,2.127836859E-1,3.523871480E0
1.586281558E1,-1.826186897E0,3.562155935E0,1.826038671E-1,4.007150816E0
1.587287058E1,-1.869457463E0,4.155622011E0,1.262799684E-1,4.558509859E0
1.588292558E1,-1.914386298E0,4.772375209E0,-6.740094619E-3,5.142031258E0
1.589298058E1,-1.969842753E0,5.350568358E0,-2.368292091E-1,5.706570800E0
1.590303558E1,-2.070899012E0,5.876312567E0,-4.041449279E-1,6.243637179E0
1.591309058E1,-2.106180819E0,6.499276677E0,-4.879729503E-1,6.849431550E0
1.592314558E1,-2.107842890E0,7.018453878E0,-4.785168332E-1,7.343750734E0
1.593320058E1,-2.123379234E0,7.267416041E0,-3.478894508E-1,7.579254737E0
1.594325558E1,-2.022453369E0,7.625642785E0,-2.549765363E-1,7.893399682E0
1.595331058E1,-2.025306810E0,7.868275922E0,-1.272213062E-1,8.125750360E0
1.596336558E1,-2.137307010E0,7.617159644E0,-2.196570148E-1,7.914382573E0
1.597342058E1,-2.006200740E0,6.521403126E0,-6.461337749E-1,6.853541347E0
1.598347558E1,-1.595757192E0,5.391663759E0,-6.372371632E-1,5.658847083E0
1.599353058E1,-1.258058268E0,4.040623652E0,-2.747033608E-1,4.240850391E0
1.600358558E1,-8.614331523E-1,2.315783327E0,9.137612008E-2,2.472502597E0
1.601364058E1,-3.623279804E-1,1.628683448E-1,2.986868121E-1,4.970125500E-1
1.602369558E1,1.224357256E-1,-2.155339238E0,1.683957177E-1,2.165371759E0
1.603375158E1,3.257401979E-1,-3.798146051E0,1.928973055E-1,3.816966003E0
1.604380658E1,3.870526394E-1,-4.879682141E0,3.994355804E-1,4.911278482E0
1.605386208E1,2.637795925E-1,-5.631395507E0,7.131410390E-1,5.682496386E0
1.606391708E1,2.732456499E-1,-5.573573561E0,8.908062746E-1,5.650922159E0
1.607397208E1,5.957625702E-1,-5.201882434E0,5.244450311E-1,5.262086705E0
1.608402708E1,1.109770248E0,-5.084644006E0,-2.483067635E-1,5.210263998E0
1.609408208E1,1.464117072E0,-5.482230113E0,-7.918025348E-1,5.729348747E0
1.610413708E1,1.801393534E0,-6.125439622E0,-9.054525266E-1,6.448710995E0
1.611419208E1,2.260700509E0,-6.757673323E0,-7.583885479E-1,7.166035774E0
1.612424708E1,2.830070502E0,-7.408859603E0,-4.725311116E-1,7.945047849E0
1.613430208E1,3.221052763E0,-8.424992248E0,4.693380933E-2,9.019860202E0
1.614435708E1,3.641685962E0,-9.639288200E0,4.603664545E-1,1.031453784E1
1.615441208E1,4.490949596E0,-1.073423663E1,5.654988438E-1,1.164956022E1
1.616446708E1,5.128771189E0,-1.194902375E1,8.066666687E-1,1.302820685E1
1.617452208E1,5.502909375E0,-1.295254746E1,1.337566368E0,1.413646282E1
1.618457708E1,5.867135947E0,-1.338294697E1,1.998149124E0,1.474853056E1
1.619463208E1,6.187956297E0,-1.312647523E1,2.346581197E0,1.470039450E1
1.620468708E1,6.319882346E0,-1.266278986E1,2.526167316E0,1.437597583E1
1.621474208E1,6.478965204E0,-1.255946371E1,2.733458712E0,1.439405833E1
1.622479808E1,6.097968818E0,-1.350791834E1,3.031852067E0,1.512749843E1
1.623485308E1,4.990224922E0,-1.443091654E1,3.266114915E0,1.561477517E1
1.624490808E1,4.493414198E0,-1.468633812E1,3.157739112E0,1.567962419E1
1.625496308E1,3.934901900E0,-1.561377201E1,3.039707217E0,1.638637084E1
1.626501808E1,3.514735601E0,-1.687702319E1,1.912153539E0,1.734484388E1
1.627507308E1,3.764908138E0,-1.756598190E1,-1.358226335E-1,1.796543073E1
1.628512808E1,3.888732577E0,-1.739680207E1,-1.758342531E0,1.791264168E1
1.629518308E1,3.856393674E0,-1.651865787E1,-2.635961654E0,1.716642432E1
1.630523808E1,3.441512089E0,-1.468410916E1,-3.168037228E0,1.541114944E1
1.631529308E1,2.494924766E0,-1.217138635E1,-2.946610188E0,1.276909577E1
