"Time (s)","Linear Acceleration x (m/s^2)","Linear Acceleration y (m/s^2)","Linear Acceleration z (m/s^2)","Absolute acceleration (m/s^2)"
6.385833345E-3,-3.196756120E-1,-2.757190222E-1,-5.896817583E-1,7.252158659E-1
1.644083334E-2,-1.504387723E-1,-1.240907800E-1,-4.874455315E-1,5.250080876E-1
2.649583333E-2,4.933953658E-2,4.192482859E-2,-2.804581904E-1,2.878348098E-1
3.655083335E-2,2.176164097E-1,2.076115313E-1,5.363183141E-2,3.055091210E-1
4.660583334E-2,2.938034369E-1,2.251932317E-1,1.942526901E-1,4.180509045E-1
5.665983335E-2,3.030959782E-1,1.395964265E-1,1.777845919E-2,3.341712254E-1
6.671483335E-2,1.979842369E-1,1.106255195E-1,-2.340400690E-1,3.258995513E-1
7.676983334E-2,1.566998246E-1,1.699019605E-1,-5.012572396E-1,5.519785607E-1
8.682483333E-2,3.444195668E-1,2.413207296E-1,-5.460241073E-1,6.892045113E-1
9.687983335E-2,5.680206017E-1,2.102515492E-1,-4.025240797E-1,7.272405054E-1
1.069348333E-1,6.325431646E-1,1.455559087E-1,-4.872946733E-1,8.116362956E-1
1.169898333E-1,5.282032558E-1,1.214498851E-1,-5.444412661E-1,7.682220032E-1
1.270448334E-1,3.098151599E-1,1.109269434E-1,-5.630020827E-1,6.521208210E-1
1.370998333E-1,2.573722136E-1,1.222299036E-1,-5.332327384E-1,6.045806472E-1
1.471548333E-1,6.268905151E-1,1.175290346E-2,1.159403461E-1,6.376299966E-1
1.572098333E-1,6.482674970E-1,-2.068934932E-1,2.850073242E-1,7.377566266E-1
1.672648333E-1,7.841692141E-1,-1.779477292E-1,-3.517117757E-1,8.776604832E-1
1.773188333E-1,8.839994578E-1,-1.395654362E-1,-1.041970906E0,1.373549024E0
1.873738334E-1,8.772656581E-1,-8.188060731E-2,-1.439218458E0,1.687497922E0
1.974288333E-1,8.979146616E-1,-1.144069138E-1,-1.574449353E0,1.816103094E0
2.074838333E-1,6.902129370E-1,-3.148857191E-1,-1.735236674E0,1.893830306E0
2.175388333E-1,4.426365638E-1,-4.618601623E-1,-1.815338851E0,1.924758967E0
2.275938333E-1,3.705994517E-1,-3.178180978E-1,-1.915278876E0,1.976523582E0
2.376488333E-1,3.575018348E-1,-5.076026380E-2,-2.207315723E0,2.236655285E0
2.477038333E-1,3.415086767E-1,1.491621789E-1,-2.689975893E0,2.715667107E0
2.577591667E-1,2.359433377E-1,2.620745444E-1,-3.659799759E0,3.676749461E0
2.678141667E-1,2.222363678E-1,2.567085546E-1,-4.460944902E0,4.473848198E0
2.778691667E-1,3.557529326E-1,1.657030749E-1,-4.383036016E0,4.400570687E0
2.879231667E-1,5.138242216E-1,-8.616953999E-2,-3.775700344E0,3.811476565E0
2.979781667E-1,7.513783211E-1,-2.391394258E-1,-3.402757913E0,3.492924056E0
3.080331667E-1,1.169682209E0,-2.471281841E-1,-2.794190233E0,3.039198556E0
3.180881667E-1,1.704500200E0,-3.931366673E-1,-2.317434581E0,2.903511737E0
3.281431667E-1,2.285746619E0,-6.460983261E-1,-2.345185466E0,3.337959785E0
3.381981667E-1,2.915224673E0,-7.845948914E-1,-3.160266278E0,4.370515643E0
3.482531667E-1,2.751736524E0,-6.510228512E-1,-4.543477766E0,5.351548828E0
3.583081667E-1,1.851737768E0,-6.119003007E-1,-6.091020572E0,6.395614618E0
3.683631667E-1,1.686741037E0,-6.077771366E-1,-7.120125264E0,7.342388722E0
3.784181667E-1,2.573174837E0,-1.096116123E-1,-5.812917640E0,6.357928509E0
3.884731667E-1,3.505100267E0,-2.226578790E-1,-4.094794596E0,5.394686942E0
3.985281667E-1,2.983884434E0,-8.950046486E-1,-3.179640443E0,4.451372033E0
4.085821667E-1,1.561521744E0,-1.629230747E0,-9.677668154E-1,2.455466472E0
4.186371667E-1,2.682193834E-1,-2.782891950E0,-9.939792985E-1,2.967224981E0
4.286921667E-1,-9.456871444E-1,-4.318069941E0,-1.881113010E0,4.804023142E0
4.387471667E-1,-2.577999959E0,-4.747673646E0,-2.192162663E0,5.830271519E0
4.488021667E-1,-1.985837812E0,-4.018321202E0,-1.714446899E0,4.798935847E0
4.588571667E-1,-6.607575881E-1,-3.188912957E0,-1.280682315E0,3.499416184E0
4.689121667E-1,4.999509716E-1,-2.744477498E0,-8.036489207E-1,2.903094779E0
4.789671667E-1,1.136698138E0,-2.455408990E0,-2.764201033E-1,2.719838973E0
4.890221667E-1,1.212045944E0,-2.328822764E0,8.588390350E-2,2.626755962E0
4.990771667E-1,7.661097962E-1,-2.548173020E0,-8.206099391E-2,2.662112688E0
5.091321667E-1,4.197026145E-1,-2.669408312E0,-3.171079534E-1,2.720744103E0
5.191861667E-1,1.655399376E-1,-2.641770570E0,-4.812182468E-1,2.690339424E0
5.292411667E-1,2.950481629E-1,-2.600153890E0,-6.673544168E-2,2.617691213E0
5.392961667E-1,6.368465692E-1,-2.286524152E0,1.492541556E0,2.803827126E0
5.493511667E-1,2.660009497E-1,-2.165767747E0,4.359237263E0,4.874859583E0
5.594061667E-1,4.950258619E-1,-2.322377817E0,3.812593936E0,4.491587898E0
5.694611667E-1,4.260971296E-1,-3.119746536E0,2.937779723E0,4.306382114E0
5.795161667E-1,2.177187359E-1,-3.798671715E0,2.922018553E0,4.797447308E0
5.895711667E-1,8.798141670E-1,-3.704704036E0,3.000600746E0,4.847938717E0
5.996261667E-1,1.306279671E0,-2.974125723E0,2.275313871E0,3.965960616E0
6.096811667E-1,1.036578603E0,-2.048488096E0,6.127373296E-1,2.376183014E0
6.197361667E-1,9.291974115E-1,-1.257180601E0,-7.766748378E-1,1.745604393E0
6.297901667E-1,8.446186066E-1,-8.812860574E-1,-1.429847418E0,1.880029081E0
6.398451667E-1,7.309598440E-1,-1.064748296E0,-1.390062962E0,1.897436762E0
6.499001667E-1,4.299960530E-1,-1.852427740E0,-9.716818187E-1,2.135544589E0
6.599551667E-1,-7.419707358E-2,-3.550671711E0,-3.102403986E-1,3.564971797E0
6.700101667E-1,-2.664020687E-1,-5.380694967E0,-2.039649153E-1,5.391145525E0
6.800651667E-1,6.320886898E-1,-5.026735522E0,3.171523923E-1,5.076237953E0
6.901201667E-1,1.010911666E0,-3.333002677E0,1.315507162E0,3.723091233E0
7.001751667E-1,2.428652716E-1,-2.783596540E0,1.956260256E0,3.410915922E0
7.102301667E-1,1.257543129E-1,-3.416717556E0,2.493051610E0,4.231439392E0
7.202851667E-1,9.619809955E-1,-4.289297255E0,2.717506338E0,5.168009199E0
7.303401667E-1,1.559811434E0,-4.560313946E0,2.728542373E0,5.538449104E0
7.403951667E-1,1.884431890E0,-4.360736197E0,2.752225351E0,5.490159206E0
7.504491667E-1,2.499684691E0,-4.105607852E0,2.776961412E0,5.551211947E0
7.605041667E-1,3.292654842E0,-3.887826551E0,2.956273881E0,5.890358772E0
7.705591667E-1,4.029295841E0,-3.528793477E0,3.171917440E0,6.224842859E0
7.806141667E-1,4.285444232E0,-2.969737095E0,3.022061489E0,6.026377546E0
7.906691667E-1,4.935024868E0,-2.614731583E0,2.109057357E0,5.969875596E0
8.007241667E-1,6.421123962E0,-2.427506661E0,1.318658227E0,6.990170316E0
8.107791667E-1,7.532624109E0,-2.146842649E0,1.156567562E0,7.917512731E0
8.208341667E-1,8.030074811E0,-1.624775754E0,1.390783632E0,8.310010640E0
8.308891667E-1,9.025603037E0,-4.907304972E-1,5.865873387E-1,9.057947411E0
8.409441667E-1,1.084963027E1,1.222745179E0,-6.361390561E-1,1.093683023E1
8.509991667E-1,1.001244464E1,8.681787926E-1,8.517574722E-1,1.008604347E1
8.610531667E-1,8.993274951E0,1.586512744E0,4.794058439E0,1.031402023E1
8.711081667E-1,1.011705834E1,2.285382484E0,4.202070538E0,1.119085517E1
8.811631667E-1,1.076954212E1,1.826954345E0,2.414107767E0,1.118698869E1
8.912181667E-1,1.084283580E1,2.149748130E0,-1.920103998E0,1.121941641E1
9.012731667E-1,8.097252302E0,1.525536225E0,-2.542595068E0,8.623082123E0
9.113281667E-1,5.421639510E0,4.428318608E-1,-1.833387159E0,5.740346985E0
9.213831667E-1,4.407380898E0,-2.238407707E-1,-1.187114293E0,4.569939979E0
9.314381667E-1,4.111784851E0,-6.268261957E-1,-1.363677694E0,4.377134062E0
9.414931667E-1,4.477072107E0,-8.793709481E-1,-1.799679422E0,4.904723636E0
9.515481667E-1,4.163209943E0,-1.212003259E0,-1.617552396E0,4.627930929E0
9.616031667E-1,3.575484663E0,-1.329515337E0,-2.091644349E0,4.350480168E0
9.716571667E-1,3.552010431E0,-1.087930605E0,-2.369176008E0,4.406060152E0
9.817121667E-1,3.646981493E0,-5.859301847E-1,-1.933255556E0,4.169084460E0
9.917671667E-1,4.098914545E0,2.594696099E-1,-9.102196884E-1,4.206771304E0
1.001822167E0,4.329688944E0,1.116686043E0,-1.501640993E-1,4.473895766E0
1.011877167E0,3.867889885E0,1.345085887E0,-2.390742293E-1,4.102070781E0
1.021932167E0,2.908652987E0,1.249244760E0,-9.113017157E-1,3.294138050E0
1.031987167E0,1.980149056E0,1.045500285E0,-1.375586426E0,2.627983855E0
1.042042167E0,9.656635720E-1,1.347077449E0,-2.495414177E0,2.995699535E0
1.052097167E0,7.469987565E-1,2.184096429E0,-3.811044131E0,4.455596674E0
1.062152167E0,1.123292227E0,3.093371208E0,-3.052457655E0,4.488677822E0
1.072207167E0,5.707016963E-1,2.996016237E0,-1.950163657E0,3.620076243E0
1.082261167E0,-1.688853051E0,1.271967625E0,-2.033195288E0,2.933259168E0
1.092316167E0,-3.266944635E0,9.326133549E-2,-1.577394011E0,3.629021465E0
1.102371167E0,-3.616920372E0,3.081775010E-2,-1.021368826E0,3.758491319E0
1.112426167E0,-3.077470874E0,5.113507032E-1,-1.182828869E0,3.336373878E0
1.122481167E0,-2.743866171E0,1.346327251E0,-1.640351859E0,3.468739375E0
1.132536167E0,-2.367800742E0,2.185775165E0,-1.909451248E0,3.745677175E0
1.142591167E0,4.156873316E-1,3.245670710E0,-1.338483211E0,3.535351697E0
1.152646167E0,2.824275327E0,3.701674009E0,-1.710135162E-2,4.656094291E0
1.162701167E0,1.109956482E0,3.293311484E0,-4.741980797E-1,3.507530149E0
1.172756167E0,-5.713483983E-1,3.297593985E0,-1.418492417E0,3.634925834E0
1.182811167E0,-1.537909518E0,2.509778155E0,-1.025137941E0,3.116899079E0
1.192865167E0,-3.377533025E0,3.490676647E-1,-1.109804454E-1,3.397336343E0
1.202920167E0,-4.039143721E0,-8.640588444E-1,7.092096636E-1,4.190973400E0
1.212975167E0,-3.539385123E0,-5.198893923E-1,6.218996242E-1,3.631017925E0
1.223030167E0,-3.835216228E0,-1.228143328E-1,-4.021969280E-1,3.858202852E0
1.233085167E0,-4.705365533E0,-4.359537810E-2,-5.741468757E-2,4.705917742E0
1.243140167E0,-4.579325876E0,-3.115723944E-1,7.258131248E-1,4.646946043E0
1.253195167E0,-3.664654702E0,-5.276270127E-1,2.409017766E-1,3.710271960E0
1.263249208E0,-9.369502348E-1,1.474120196E0,1.368972933E0,2.219232522E0
1.273304208E0,-8.563592309E-1,2.083553556E0,1.704361621E0,2.824782308E0
1.283359208E0,-4.406461716E-1,1.670238440E0,6.728203940E-1,1.853794157E0
1.293414208E0,8.598622978E-2,1.867150151E0,6.041448462E-1,1.964340682E0
1.303469208E0,-2.924262714E-1,1.723762975E0,1.412211923E0,2.247490697E0
1.313523208E0,-4.022954535E-1,5.003655392E-1,2.137106450E0,2.231463933E0
1.323578208E0,-9.505701542E-2,5.125271630E-1,8.899555779E-1,1.031378136E0
1.333633208E0,-9.640830696E-2,3.252999026E-1,3.242099816E-1,4.692831772E-1
1.343688208E0,-6.148054898E-2,-1.224085361E-2,-1.121069115E-1,1.284432015E-1
1.353743208E0,-2.608133000E-1,-4.385440975E-1,-3.915295601E-1,6.431484272E-1
1.363798208E0,-4.629223090E-1,-1.650207926E0,-1.586776453E-1,1.721238466E0
1.373853208E0,-1.625701953E0,-1.966779982E0,7.536821971E-1,2.660670440E0
1.383908208E0,-4.399626321E-1,-1.741374204E0,1.438599823E0,2.301199836E0
1.393963208E0,-2.813323492E-1,-1.494129368E0,1.650298850E0,2.243893213E0
1.404018208E0,-3.811870050E-1,-1.138647015E0,1.241020651E0,1.726833175E0
1.414073208E0,-3.466667980E-1,-1.442087979E0,6.918975198E-1,1.636617789E0
1.424127208E0,4.572569418E-1,-1.888882790E0,-2.344014452E-1,1.957525515E0
1.434182208E0,1.251829230E0,-2.735717199E0,-8.945573366E-1,3.138703210E0
1.444237208E0,1.815203195E0,-2.670253819E0,-1.425276942E0,3.529395481E0
1.454292208E0,2.577980663E0,-8.729726323E-1,-1.442737312E0,3.080512371E0
1.464347208E0,3.890199351E0,7.644947952E-1,-1.010487742E0,4.091355370E0
1.474402208E0,5.361892660E0,4.340233228E-1,-1.499799120E0,5.584591887E0
1.484457208E0,7.696679438E0,1.460600264E0,-8.108404112E-1,7.875892945E0
1.494512208E0,1.158512229E1,3.887620729E0,8.933446240E-1,1.225262086E1
1.504567208E0,1.304638942E1,7.072828306E0,1.256056767E0,1.489331581E1
1.514622208E0,1.304874936E1,9.372187389E0,9.145618308E-1,1.609174259E1
1.524677208E0,1.014542436E1,6.370663075E0,2.801751852E-1,1.198304976E1
1.534731208E0,2.393859444E0,2.137346186E0,-1.702076529E0,3.632612870E0
1.544786208E0,-1.962277626E0,-1.764471583E0,-1.613473670E0,3.093087573E0
1.554841208E0,-7.025689223E0,-5.328405071E0,3.007769140E0,9.316591912E0
1.564896208E0,-1.013135596E1,-7.053300945E0,3.783439718E0,1.291153917E1
1.574951208E0,-1.314676975E1,-7.988634424E0,1.800813782E-1,1.538467627E1
1.585006208E0,-1.341355832E1,-7.179951636E0,-1.819999666E0,1.532278209E1
1.595061208E0,-1.096284405E1,-4.476204088E0,-1.673018206E0,1.195906948E1
1.605116208E0,-1.043344300E1,-1.694856680E0,-1.378215626E0,1.065967871E1
1.615171208E0,-1.067064933E1,5.608146393E-1,1.221527204E-1,1.068607466E1
1.625226208E0,-1.029161176E1,1.668910537E0,2.400410664E0,1.069880865E1
1.635281208E0,-9.699369510E0,1.265042475E0,3.452579699E0,1.037296524E1
1.645336208E0,-8.728537585E0,1.490426034E-1,2.683597165E0,9.132977379E0
1.655390208E0,-7.786230131E0,-8.886791307E-1,1.227909440E0,7.932395088E0
1.665445208E0,-6.680134565E0,-1.619853567E0,9.720586717E-1,6.942119377E0
1.675500208E0,-6.884055042E0,-2.558817583E0,2.215361491E0,7.671087783E0
1.685555208E0,-7.289851223E0,-3.479728321E0,3.182702630E0,8.682167706E0
1.695610208E0,-5.198458305E0,-3.393129303E0,5.723068301E-1,6.234166369E0
1.705665208E0,1.230546534E-1,-5.631075080E0,-3.966362844E0,6.888844839E0
1.715720208E0,9.687772728E0,-9.737101593E0,-5.619121617E0,1.484043852E1
1.725775208E0,1.387283372E1,-8.367830452E0,6.162860048E0,1.733369394E1
1.735830208E0,1.478600391E1,7.120733374E-1,1.282064012E1,1.958320130E1
1.745885208E0,1.179914792E1,1.386281276E0,4.994053094E0,1.288728962E1
1.755940208E0,1.315363555E1,-1.170333661E0,-5.147282889E0,1.417329637E1
1.765995208E0,1.136406128E1,-6.063118243E-1,-1.025673546E1,1.532025213E1
1.776049208E0,6.855531154E0,1.248878725E0,-8.077543677E0,1.066792938E1
1.786104208E0,3.188942778E0,4.136156631E-1,-6.972692399E0,7.678468158E0
1.796159208E0,5.896478444E-1,-1.515155078E0,-7.253397342E0,7.433380960E0
1.806214208E0,-2.907668316E-1,-1.567784697E0,-4.602565634E0,4.870944942E0
1.816269208E0,-9.134286404E-1,-8.496606606E-1,-4.843530853E-1,1.338235043E0
1.826324208E0,-1.648677417E0,-1.073866882E0,2.809811654E0,3.430214110E0
1.836379208E0,-1.613433909E0,-1.259193213E0,3.848093551E0,4.358504389E0
1.846434208E0,-1.194465120E0,-8.474580145E-1,3.312978594E0,3.622258850E0
1.856489208E0,-1.555193303E0,-3.311652446E-1,2.115768060E0,2.646652813E0
1.866544208E0,-2.295580612E0,-1.930241901E-1,6.792499924E-1,2.401734631E0
1.876599208E0,-2.509451296E0,5.090135711E-1,-1.503072099E-1,2.564962549E0
1.886654208E0,-2.335900673E0,1.212495010E0,2.886058469E-1,2.647615802E0
1.896708208E0,-1.868035712E0,1.462604397E0,1.220861279E0,2.668196265E0
1.906763208E0,-1.346945887E0,1.206453082E0,1.448723692E0,2.317022355E0
1.916818208E0,-8.465324003E-1,8.419440901E-1,5.888298190E-1,1.331242845E0
1.926873208E0,-4.591795063E-1,2.547947609E-1,1.565054047E-1,5.479599720E-1
1.936928208E0,-3.961956382E-2,-1.559405637E-1,-1.482864853E-1,2.188059665E-1
1.946983208E0,4.673866582E-1,1.226014942E-1,2.532180592E-2,4.838621792E-1
1.957038208E0,1.118537271E0,8.892533273E-1,2.455363528E-1,1.449891447E0
1.967093208E0,1.795118594E0,1.665815606E0,-1.084459698E-1,2.451357365E0
1.977148208E0,1.677821694E0,1.982532966E0,-1.638168363E-1,2.602375559E0
1.987203208E0,1.007842462E0,1.837129669E0,-1.660142199E-1,2.101987767E0
1.997258208E0,4.463103694E-1,2.004554164E0,2.259122930E-2,2.053762573E0
2.007313208E0,9.815545499E-2,2.034456825E0,2.859124732E-1,2.056792408E0
2.017367208E0,-7.451282322E-2,1.593269202E0,4.128039964E-1,1.647563671E0
2.027422208E0,-2.279583800E-1,9.843998051E-1,5.909605443E-1,1.170573519E0
2.037477208E0,-3.881557167E-1,4.661990887E-1,2.239752201E-1,6.466616966E-1
2.047532208E0,-3.705310392E-1,3.560778916E-1,-2.183806407E-1,5.583679971E-1
2.057587208E0,-5.157805538E-1,8.475451380E-1,-5.462445474E-1,1.132583527E0
2.067642208E0,-3.446848843E-1,1.405423890E0,-1.212068163E0,1.887626344E0
2.077697208E0,3.934284434E-1,1.560492634E0,-1.413826339E0,2.142155017E0
2.087752208E0,-9.376846451E-1,4.639865023E-1,-1.769898384E0,2.055985471E0
2.097807208E0,-1.888729301E0,3.864436519E-1,-4.144524362E-1,1.971904635E0
2.107862208E0,-2.474189662E0,-3.759210026E-1,7.129439878E-1,2.602156839E0
2.117917208E0,-2.406479489E0,-1.340574176E0,1.085906811E0,2.960992444E0
2.127972208E0,-9.595023608E-1,-2.166744232E-2,1.846591634E0,2.081109060E0
2.138026208E0,1.483339793E0,1.717586854E0,1.250231186E0,2.591038317E0
2.148081208E0,3.642968549E0,2.580058179E0,-5.438617704E-1,4.497077460E0
2.158136208E0,3.320364505E0,2.603487387E0,-2.077116356E0,4.702911798E0
2.168191208E0,1.412418330E0,1.657340067E0,-2.151145030E0,3.060902902E0
2.178246208E0,-1.467569268E-1,7.111319357E-1,-1.241262726E0,1.438047072E0
2.188301208E0,-9.736657789E-1,7.308428997E-1,-2.056038898E-1,1.234677834E0
2.198356208E0,-1.426078303E0,9.273643094E-1,3.859735358E-1,1.744327795E0
2.208411208E0,-1.517068872E0,7.099928981E-1,1.020226865E0,1.961237042E0
2.218466208E0,-1.457431073E0,7.514432251E-2,1.171003168E0,1.871096048E0
2.228521208E0,-9.758368501E-1,1.251486583E0,1.059906655E0,1.908370599E0
2.238576208E0,-4.382967603E-1,5.996973370E0,4.673357874E-1,6.031102419E0
2.248631208E0,-4.154417485E-1,5.224507651E0,2.317117077E-1,5.246118790E0
2.258685208E0,-4.943993327E-1,2.234640346E0,1.972751158E0,3.021555115E0
2.268740292E0,2.650560397E-1,1.104533190E-1,2.894251880E0,2.908461550E0
2.278795292E0,1.136844903E0,-3.786955649E0,4.390317188E-1,3.978215463E0
2.288850292E0,2.089422699E0,-7.587318964E0,-1.444684435E0,8.001262987E0
2.298905292E0,2.180273227E0,-4.393656898E0,-1.530376550E0,5.138079862E0
2.308960292E0,1.239430355E0,-3.539682747E0,2.190881538E-1,3.756799325E0
2.319015292E0,7.327907534E-1,-7.315246850E-1,9.994370896E-1,1.439091779E0
2.329070292E0,2.229324058E-1,6.847182500E0,8.535940826E-1,6.903783738E0
2.339125292E0,-1.557746051E0,1.150105219E1,-4.484995084E0,1.244250598E1
2.349180292E0,-5.259150942E-1,8.247380149E0,-4.539218654E0,9.428699380E0
2.359235292E0,-7.570770174E-2,7.479475257E0,-3.898463221E0,8.434826452E0
2.369290292E0,-5.967114271E-1,6.523996366E0,5.328800782E-1,6.572864998E0
2.379345292E0,-1.425350032E0,4.718303667E0,3.598944862E0,6.102984215E0
2.389399292E0,-1.599440791E0,3.260512698E0,4.628761160E0,5.883415996E0
2.399454292E0,-1.677163882E0,1.797245811E0,5.701129401E0,6.208530232E0
2.409509292E0,-1.599361123E0,2.863084466E0,2.291762381E0,4.000922828E0
2.419564292E0,-1.578610670E0,4.521005747E0,-1.237937561E0,4.946108977E0
2.429619292E0,-1.519427639E0,3.743700871E0,-2.177493753E0,4.589709752E0
2.439674292E0,-1.552512647E0,-5.972199887E0,-8.515804477E-1,6.229177816E0
2.449729292E0,-2.716229891E0,-1.355577546E1,1.578681129E0,1.391507051E1
2.459784292E0,-5.015722876E0,-1.858514574E1,1.586913132E0,1.931536724E1
2.469839292E0,-6.908610424E0,-2.701205938E1,3.962852468E-1,2.788435569E1
2.479894292E0,-2.630087541E0,-1.899840589E1,-2.247185986E0,1.931079055E1
2.489949292E0,4.346816608E0,6.359762696E0,-4.406578660E0,8.874645438E0
2.500004292E0,4.941895346E0,1.892860651E-2,-1.949422522E0,5.312526336E0
2.510059292E0,4.184045034E0,-4.384334098E0,-6.511050045E-1,6.095289661E0
2.520113292E0,4.241790674E0,7.976566941E-1,1.540099300E0,4.582679367E0
2.530168292E0,3.092402324E0,1.250734631E0,2.492860991E0,4.164330099E0
2.540223292E0,1.988227423E0,8.633162481E-1,2.618804753E0,3.399485485E0
2.550278292E0,6.327788074E-1,-2.049682975E-2,1.668488953E0,1.784568442E0
2.560333292E0,-4.826331268E-1,-1.096380417E0,6.829618049E-1,1.378920440E0
2.570388292E0,-1.638159738E0,-1.806325368E0,-4.240909499E-1,2.475122582E0
2.580443292E0,-2.461569616E0,-2.300561855E0,-9.466006257E-1,3.499708927E0
2.590498292E0,-2.167891017E0,-2.282186396E0,-1.800989783E0,3.626525942E0
2.600553292E0,-1.235797772E0,-1.507814484E0,-2.948442121E0,3.534686915E0
2.610608292E0,2.298099008E-1,-5.247560298E-1,-2.222329618E0,2.294979393E0
2.620663292E0,1.734030247E0,7.030160004E-1,-4.580369604E-1,1.926367112E0
2.630718292E0,2.373109137E0,1.379593815E0,7.231064487E-1,2.838628015E0
2.640773292E0,2.398152908E0,1.161417242E0,1.306822731E0,2.967795989E0
2.650828292E0,2.370560482E0,9.785087353E-1,1.508082725E0,2.975121821E0
2.660882292E0,2.199341875E0,1.211285221E0,1.232880596E0,2.797197014E0
2.670937292E0,1.682743295E0,1.038714591E0,8.932154006E-1,2.169881737E0
2.680992292E0,6.435653123E-1,2.109441519E-1,3.060741113E-1,7.432059661E-1
2.691047292E0,-2.886188570E-1,-3.287199390E-1,4.939303860E-2,4.402241647E-1
2.701102292E0,-8.238992903E-1,-4.999205661E-1,6.205094486E-1,1.146194830E0
2.711157292E0,-8.488350338E-1,-3.007398427E-1,1.084276242E0,1.409475199E0
2.721212292E0,-8.953622058E-1,-8.391339183E-3,9.821511121E-1,1.329046538E0
2.731267292E0,-8.433193552E-1,1.327148384E-1,5.096583728E-1,9.942597348E-1
2.741322292E0,-5.283190307E-1,3.297741920E-1,1.164351667E-1,6.335843779E-1
2.751377292E0,-4.467971501E-1,2.675709271E-1,3.269815618E-1,6.149299441E-1
2.761432292E0,-4.898414281E-1,-2.217457134E-1,3.825369810E-1,6.598866023E-1
2.771487292E0,-3.229434747E-1,-3.399881083E-1,6.145594682E-1,7.730250588E-1
2.781542292E0,-2.544655627E-1,-7.852225900E-2,7.564156973E-1,8.019246691E-1
2.791596292E0,2.066620897E-1,3.621987569E-1,1.876821738E-1,4.572983241E-1
2.801651292E0,2.329768990E-1,2.880829597E-1,-3.779646045E-1,5.292705068E-1
2.811706292E0,3.833419964E-2,1.815922987E-1,-5.390991037E-1,5.701518371E-1
2.821761292E0,5.356341898E-3,1.325528705E-1,-4.373448336E-1,4.570223817E-1
2.831816292E0,-1.102106595E-1,-6.220092595E-2,-3.272949725E-1,3.509093098E-1
2.841871292E0,-1.058397196E-1,-4.684262931E-2,-3.993806165E-1,4.158138466E-1
2.851926292E0,-6.622293323E-2,3.279878676E-2,-5.917048949E-1,5.963018698E-1
2.861981292E0,-3.752567589E-2,-2.486236095E-2,-6.602022488E-1,6.617350850E-1
2.872036292E0,1.210987598E-2,-5.000889659E-2,-6.103640909E-1,6.125290706E-1
2.882091292E0,1.373032947E-1,-6.591507733E-2,-5.532663225E-1,5.738472059E-1
2.892146292E0,2.409171255E-1,-1.285036737E-1,-5.328341044E-1,5.987206681E-1
2.902201292E0,3.092460796E-1,-1.580011225E-1,-4.352807665E-1,5.568364555E-1
2.912256292E0,4.007082269E-1,-1.148808306E-1,-3.561604835E-1,5.482836659E-1
2.922311292E0,3.608644223E-1,-1.872570813E-1,-2.707542975E-1,4.884631362E-1
2.932365292E0,2.914785840E-1,-2.277876413E-1,-1.334382851E-1,3.932591390E-1
2.942420292E0,1.400196187E-1,-2.447597694E-1,4.732546315E-2,2.859240071E-1
2.952475292E0,-1.179398015E-2,-2.191267455E-1,1.841169803E-1,2.864518999E-1
2.962530292E0,-2.042935288E-1,-1.632595235E-1,2.505876893E-1,3.621929154E-1
2.972585292E0,-4.211785980E-1,-1.309460557E-1,3.534636015E-1,5.652210173E-1
2.982640292E0,-6.741213995E-1,-1.555944085E-2,5.411076222E-1,8.645688037E-1
2.992695292E0,-8.059075539E-1,1.320815849E-1,5.285713381E-1,9.727899002E-1
3.002750292E0,-9.091628042E-1,2.552175146E-1,5.251776141E-1,1.080520481E0
3.012805292E0,-9.580943513E-1,4.169854134E-1,5.824586928E-1,1.196277455E0
3.022860292E0,-1.010494028E0,5.774996692E-1,7.079801403E-1,1.362292160E0
3.032915292E0,-1.011846489E0,7.533997035E-1,8.014521217E-1,1.494580187E0
3.042970292E0,-9.988500291E-1,8.163245147E-1,7.664764166E-1,1.500524305E0
3.053025292E0,-1.171718867E0,6.158556497E-1,8.523935030E-1,1.574413532E0
3.063080292E0,-1.232905008E0,5.160021633E-1,8.017953533E-1,1.558585506E0
3.073135292E0,-1.048038415E0,5.835673249E-1,7.265251695E-1,1.402417258E0
3.083189292E0,-1.002318305E0,5.465515262E-1,6.204305112E-1,1.299343902E0
3.093244292E0,-1.083941050E0,4.961356634E-1,8.246281457E-1,1.449513841E0
3.103299292E0,-1.010459091E0,6.157258415E-1,6.694442117E-1,1.359522504E0
3.113354292E0,-9.933703110E-1,5.588517290E-1,5.748730999E-1,1.276549612E0
3.123409292E0,-9.201465064E-1,5.882532835E-1,2.010832612E-1,1.110471070E0
3.133464292E0,-9.703910458E-1,4.735274041E-1,6.511590913E-2,1.081724117E0
3.143519292E0,-9.254584095E-1,4.298405170E-1,-2.634807998E-1,1.053877730E0
3.153574292E0,-1.001731245E0,1.524532843E-1,-4.492445022E-1,1.108389874E0
3.163629292E0,-8.698616213E-1,4.005927444E-3,-6.396118636E-1,1.079712287E0
3.173684292E0,-7.014036307E-1,-1.672075635E-1,-9.055854777E-1,1.157588217E0
3.183739292E0,-5.046916017E-1,-3.443337590E-1,-1.226616620E0,1.370353124E0
3.193794292E0,-2.222085205E-1,-5.618273771E-1,-1.320116522E0,1.451803796E0
3.203849292E0,1.264644572E-1,-6.903199410E-1,-1.440526480E0,1.602389285E0
3.213904292E0,4.462735319E-1,-6.870414072E-1,-1.498933148E0,1.708211504E0
3.223958292E0,7.874269903E-1,-5.779569215E-1,-1.484676028E0,1.777171454E0
3.234013292E0,1.042545395E0,-5.471222144E-1,-1.427736427E0,1.850587723E0
3.244068292E0,1.233693506E0,-5.413206071E-1,-1.436946815E0,1.969731914E0
3.254123292E0,1.387474108E0,-4.411654043E-1,-1.343118445E0,1.980827724E0
3.264178542E0,1.423829463E0,-3.976399004E-1,-1.230059607E0,1.923136622E0
3.274233542E0,1.323008848E0,-3.586436498E-1,-1.052445169E0,1.728183588E0
3.284288542E0,1.218470864E0,-3.063660336E-1,-8.792189205E-1,1.533478824E0
3.294343542E0,1.027602250E0,-1.378013313E-1,-6.598097545E-1,1.228944467E0
3.304398542E0,6.041427997E-1,-6.265817821E-2,-3.495664322E-1,7.007933078E-1
3.314453542E0,2.036751857E-1,-1.487707078E-2,-1.030519134E-1,2.287457221E-1
3.324508542E0,-1.113660693E-2,4.606845796E-2,-9.589302108E-2,1.069663420E-1
3.334563542E0,-1.557929215E-1,4.288874209E-2,-8.535575375E-2,1.827470473E-1
3.344618542E0,-3.013614017E-1,-4.534515738E-3,-1.830570263E-1,3.526317217E-1
3.354672542E0,-3.474690360E-1,-6.426967084E-2,-3.923066550E-1,5.279865843E-1
3.364727542E0,-2.652206388E-1,-1.293404102E-1,-6.827425343E-1,7.437797369E-1
3.374782542E0,-8.157684445E-2,-1.547015387E-1,-8.608745970E-1,8.784602549E-1
3.384837542E0,9.010266960E-2,-1.863110018E-1,-8.868477827E-1,9.106751727E-1
3.394892542E0,3.033433154E-1,-1.892726165E-1,-8.474498284E-1,9.197893792E-1
3.404947542E0,4.760460922E-1,-1.960641575E-1,-7.215850031E-1,8.864231227E-1
3.415002542E0,5.439158937E-1,-2.380442423E-1,-5.927663107E-1,8.389764358E-1
3.425057542E0,5.445810145E-1,-2.277163053E-1,-4.496397740E-1,7.420236677E-1
3.435112542E0,4.400693437E-1,-2.394142449E-1,-2.841599165E-1,5.759575211E-1
3.445167542E0,2.712166661E-1,-1.932691884E-1,-1.791581029E-1,3.781654201E-1
3.455222542E0,1.432053280E-1,-1.180079216E-1,-1.267034622E-1,2.246940205E-1
3.465277542E0,-1.529602379E-2,-4.287003100E-2,-1.453940870E-1,1.523523824E-1
3.475332542E0,-1.626329944E-1,2.573184192E-2,-1.235699393E-1,2.058668221E-1
3.485387542E0,-2.743937507E-1,6.401882529E-2,-1.659412028E-1,3.269966716E-1
3.495441542E0,-3.769518667E-1,7.566589415E-2,-1.793054527E-1,4.242269237E-1
3.505496542E0,-4.510217634E-1,5.693667769E-2,-1.346178147E-1,4.741143030E-1
3.515551542E0,-4.707803822E-1,1.055094981E-1,-7.078946248E-2,4.876244153E-1
3.525606542E0,-5.619972387E-1,8.838534236E-2,1.168699072E-1,5.807851929E-1
3.535661542E0,-4.016674626E-1,2.244541436E-1,9.498918772E-2,4.698290741E-1
3.545716542E0,-4.434636524E-1,2.454345381E-1,3.851670586E-1,6.365938945E-1
3.555771542E0,-6.045094201E-1,7.985893250E-2,3.929141808E-1,7.253899927E-1
3.565826542E0,-5.206729192E-1,5.842947185E-2,1.856086050E-1,5.558460634E-1
3.575881542E0,-6.054411739E-1,-8.210075498E-2,1.713747279E-1,6.345619327E-1
3.585936542E0,-6.498516539E-1,-1.551184452E-1,1.018292606E-1,6.758240173E-1
3.595991542E0,-5.796175307E-1,-8.137803912E-2,-1.973216012E-2,5.856348908E-1
3.606046542E0,-4.558550718E-1,7.759839892E-3,9.143875837E-3,4.560127982E-1
3.616101542E0,-3.371831989E-1,1.079676676E-1,5.808448613E-2,3.587803428E-1
3.626155542E0,-2.194863492E-1,2.194120896E-1,-1.493159607E-2,3.107070567E-1
3.636210542E0,-1.611507252E-1,3.165214777E-1,-1.249035430E-1,3.765053746E-1
3.646265542E0,-1.974505323E-1,3.018823886E-1,-9.480441570E-2,3.729712676E-1
3.656320542E0,-3.427661204E-1,1.255122381E-1,-9.011480257E-2,3.759821976E-1
3.666375542E0,-4.327287492E-1,-7.692596912E-2,-1.237139270E-2,4.396871916E-1
3.676430542E0,-4.658815849E-1,-2.191676760E-1,1.273032403E-1,5.303642487E-1
3.686485542E0,-4.304556441E-1,-2.168188494E-1,2.364837666E-1,5.368678114E-1
3.696540542E0,-3.415458065E-1,-9.692227721E-2,2.708236601E-1,4.465343443E-1
3.706595542E0,-2.282165346E-1,7.332349956E-2,3.309863198E-1,4.086698742E-1
3.716650542E0,-1.658822921E-1,2.068774134E-1,3.928434294E-1,4.739632465E-1
3.726705542E0,-1.012924862E-1,3.429853910E-1,3.826634270E-1,5.237656390E-1
3.736760542E0,-7.941278994E-2,4.969367319E-1,1.778180672E-1,5.337338024E-1
3.746815542E0,-1.740526065E-1,6.873530638E-1,8.445674434E-2,7.140598615E-1
3.756869542E0,-3.651273349E-1,6.356642622E-1,-1.902771682E-1,7.573588486E-1
3.766924542E0,-4.330170169E-1,4.919712764E-1,-5.758694655E-1,8.724477721E-1
3.776979542E0,-4.983710539E-1,2.560624373E-1,-7.687281793E-1,9.512542735E-1
3.787034542E0,-4.820719403E-1,1.441174936E-1,-9.210275356E-1,1.049502229E0
3.797089542E0,-2.712268987E-1,2.133806866E-1,-1.074622927E0,1.128676120E0
3.807144542E0,-7.687012821E-2,2.434447306E-1,-1.208406564E0,1.235079259E0
3.817199542E0,1.814712614E-2,2.339295566E-1,-1.240272208E0,1.262270773E0
3.827254542E0,6.829255521E-2,1.332141906E-1,-8.422078726E-1,8.554086710E-1
3.837309542E0,2.227809629E-1,1.189013761E-1,-5.984110665E-1,6.495111232E-1
3.847364542E0,5.951728785E-1,3.437461138E-1,-8.156970354E-1,1.066655427E0
3.857419542E0,6.557900861E-1,2.373764902E-1,-8.612820017E-1,1.108248583E0
3.867474542E0,7.571100542E-1,3.802327394E-1,-9.233273917E-1,1.253126507E0
3.877529542E0,6.115395275E-1,2.884168357E-1,-7.666348761E-1,1.022200518E0
3.887583542E0,4.314818305E-1,1.146697462E-1,-8.501278532E-1,9.602307470E-1
3.897638542E0,2.752369192E-1,-1.456868863E-1,-1.071227449E0,1.115575313E0
3.907693542E0,2.365096405E-1,-2.203827274E-1,-1.204115950E0,1.246756022E0
3.917748542E0,-3.578145146E-2,-3.431245548E-1,-6.728823745E-1,7.561649703E-1
3.927803542E0,-5.240026161E-1,-4.539789927E-1,7.573512518E-1,1.026769977E0
3.937858542E0,-8.367937164E-1,-1.279072577E-1,2.211062618E0,2.367568773E0
3.947913542E0,-9.252626739E-1,5.132136261E-1,2.406315182E0,2.628659734E0
3.957968542E0,-9.145969141E-1,1.137485173E0,1.633396304E0,2.190512159E0
3.968023542E0,-7.128545254E-1,1.781291099E0,8.961747495E-1,2.117613925E0
3.978078542E0,-3.126773719E-1,2.394406743E0,-1.071840676E-1,2.417113819E0
3.988133542E0,2.926948048E-1,2.943983619E0,-1.468086308E0,3.302724209E0
3.998188542E0,8.632567526E-1,2.847653080E0,-2.580454620E0,3.938665552E0
4.008243542E0,1.799693017E0,2.831145805E0,-3.110914901E0,4.575158254E0
4.018298542E0,2.385442669E0,2.464979712E0,-3.073585399E0,4.605799487E0
4.028352542E0,2.693944398E0,2.081721039E0,-3.431803080E0,4.834063641E0
4.038407542E0,3.176379158E0,1.530079511E0,-3.458101809E0,4.938521640E0
4.048462542E0,3.407409373E0,1.162734620E0,-2.520760396E0,4.395068077E0
4.058517542E0,2.962190679E0,9.844056523E-1,-3.081280920E-1,3.136649650E0
4.068572542E0,2.170387194E0,7.139064395E-1,1.434850588E0,2.697969456E0
4.078627542E0,2.176964727E0,1.429392212E0,9.773676512E-1,2.781651495E0
4.088682542E0,1.525308768E0,2.434417486E0,4.824435309E-1,2.913023703E0
4.098737542E0,-1.953548902E-1,3.350524735E0,3.872388732E-1,3.378480943E0
4.108792542E0,-1.648361667E0,4.008597282E0,-3.967487848E-1,4.352396806E0
4.118847542E0,-3.184903522E0,3.894664870E0,-2.513834953E-2,5.031168535E0
4.128902542E0,-2.572388386E0,3.463555507E0,1.619034373E0,4.608109272E0
4.138957542E0,-1.304400961E0,2.880356557E0,2.187417063E0,3.844828887E0
4.149012542E0,-7.748943606E-1,1.986029016E0,9.317105448E-1,2.326554762E0
4.159066542E0,-3.768628429E-1,7.705934411E-1,1.099583521E0,1.394605240E0
4.169121542E0,4.873406471E-1,-1.901496989E-1,1.559422886E0,1.644827514E0
4.179176542E0,9.469763093E-1,-1.338217748E0,5.122751480E-1,1.717561265E0
4.189231542E0,6.980043519E-1,-2.533965747E0,-2.568500572E-1,2.640864335E0
4.199286542E0,7.011560011E-1,-3.292609234E0,-1.148691362E-1,3.368395794E0
4.209341542E0,8.656785232E-1,-4.172940295E0,4.854235643E-1,4.289343312E0
4.219396542E0,9.265825367E-1,-4.637344288E0,-3.230300134E-1,4.740028020E0
4.229451542E0,6.930280790E-2,-4.853781314E0,-1.254187704E0,5.013679559E0
4.239506542E0,-6.901837009E-1,-4.480226095E0,-2.574891579E-1,4.540383252E0
4.249561542E0,-9.477171515E-1,-3.438080943E0,-6.203135669E-2,3.566849626E0
4.259616542E0,-1.522349054E0,-2.816248854E0,-1.316434531E0,3.461474270E0
4.269671167E0,-1.614049914E0,-2.523748907E0,-1.223312359E0,3.235886092E0
4.279726167E0,-1.662833818E0,-2.328297538E0,-1.133025502E0,3.077293051E0
4.289780167E0,-1.806226696E0,-2.602181119E0,-1.810221952E0,3.648383885E0
4.299835167E0,-1.845767322E0,-3.565209936E0,-2.079461090E0,4.521253954E0
4.309890167E0,-1.913898348E0,-4.506736786E0,-1.853741609E0,5.235459989E0
4.319945167E0,-1.909750041E0,-5.115191031E0,-2.644578695E0,6.066804841E0
4.330000167E0,-1.778514110E0,-5.578377049E0,-2.914341744E0,6.540243936E0
4.340055167E0,-1.847204860E0,-5.885989709E0,-2.435712644E0,6.632475913E0
4.350110167E0,-2.066327659E0,-6.173649915E0,-2.525051667E0,6.982803820E0
4.360165167E0,-2.058570012E0,-6.366139669E0,-3.067743446E0,7.360468371E0
4.370220167E0,-1.995559246E0,-6.534366403E0,-3.491158166E0,7.672573644E0
4.380275167E0,-1.935333656E0,-6.779501563E0,-3.501389331E0,7.871904792E0
4.390330167E0,-2.053932146E0,-7.129782525E0,-4.336862893E0,8.594231546E0
4.400385167E0,-2.254534036E0,-7.753172312E0,-4.579327045E0,9.282501862E0
4.410440167E0,-2.257880982E0,-8.395778389E0,-3.564492483E0,9.396421018E0
4.420494167E0,-2.012896387E0,-9.220628144E0,-2.507990661E0,9.765334218E0
4.430549167E0,-1.905213625E0,-1.067241753E1,-7.107194147E-1,1.086441241E1
4.440604167E0,-2.178310902E0,-1.224295510E1,1.447353981E0,1.251917815E1
4.450659167E0,-1.929098185E0,-1.416062315E1,3.312606711E0,1.467031121E1
4.460714167E0,-1.728484309E0,-1.603635613E1,5.703426772E0,1.710793538E1
4.470769167E0,-1.937657632E0,-1.619716626E1,6.095547486E0,1.741431627E1
4.480824167E0,-2.863611301E0,-1.515015914E1,3.762516042E0,1.587085753E1
4.490879167E0,-3.532864308E0,-1.311966907E1,1.653315428E0,1.368723123E1
4.500934167E0,-3.609224559E0,-9.804453916E0,5.837333858E-1,1.046396498E1
4.510989167E0,-3.614157563E0,-5.921865301E0,-1.550481616E0,7.108770412E0
4.521044167E0,-2.491113843E0,-1.883648947E0,-3.965548326E0,5.047707902E0
4.531099167E0,-9.498117703E-1,8.834043574E-1,-4.947166026E0,5.114391200E0
4.541154167E0,1.109976363E0,4.038018132E0,-5.883304083E0,7.221558342E0
4.551208167E0,2.534618004E0,7.554270501E0,-9.506506119E0,1.240423113E1
4.561263167E0,2.760319359E0,9.792671192E0,-1.570375949E1,1.871159625E1
4.571318167E0,3.089363526E0,1.021234925E1,-1.988348022E1,2.256521725E1
4.581373167E0,3.341264792E0,8.482717130E0,-1.484229388E1,1.741878951E1
4.591428167E0,1.623492582E0,6.320638391E0,-6.330419614E0,9.091777072E0
4.601483167E0,1.495551118E0,7.559148833E0,-1.810357023E0,7.915478304E0
4.611538167E0,2.409124185E0,1.005035097E1,-6.395140690E-1,1.035482555E1
4.621593167E0,2.362787047E0,1.110005716E1,-8.659434021E-1,1.138173491E1
4.631648167E0,2.601505766E0,1.148388009E1,-9.396596152E-2,1.177523519E1
4.641703167E0,3.039483268E0,1.228426801E1,2.037086318E0,1.281762146E1
4.651758167E0,3.125816823E0,1.220276952E1,3.394418614E0,1.304608725E1
4.661812167E0,3.473224463E0,1.211284285E1,4.732784296E0,1.346044195E1
4.671867167E0,3.595622474E0,1.188292449E1,5.601402215E0,1.362013591E1
4.681922167E0,3.150502013E0,1.142727670E1,4.739737805E0,1.276610474E1
4.691977167E0,2.587120154E0,1.069720856E1,2.874693528E0,1.137485492E1
4.702032167E0,1.854971863E0,9.688089647E0,1.207719077E0,9.937735506E0
4.712087167E0,1.489317109E0,8.698757715E0,1.197374183E0,8.906186399E0
4.722142167E0,2.211857840E0,8.303575400E0,1.650874801E0,8.750260975E0
4.732197167E0,3.014271244E0,8.237291363E0,2.281233884E0,9.063268073E0
4.742252167E0,3.479190377E0,8.418222926E0,2.720108349E0,9.506325912E0
4.752307167E0,3.307556179E0,8.661629650E0,2.720033505E0,9.662418866E0
4.762362167E0,2.822049584E0,8.810627230E0,2.679260870E0,9.631695326E0
4.772417167E0,2.644330189E0,9.126266947E0,2.284011312E0,9.772304652E0
4.782472167E0,2.465310665E0,9.296680539E0,1.494551829E0,9.733432637E0
4.792526167E0,2.396634825E0,9.499994659E0,4.447778141E-1,9.807730844E0
4.802581167E0,2.425729400E0,9.713840784E0,-3.695509728E-1,1.001895373E1
4.812636167E0,2.540247996E0,9.847744946E0,-6.251948225E-1,1.018929875E1
4.822691167E0,2.611650100E0,9.853491590E0,-1.701549987E-1,1.019514421E1
4.832746167E0,2.797235463E0,9.828308802E0,2.467081348E-1,1.022159699E1
4.842801167E0,3.065330885E0,9.745211681E0,2.918251046E-1,1.022010597E1
4.852856167E0,3.183470954E0,9.667634917E0,1.930843433E-1,1.018012445E1
4.862911167E0,3.180759892E0,9.502524750E0,9.188314676E-3,1.002074321E1
4.872966167E0,3.133981290E0,9.310227368E0,-2.364041714E-1,9.826396049E0
4.883021167E0,2.955787978E0,9.125468802E0,-5.787854719E-1,9.609675127E0
4.893076167E0,2.917895974E0,9.006200221E0,-1.305296170E0,9.556649906E0
4.903131167E0,2.654659587E0,8.825824143E0,-2.383165909E0,9.519551937E0
4.913185167E0,1.708583311E0,8.645473208E0,-4.260026386E0,9.788324102E0
4.923240167E0,5.292042992E-1,8.311759163E0,-7.105758655E0,1.094793148E1
4.933295167E0,-4.058944148E-1,7.451201046E0,-7.795879791E0,1.079170464E1
4.943350167E0,8.213730007E-3,5.353162767E0,-1.972253999E0,5.704928125E0
4.953405167E0,7.136146635E-2,1.038243306E-1,-9.004688716E-1,9.092393190E-1
4.963460167E0,-2.471209336E0,-1.168175571E1,4.558980489E-1,1.194898050E1
4.973515167E0,-3.378292870E0,-2.084948702E1,3.807396930E0,2.146183224E1
4.983570167E0,-9.092156630E0,-3.259925871E1,6.631575778E-1,3.384994474E1
4.993625167E0,-1.109426373E1,-3.799901969E1,8.528077490E0,4.049365742E1
5.003680167E0,-5.613644530E0,-2.629526091E1,-7.870755726E0,2.801611227E1
5.013735167E0,-1.066337423E0,-2.877703441E1,-2.837882967E1,4.043034453E1
5.023790167E0,8.038612331E0,-3.597981475E1,-2.349558891E0,3.694166732E1
5.033844167E0,8.986491596E0,-1.810524955E1,2.127241379E1,2.934403995E1
5.043899167E0,-2.822647462E0,-7.485981454E0,1.536002448E0,8.146567409E0
5.053954167E0,-1.018848793E1,-5.984856185E0,-1.625356148E1,2.009482647E1
5.064009167E0,-1.095920124E1,-5.220837353E0,-3.095208988E-1,1.214318894E1
5.074064167E0,-9.747835327E0,-3.894049158E0,4.086002723E0,1.126407256E1
5.084119167E0,-1.003200708E1,-2.110122719E0,-4.087121880E0,1.103622894E1
5.094174167E0,-1.119172279E1,-1.599825100E0,-5.017040838E0,1.236870236E1
5.104229167E0,-9.623020661E0,-1.141538463E0,1.405609832E0,9.791903580E0
5.114284167E0,-7.728218735E0,-1.277521895E0,3.841654013E0,8.724433080E0
5.124339167E0,-6.478792126E0,-2.167340063E0,3.284802616E0,7.580371930E0
5.134394167E0,-4.491102794E0,-2.067537448E0,2.719214895E0,5.642592050E0
5.144449167E0,-2.519468161E0,-1.973603098E0,2.182030316E0,3.873510720E0
5.154504167E0,-8.078827433E-1,-2.258912723E0,2.471537365E0,3.444395181E0
5.164558167E0,4.883033180E-1,-2.341897577E0,2.893168391E0,3.754110778E0
5.174613167E0,1.874548633E0,-1.749228476E0,2.232240941E0,3.399504738E0
5.184668167E0,3.163896522E0,-6.778922689E-1,1.652894283E0,3.633433451E0
5.194723167E0,3.905861703E0,3.385286433E-1,1.442693897E0,4.177525938E0
5.204778167E0,4.529687693E0,1.666316128E0,1.082923050E0,4.946453514E0
5.214833167E0,4.675133674E0,2.753900578E0,7.306226058E-1,5.474911200E0
5.224888167E0,4.394178470E0,3.460859356E0,3.816161907E-1,5.606423354E0
5.234943167E0,4.026389190E0,4.110907184E0,3.458218753E-1,5.764630131E0
5.244998167E0,3.523829191E0,4.437567734E0,-1.436251581E-1,5.668333771E0
5.255053167E0,3.138739754E0,4.572784595E0,-5.962242079E-1,5.578308839E0
5.265107917E0,2.793718947E0,4.376814578E0,-7.782936394E-1,5.250439257E0
5.275162917E0,2.426127303E0,3.933362328E0,-1.068100358E0,4.743234262E0
5.285216917E0,2.284774081E0,3.568524138E0,-1.328013772E0,4.440515477E0
5.295271917E0,1.878018079E0,3.000866502E0,-1.059644115E0,3.695266880E0
5.305326917E0,1.452682257E0,2.243672540E0,-7.163739645E-1,2.767226746E0
5.315381917E0,1.207743855E0,1.625154653E0,-7.255938542E-1,2.150874080E0
5.325436917E0,1.023234965E0,1.205996999E0,-7.953055286E-1,1.770296427E0
5.335491917E0,8.474027583E-1,7.993804532E-1,-1.086382847E0,1.592899317E0
5.345546917E0,7.153246817E-1,4.146453577E-1,-1.575970799E0,1.779692145E0
5.355601917E0,5.143152416E-1,8.476591587E-2,-2.008696917E0,2.075227393E0
5.365656917E0,-4.915491074E-2,-2.463420260E-1,-1.915884063E0,1.932281641E0
5.375711917E0,-6.483019955E-1,-6.588736153E-1,-1.779241650E0,2.005021388E0
5.385766917E0,-1.095207758E0,-9.928209651E-1,-2.099105980E0,2.567375979E0
5.395820917E0,-1.413144992E0,-1.370095013E0,-2.645416601E0,3.297327419E0
5.405875917E0,-1.584512265E0,-1.222433522E0,-3.377309661E0,3.925715652E0
5.415930917E0,-1.720646994E0,-1.270387123E0,-3.898143378E0,4.446350337E0
5.425985917E0,-1.458722577E0,-1.168851977E0,-3.699336877E0,4.144777416E0
5.436040917E0,-7.990097398E-1,-1.011951301E0,-2.912234407E0,3.184897367E0
5.446095917E0,-1.452039063E-2,-8.719262731E-1,-1.498221542E0,1.733532248E0
5.456150917E0,5.821052286E-1,-6.624065030E-1,2.129561422E-1,9.071820054E-1
5.466205917E0,9.606109929E-1,-4.604226243E-1,1.481065226E0,1.824367473E0
5.476260917E0,1.224074251E0,-1.899713588E-1,1.953034347E0,2.312745133E0
5.486315917E0,1.205591495E0,1.057217520E-1,1.977171654E0,2.318153508E0
5.496370917E0,1.019188107E0,4.088876045E-1,1.856485707E0,2.156959121E0
5.506425917E0,7.364784461E-1,5.777142620E-1,1.721392806E0,1.959425289E0
5.516479917E0,4.480189258E-1,6.258836246E-1,1.532334198E0,1.714788431E0
5.526534917E0,7.621699423E-2,4.795956445E-1,1.255874918E0,1.346492786E0
5.536589917E0,-3.018841428E-1,3.742440212E-1,8.386281341E-1,9.666901108E-1
5.546644917E0,-6.131904888E-1,4.610114390E-1,4.584679367E-1,8.937152631E-1
5.556699917E0,-1.024865753E0,5.584547031E-1,7.155888297E-2,1.169334059E0
5.566754917E0,-1.378366192E0,6.598758280E-1,-2.896938676E-1,1.555394485E0
5.576809917E0,-1.612599219E0,6.454367137E-1,-7.370146358E-1,1.886863897E0
5.586864917E0,-1.757823737E0,5.589768595E-1,-1.110985519E0,2.153297063E0
5.596919917E0,-1.713058770E0,4.066954833E-1,-1.634172814E0,2.402184912E0
5.606974917E0,-1.766112896E0,2.621528971E-1,-1.771726223E0,2.515331532E0
5.617029917E0,-1.828730582E0,1.429609144E-1,-1.420890360E0,2.320263516E0
5.627084917E0,-1.410775554E0,3.225189668E-1,-9.554800612E-1,1.734141948E0
5.637138917E0,-1.052146523E0,1.454915893E-1,-6.922957152E-1,1.267853882E0
5.647193917E0,-7.447990340E-1,-4.267052400E-1,-9.439617041E-1,1.275878780E0
5.657248917E0,-1.509023103E-1,-7.174878591E-1,-1.152793257E0,1.366196409E0
5.667303917E0,6.250734928E-1,-5.540248525E-1,-1.286626595E0,1.533971448E0
5.677358917E0,1.049122635E0,-4.481949270E-1,-1.261374809E0,1.700765535E0
5.687413917E0,1.208345533E0,-3.343484688E-1,-9.505795828E-1,1.573368796E0
5.697468917E0,1.347201118E0,-1.718654555E-1,-9.135373986E-1,1.636777066E0
5.707523917E0,1.374205606E0,-7.918124020E-2,-1.031454688E0,1.720060897E0
5.717578917E0,1.289138851E0,-5.558538616E-2,-8.665485889E-1,1.554308582E0
5.727633917E0,1.098205040E0,-6.037834883E-3,-5.386759845E-1,1.223218125E0
5.737688917E0,7.738868853E-1,2.369291782E-2,-2.904020385E-1,8.269193489E-1
5.747742917E0,3.664350647E-1,-3.118320107E-2,-1.282621837E-1,3.894845779E-1
5.757797917E0,-7.039462924E-3,-1.571848512E-2,-3.976866782E-2,4.333787896E-2
5.767852917E0,-4.018191978E-1,1.109801531E-2,1.625825621E-2,4.023010870E-1
5.777907917E0,-7.697771698E-1,-8.359179497E-3,4.553753078E-2,7.711682266E-1
5.787962917E0,-1.026933036E0,2.766610086E-2,1.354332089E-1,1.036194494E0
5.798017917E0,-1.157634094E0,1.491958004E-1,2.779655224E-1,1.199850371E0
5.808072917E0,-1.114181972E0,2.864638656E-1,4.552104163E-1,1.237206344E0
5.818127917E0,-1.010372552E0,3.707660973E-1,6.280067486E-1,1.246078918E0
5.828182917E0,-8.597611409E-1,3.767992544E-1,7.041346458E-1,1.173444714E0
5.838237917E0,-6.855945137E-1,2.892260903E-1,6.365045071E-1,9.791984253E-1
5.848292917E0,-4.892727864E-1,2.050419724E-1,4.320618743E-1,6.841838445E-1
5.858347917E0,-3.418522006E-1,1.368377101E-1,2.469080365E-1,4.433407995E-1
5.868401917E0,-2.323297584E-1,8.323219121E-2,3.737189412E-2,2.496024294E-1
5.878456917E0,-1.327110377E-1,4.807112932E-2,-2.576669864E-1,2.937947053E-1
5.888511917E0,-2.740443796E-2,7.826088846E-2,-5.561280960E-1,5.622759367E-1
5.898566917E0,7.551415890E-2,1.383673418E-1,-7.170527532E-1,7.341747478E-1
5.908621917E0,1.098396537E-1,1.561890703E-1,-7.513835835E-1,7.752658027E-1
5.918676917E0,8.151866466E-2,1.568971682E-1,-6.678462408E-1,6.908549887E-1
5.928731917E0,3.538384080E-2,1.593553376E-1,-5.433174312E-1,5.673094137E-1
5.938786917E0,-5.248899311E-2,1.235119057E-1,-4.892827997E-1,5.073538640E-1
5.948841917E0,-2.088850549E-1,8.043371379E-2,-4.880408511E-1,5.369231051E-1
5.958896917E0,-3.846810088E-1,-6.831009686E-2,-5.423082749E-1,6.683891178E-1
5.968951917E0,-4.580308208E-1,-2.078737789E-1,-6.468452349E-1,8.193976438E-1
5.979005917E0,-4.879510233E-1,-1.933241522E-1,-4.517797818E-1,6.925138267E-1
5.989060917E0,-4.376915735E-1,-7.967825353E-2,-7.388483226E-2,4.509783876E-1
5.999115917E0,-3.256340709E-1,2.067049205E-2,1.012826190E-1,3.416474591E-1
6.009170917E0,-2.639944777E-1,8.299245536E-2,1.980855399E-1,3.403214848E-1
6.019225917E0,-1.807684261E-1,1.369903225E-1,1.943363784E-1,2.986807665E-1
6.029280917E0,-8.258753568E-2,2.018698579E-1,2.538070931E-1,3.346493405E-1
6.039335917E0,-6.526018918E-2,2.201856762E-1,4.171835610E-1,4.762171226E-1
6.049390917E0,-5.497376740E-2,2.028849345E-1,4.788378453E-1,5.229436814E-1
6.059445917E0,-1.273982576E-1,1.270067865E-1,4.428073025E-1,4.779532895E-1
6.069500917E0,-2.111029038E-1,3.514761329E-2,3.032834546E-1,3.711881524E-1
6.079555917E0,-2.929954979E-1,-2.894079387E-2,8.959871270E-2,3.077529214E-1
6.089610917E0,-3.725266939E-1,-2.780877292E-2,-1.302379578E-1,3.956152060E-1
6.099664917E0,-3.819550368E-1,2.191536427E-2,-2.554302802E-1,4.600158273E-1
6.109719917E0,-3.537182477E-1,4.571820974E-2,-2.823157778E-1,4.548724567E-1
6.119774917E0,-2.357924795E-1,5.162916005E-2,-2.690911301E-1,3.614881739E-1
6.129829917E0,-8.770560354E-2,-1.765098989E-2,-2.803582031E-1,2.942865141E-1
6.139884917E0,4.992732793E-2,-8.131722808E-3,-2.773363620E-1,2.819119023E-1
6.149939917E0,3.477046788E-3,5.786404610E-2,-2.799845660E-1,2.859225330E-1
6.159994917E0,-9.142823339E-2,1.376452106E-1,-2.782344212E-1,3.236042630E-1
6.170049917E0,-2.092253628E-1,1.775536269E-1,-2.571647105E-1,3.760774272E-1
6.180104917E0,-3.093516219E-1,1.427597702E-1,-2.023913565E-1,3.962840384E-1
6.190159917E0,-4.242613962E-1,5.194374025E-2,-1.668819467E-1,4.588523386E-1
6.200214917E0,-5.126084393E-1,-2.611366510E-2,-8.615696847E-2,5.204539930E-1
6.210268917E0,-4.714735696E-1,-1.572316289E-3,3.024289571E-2,4.724451627E-1
6.220323917E0,-3.099851677E-1,8.931855798E-2,5.774118148E-2,3.277234398E-1
6.230378917E0,-1.141741946E-1,1.863566101E-1,9.032888375E-2,2.364822194E-1
6.240433917E0,9.530406028E-2,2.326414150E-1,9.036228597E-2,2.671520814E-1
6.250488917E0,2.248084849E-1,2.078287554E-1,7.753641844E-2,3.158220110E-1
6.260543917E0,2.519316718E-1,1.445051640E-1,1.011948377E-1,3.075576448E-1
6.270599042E0,1.610168239E-1,3.529964089E-2,7.666408695E-2,1.817962169E-1
6.280654042E0,-1.499869287E-2,-6.292831957E-2,-2.550387360E-2,6.953690934E-2
6.290709042E0,-1.570269763E-1,-1.682922220E-1,-2.104963282E-1,3.119109609E-1
6.300764042E0,-2.653220880E-1,-2.005583274E-1,-3.784796711E-1,5.038514806E-1
6.310819042E0,-2.890933585E-1,-2.080468565E-1,-4.585415020E-1,5.806193017E-1
6.320873042E0,-2.036582288E-1,-2.403381050E-1,-5.447260255E-1,6.292579135E-1
6.330928042E0,-1.194703102E-1,-1.832236719E-1,-6.020462805E-1,6.405496022E-1
6.340983042E0,-4.521096379E-2,-6.921992362E-2,-5.633423176E-1,5.693768487E-1
6.351038042E0,-1.803252071E-2,-2.514712036E-2,-5.313387521E-1,5.322390619E-1
6.361093042E0,-1.076793998E-2,-8.668555677E-2,-5.356651070E-1,5.427406758E-1
6.371148042E0,4.430873841E-2,-4.117492318E-2,-5.136037085E-1,5.171531765E-1
6.381203042E0,5.928491950E-2,8.780705273E-2,-2.294891810E-1,2.527648401E-1
6.391258042E0,1.367488325E-2,1.334094876E-1,1.759847458E-1,2.212594056E-1
6.401313042E0,-1.429749477E-1,7.702010930E-2,3.169530022E-1,3.561364044E-1
6.411368042E0,-2.964324912E-1,1.263659316E-1,2.838262597E-1,4.294157848E-1
6.421423042E0,-4.315730470E-1,2.309638488E-1,2.379682285E-1,5.442687499E-1
6.431477042E0,-6.521680284E-1,3.102906847E-1,2.773000362E-1,7.736270137E-1
6.441532042E0,-8.515165669E-1,3.002989626E-1,3.478192842E-1,9.675940187E-1
6.451587042E0,-9.581484380E-1,2.629580587E-1,4.003214335E-1,1.071192149E0
6.461642042E0,-9.247672686E-1,2.305937201E-1,3.752491575E-1,1.024294828E0
6.471697042E0,-8.298233968E-1,2.472927833E-1,2.155822364E-1,8.923207334E-1
6.481752042E0,-6.287812123E-1,2.649028426E-1,1.404559672E-2,6.824489781E-1
6.491807042E0,-4.061259645E-1,2.067353261E-1,-1.179652369E-1,4.707372847E-1
6.501862042E0,-2.065891457E-1,1.044377035E-1,-1.435759684E-1,2.723974444E-1
6.511917042E0,-6.802358329E-3,6.974149525E-2,-8.444483064E-2,1.097318443E-1
6.521972042E0,1.714608282E-1,1.316652632E-1,8.084184945E-2,2.308028634E-1
6.532027042E0,2.887720540E-1,1.851263559E-1,1.513469911E-1,3.749226301E-1
6.542081042E0,3.515404522E-1,1.995175231E-1,7.561151505E-2,4.112238232E-1
6.552136042E0,3.857019326E-1,2.119826174E-1,3.908914827E-2,4.418490380E-1
6.562191042E0,3.399495167E-1,1.806146443E-1,7.028236270E-2,3.913143674E-1
6.572246042E0,2.071653888E-1,1.547190803E-1,1.770319822E-1,3.133621145E-1
6.582301042E0,-4.981243014E-3,6.381709635E-2,2.219894692E-1,2.310341078E-1
6.592356042E0,-2.076586014E-1,-3.622525513E-2,1.030765448E-1,2.346468366E-1
6.602411042E0,-3.817617863E-1,-1.445221210E-1,-4.675199747E-2,4.108703618E-1
6.612466042E0,-4.610570472E-1,-1.777652961E-1,-1.893861987E-1,5.291892228E-1
6.622521042E0,-4.211454150E-1,-1.824687964E-1,-2.760243199E-1,5.355816907E-1
6.632576042E0,-2.783002755E-1,-1.417242283E-1,-3.662966318E-1,4.813626728E-1
6.642630042E0,-1.130515292E-1,-1.781295776E-2,-3.544500268E-1,3.724684835E-1
6.652685042E0,2.261761487E-2,8.084418833E-2,-3.122213622E-1,3.233102509E-1
6.662740042E0,8.790996373E-2,1.614673519E-1,-2.174526876E-1,2.847552261E-1
6.672795042E0,1.004303142E-1,1.728091961E-1,-1.499477524E-1,2.498671541E-1
6.682850042E0,1.400028080E-2,1.046949810E-1,-4.762973763E-2,1.158690589E-1
6.692905042E0,-1.116417655E-1,-3.114870250E-2,6.841827035E-2,1.345926640E-1
6.702960042E0,-2.864676663E-1,-1.744692206E-1,1.653400359E-1,3.739526177E-1
6.713015042E0,-4.342156962E-1,-2.473179263E-1,2.359725007E-1,5.526232428E-1
6.723070042E0,-5.347138381E-1,-1.447180027E-1,2.305071813E-1,5.999964580E-1
6.733125042E0,-5.246706605E-1,-6.282833219E-3,1.791042354E-1,5.544340386E-1
6.743180042E0,-4.537994832E-1,1.196539128E-1,1.097819855E-1,4.819783337E-1
6.753234042E0,-3.386423716E-1,1.973119533E-1,1.020537937E-1,4.050007896E-1
6.763289042E0,-2.256911221E-1,2.262509930E-1,1.703398439E-1,3.621348600E-1
6.773344042E0,-1.647479323E-1,2.631024849E-1,2.585667998E-1,4.040069167E-1
6.783399042E0,-1.403325909E-1,3.228276998E-1,3.349184992E-1,4.858820443E-1
6.793454042E0,-1.088640457E-1,3.203847331E-1,3.854350072E-1,5.128917063E-1
6.803509042E0,-1.010276073E-1,2.587673593E-1,4.320933761E-1,5.136845427E-1
6.813564042E0,-1.613708729E-1,1.973540533E-1,5.481623610E-1,6.045421036E-1
6.823619042E0,-2.241524273E-1,1.384842861E-1,6.577432754E-1,7.085537555E-1
6.833674042E0,-3.352998108E-1,1.146370018E-1,6.285557290E-1,7.215607457E-1
6.843729042E0,-4.626685399E-1,9.759880006E-2,4.824941093E-1,6.755651479E-1
6.853784042E0,-5.751724774E-1,8.948052585E-2,3.146252257E-1,6.616790580E-1
6.863838042E0,-6.317437041E-1,9.814083695E-2,1.322306889E-1,6.528527297E-1
6.873893042E0,-6.535415393E-1,8.037816525E-2,-4.274614312E-2,6.598518211E-1
6.883948042E0,-6.743973881E-1,6.262309492E-2,-1.913542253E-1,7.038110035E-1
6.894003042E0,-6.496209812E-1,-4.018206596E-3,-3.941111058E-1,7.598336192E-1
6.904058042E0,-5.597250107E-1,-6.250030339E-2,-6.136641133E-1,8.329357835E-1
6.914113042E0,-4.772266451E-1,-4.149359643E-2,-7.262263767E-1,8.699837582E-1
6.924168042E0,-3.486989978E-1,-7.396143079E-3,-7.209558427E-1,8.008888944E-1
6.934223042E0,-1.756070888E-1,1.988579571E-2,-6.307091855E-1,6.550018100E-1
6.944278042E0,2.451065093E-2,2.735152066E-2,-5.040470193E-1,5.053832954E-1
6.954333042E0,1.982632953E-1,-3.335778058E-2,-4.085098013E-1,4.553035619E-1
6.964387042E0,3.720679799E-1,-1.022075754E-1,-2.948498692E-1,4.856103536E-1
6.974442042E0,4.475672284E-1,-1.528988421E-1,-2.011482384E-1,5.139602063E-1
6.984497042E0,4.077000350E-1,-1.600879937E-1,-1.011802927E-1,4.495385811E-1
6.994552042E0,3.249058002E-1,-6.988241315E-2,-7.461164117E-2,3.406086136E-1
7.004607042E0,1.725428554E-1,-4.172982395E-2,-1.246480928E-1,2.169091105E-1
7.014662042E0,3.535343528E-2,-7.577991486E-2,-2.255481577E-1,2.405502698E-1
7.024717042E0,-9.670914620E-2,-1.119893825E-1,-3.273283017E-1,3.592187326E-1
7.034772042E0,-1.957144940E-1,-1.084927475E-1,-3.759210026E-1,4.374830736E-1
7.044827042E0,-2.211086592E-1,-7.503673375E-2,-3.884439113E-1,4.532198394E-1
7.054882042E0,-2.194524354E-1,-1.846082926E-2,-4.004875676E-1,4.570453647E-1
7.064937042E0,-2.148796204E-1,4.202335417E-2,-3.887446044E-1,4.461631775E-1
7.074991042E0,-1.610659406E-1,7.424268186E-2,-3.634851444E-1,4.044448828E-1
7.085046042E0,-9.794320107E-2,6.033390999E-2,-2.995382398E-1,3.208678988E-1
7.095101042E0,-6.210737050E-2,4.041536987E-2,-1.943420794E-1,2.079893541E-1
7.105156042E0,-2.300470054E-2,2.068160176E-3,-8.991080783E-2,9.283020467E-2
7.115211042E0,-1.286825985E-2,-4.670171142E-3,-2.006530523E-2,2.429030844E-2
7.125266042E0,-1.425989717E-2,4.541532397E-3,3.999035038E-2,4.269892630E-2
7.135321042E0,-4.068492651E-2,5.405224621E-2,1.460839123E-1,1.609888753E-1
7.145376042E0,-5.878322840E-2,7.636522114E-2,1.885024651E-1,2.117080402E-1
7.155431042E0,-4.480779827E-2,1.008627158E-1,1.224418652E-1,1.648424599E-1
7.165486042E0,5.002292991E-4,8.880341828E-2,1.918646872E-2,9.085382716E-2
7.175541042E0,3.042452484E-2,3.207373202E-2,-1.664901102E-1,1.722594926E-1
7.185595042E0,1.917214304E-2,-1.573485732E-3,-2.815984706E-1,2.822547529E-1
7.195650042E0,-2.163469791E-4,-1.694698513E-2,-3.385467696E-1,3.389707396E-1
7.205705042E0,-2.732433110E-2,2.724393189E-2,-3.339047382E-1,3.361267991E-1
7.215760042E0,-9.242255241E-2,7.901342511E-2,-3.139650750E-1,3.366884582E-1
7.225815042E0,-1.248155424E-1,8.125817120E-2,-2.360632787E-1,2.791194754E-1
7.235870042E0,-9.343645960E-2,2.384436071E-2,-2.192928795E-1,2.395585367E-1
7.245925042E0,-3.184130520E-2,-1.602195561E-2,-2.125025079E-1,2.154713152E-1
7.255980042E0,3.345776796E-2,-4.610354125E-2,-1.908017365E-1,1.991237339E-1
7.266035292E0,7.182778180E-2,-3.161063254E-2,-1.530403447E-1,1.719878177E-1
7.276090292E0,1.347730583E-1,3.618841767E-3,-1.062942676E-1,1.716838506E-1
7.286145292E0,1.760321814E-1,5.561813056E-2,-8.717255674E-2,2.041562146E-1
7.296199292E0,1.828596827E-1,7.510923922E-2,-7.324456215E-2,2.108170469E-1
7.306254292E0,1.536554718E-1,7.923854291E-2,-2.867123723E-2,1.752449444E-1
7.316309292E0,1.038114667E-2,9.121948779E-2,1.220832847E-2,9.261644801E-2
7.326364292E0,-1.564054173E-1,9.826421320E-2,5.689114250E-2,1.932747067E-1
7.336419292E0,-3.092516345E-1,6.572094977E-2,8.168684520E-2,3.265402844E-1
7.346474292E0,-4.289719132E-1,4.828864574E-2,3.817537464E-2,4.333659595E-1
7.356529292E0,-4.845514521E-1,6.388375461E-2,4.918385446E-2,4.912130855E-1
7.366584292E0,-5.254775763E-1,9.427641213E-2,7.553791322E-2,5.391852199E-1
7.376639292E0,-5.268402699E-1,1.409208208E-1,4.865358509E-2,5.475276423E-1
7.386693292E0,-5.215038085E-1,2.178380191E-1,-5.013329610E-3,5.651944429E-1
7.396748292E0,-5.468152356E-1,1.832803899E-1,-7.747334160E-2,5.818940813E-1
7.406803292E0,-5.612005556E-1,1.146732545E-1,-1.203053657E-1,5.852942848E-1
7.416858292E0,-6.102329671E-1,5.889140189E-2,-7.321883440E-2,6.174248692E-1
7.426913292E0,-6.649190515E-1,6.468833148E-2,-2.695507944E-2,6.686019007E-1
7.436968292E0,-7.379627618E-1,1.168829173E-1,-3.136271060E-2,7.478196800E-1
7.447023292E0,-7.547632742E-1,1.459318846E-1,-8.735221244E-2,7.736886480E-1
7.457078292E0,-7.654622170E-1,1.657375735E-1,-1.010785512E-1,7.896950187E-1
7.467133292E0,-7.115757394E-1,1.920132065E-1,-7.238969922E-2,7.405736782E-1
7.477188292E0,-6.522764942E-1,2.023107380E-1,-9.741461277E-4,6.829313352E-1
7.487243292E0,-6.127727053E-1,1.615275782E-1,3.385018922E-2,6.346080540E-1
7.497297292E0,-6.056850028E-1,8.256385446E-2,-4.872411713E-3,6.113058589E-1
7.507352292E0,-5.904877970E-1,-1.762935519E-3,-6.342182457E-2,5.938865836E-1
7.517407292E0,-5.495254201E-1,-9.701407850E-2,-9.345904447E-2,5.657954681E-1
7.527462292E0,-5.084446371E-1,-1.407962751E-1,-1.311284888E-1,5.436305921E-1
7.537517292E0,-4.100412601E-1,-6.614194930E-2,-1.269740421E-1,4.343167045E-1
7.547572292E0,-3.364522970E-1,4.416635871E-2,-3.494815014E-2,3.411336814E-1
7.557627292E0,-2.455929977E-1,1.040927178E-1,-2.847594023E-4,2.667420017E-1
7.567682292E0,-1.397420222E-1,1.397607332E-1,-1.224582374E-2,1.980173111E-1
7.577737292E0,-5.478928775E-2,1.708632427E-1,-1.231496707E-3,1.794369816E-1
7.587792292E0,3.966107905E-2,1.876921141E-1,7.050682269E-2,2.043833235E-1
7.597847292E0,1.291565153E-1,1.921938854E-1,2.062090766E-1,3.100678609E-1
7.607901292E0,1.954969776E-1,1.898023742E-1,2.924128959E-1,3.996865162E-1
7.617956292E0,2.514989778E-1,1.456073642E-1,3.270083859E-1,4.374788278E-1
7.628011292E0,2.728430691E-1,1.209870780E-1,3.445261323E-1,4.558283331E-1
7.638066292E0,2.353021905E-1,6.131448805E-2,3.282573511E-1,4.085088443E-1
7.648121292E0,1.105457050E-1,2.473255277E-2,2.312128671E-1,2.574712450E-1
7.658176292E0,-4.760393679E-2,1.006013453E-2,5.260506034E-2,7.165635686E-2
7.668231292E0,-2.251309589E-1,1.710778356E-2,-2.208762324E-1,3.158527108E-1
7.678286292E0,-3.243014905E-1,5.647006989E-2,-5.308061439E-1,6.245922573E-1
7.688341292E0,-2.629703379E-1,1.275996941E-1,-8.285025108E-1,8.785507902E-1
7.698396292E0,-1.006644952E-1,1.842802638E-1,-9.575779691E-1,9.803306193E-1
7.708450292E0,1.191402349E-1,1.493893433E-1,-9.294032335E-1,9.488424221E-1
7.718505292E0,3.059143361E-1,7.881988227E-2,-8.116221108E-1,8.709343291E-1
7.728560292E0,4.082721850E-1,-4.422833920E-3,-5.836468470E-1,7.122846205E-1
7.738615292E0,3.820389444E-1,-4.061008215E-2,-2.817450895E-1,4.764275698E-1
7.748670292E0,2.861019230E-1,-9.200535357E-2,-5.616893828E-2,3.057355803E-1
7.758725292E0,1.973827046E-1,-1.601219076E-1,9.717144169E-2,2.721052121E-1
7.768780292E0,1.937428129E-1,-1.471282250E-1,1.670415026E-1,2.951031272E-1
7.778835292E0,2.665845019E-1,-1.941228819E-1,1.606510806E-1,3.668238809E-1
7.788890292E0,2.908384600E-1,-2.630451822E-1,1.857789782E-1,4.339281121E-1
7.798945292E0,2.756763375E-1,-2.412298054E-1,2.543000865E-1,4.459347441E-1
7.809000292E0,1.395882404E-1,-1.495092112E-1,2.560969359E-1,3.277552771E-1
7.819054292E0,-7.343079597E-2,-2.703869462E-2,2.522628435E-1,2.641206448E-1
7.829109292E0,-3.499438700E-1,3.729120255E-2,2.646712929E-1,4.403433197E-1
7.839164292E0,-5.841681263E-1,9.027399302E-2,3.068074252E-1,6.659824245E-1
7.849219292E0,-8.270769596E-1,1.611802536E-1,3.260693961E-1,9.035245555E-1
7.859274292E0,-9.883615860E-1,2.412093401E-1,3.268552619E-1,1.068585482E0
7.869329292E0,-1.073037162E0,3.024577546E-1,1.915646520E-1,1.131188075E0
7.879384292E0,-1.022611067E0,3.183727062E-1,1.152187997E-1,1.077204691E0
7.889439292E0,-8.029799992E-1,2.827614087E-1,1.417066866E-1,8.630247264E-1
7.899494292E0,-5.238508809E-1,1.715152073E-1,2.694180626E-1,6.135334581E-1
7.909549292E0,-3.028179431E-1,5.015039921E-2,2.405836149E-1,3.899926217E-1
7.919603292E0,-1.547948018E-1,-2.839758754E-2,8.462024711E-2,1.786853096E-1
7.929658292E0,-2.517694116E-2,-8.437298298E-2,-2.964604117E-2,9.290622358E-2
7.939713292E0,5.676652372E-2,-7.825211763E-2,-1.014667332E-1,1.401475297E-1
7.949768292E0,7.678563595E-2,-2.736555398E-2,-1.488929877E-1,1.697469565E-1
7.959823292E0,7.245460331E-2,-3.216553330E-3,-2.249312034E-1,2.363346399E-1
7.969878292E0,7.804059461E-2,1.033203006E-2,-2.491971483E-1,2.613356156E-1
7.979933292E0,1.830475245E-1,2.778012156E-3,-2.787565776E-1,3.334956419E-1
7.989988292E0,4.116281945E-1,-2.524652302E-2,-2.514226717E-1,4.829995002E-1
8.000043292E0,6.456111069E-1,1.194410741E-2,-4.691681586E-2,6.474237798E-1
8.010098292E0,7.435974312E-1,-7.342933416E-3,1.861233792E-1,7.665722214E-1
8.020153292E0,7.113368806E-1,-5.026851296E-2,2.617165852E-1,7.596200709E-1
8.030207292E0,4.682650562E-1,-8.745095730E-2,2.956948284E-1,5.606739376E-1
8.040262292E0,1.431952415E-1,-1.464669049E-2,3.090347759E-1,3.409133254E-1
8.050317292E0,-1.796242721E-1,1.446893513E-1,2.374542582E-1,3.310353641E-1
8.060372292E0,-4.156407000E-1,3.707181501E-1,1.227142724E-1,5.703051210E-1
8.070427292E0,-6.346915779E-1,5.560883349E-1,-9.422320247E-2,8.490851825E-1
8.080482292E0,-8.020589165E-1,7.054279768E-1,-3.056895107E-1,1.111023498E0
8.090537292E0,-9.422997062E-1,8.844960326E-1,-2.624212843E-1,1.318759606E0
8.100592292E0,-1.069213230E0,1.043360204E0,-1.130325623E-1,1.498196852E0
8.110647292E0,-1.099097910E0,1.049165905E0,-1.561148107E-2,1.519542375E0
8.120702292E0,-9.676413926E-1,9.528324419E-1,1.157409561E-1,1.362943688E0
8.130756292E0,-7.794987506E-1,6.166374224E-1,1.773098345E-1,1.009603284E0
8.140811292E0,-6.352801001E-1,2.368356228E-2,3.445606309E-1,7.230931787E-1
8.150866292E0,-4.342300218E-1,-3.707298446E-1,4.807399446E-1,7.463961574E-1
8.160921292E0,-2.005261678E-1,-5.043632805E-1,4.754534769E-1,7.215601648E-1
8.170976292E0,-8.475071311E-2,-4.285055977E-1,1.777483392E-1,4.715868984E-1
8.181031292E0,-6.184483051E-2,-2.688286632E-1,-1.480117575E-1,3.130512955E-1
8.191086292E0,1.029454941E-1,9.876648903E-2,-4.145506328E-1,4.384117030E-1
8.201141292E0,2.115411526E-1,3.221131700E-1,-5.628196496E-1,6.821088707E-1
8.211196292E0,2.285840321E-1,3.991063821E-1,-5.095222789E-1,6.864033192E-1
8.221251292E0,3.076506668E-1,6.667702800E-1,-3.413393998E-1,8.097802943E-1
8.231305292E0,3.296475998E-1,6.920045239E-1,-1.755544639E-1,7.863568979E-1
8.241360292E0,3.462940380E-1,8.458886218E-1,-3.087528670E-1,9.647670466E-1
8.251415292E0,3.239108965E-1,9.807616675E-1,-8.222202623E-1,1.320173427E0
8.261470292E0,4.889953360E-1,1.217932920E0,-1.562639147E0,2.040666102E0
8.271525833E0,7.835564259E-1,1.403282055E0,-1.803533907E0,2.415759871E0
8.281580833E0,9.058407086E-1,1.453787380E0,-1.181305962E0,2.080752006E0
8.291635833E0,7.553971124E-1,1.148825263E0,8.074515112E-2,1.377295924E0
8.301690833E0,8.288176757E-1,1.642454810E0,-4.288464904E-1,1.889048929E0
8.311745833E0,1.099388517E0,2.043145203E0,-1.500697253E0,2.763184698E0
8.321800833E0,1.799903955E0,2.150692456E0,-1.373765603E0,3.122877554E0
8.331854833E0,2.358187627E0,2.100439146E0,-5.764340141E-1,3.210166610E0
8.341909833E0,2.705995510E0,1.892409831E0,1.118250757E-2,3.302082936E0
8.351964833E0,2.038927460E0,1.631667867E0,3.746474791E-1,2.638167157E0
8.362019833E0,1.267274357E0,1.340052019E0,-3.286515266E-1,1.873428818E0
8.372074833E0,5.342849448E-1,1.618913920E0,4.324717641E-1,1.758799167E0
8.382129833E0,-4.766838773E-1,1.876162173E0,1.317870607E0,2.341793106E0
8.392184833E0,-4.433265352E-1,1.906475308E0,8.829012045E-1,2.147254306E0
8.402239833E0,7.560233492E-1,1.467785615E0,-1.145238581E-1,1.655017108E0
8.412294833E0,1.228603358E0,6.047541261E-1,-1.708790302E-2,1.369483757E0
8.422349833E0,9.708763647E-1,4.055985457E-1,-1.351488588E0,1.712785013E0
8.432403833E0,-1.394993627E-1,8.994058478E-1,-1.392069727E0,1.663204460E0
8.442458833E0,-9.576050855E-1,9.752342945E-1,-2.499509275E-2,1.367009211E0
8.452513833E0,-1.379893193E-1,1.393894351E0,1.154782407E0,1.815352561E0
8.462568833E0,4.072050682E-1,1.216082277E0,1.443076451E0,1.930580668E0
8.472623833E0,8.581125185E-1,7.213967228E-1,4.635690111E-1,1.213122646E0
8.482678833E0,1.236455876E0,2.577698243E-1,2.225473666E-1,1.282495905E0
8.492733833E0,1.490178404E0,-2.297569835E-1,-1.613030452E-1,1.516389996E0
8.502788833E0,1.374923936E0,-8.553207654E-1,-7.140309852E-1,1.769697627E0
8.512843833E0,9.133710453E-1,-9.997896767E-1,-1.353863143E0,1.914881582E0
8.522898833E0,-2.136715856E-1,-1.478287799E0,-1.845430961E0,2.374153701E0
8.532952833E0,-9.740398546E-1,-1.976559450E0,-1.652140138E0,2.754107466E0
8.543007833E0,-1.029565014E0,-2.225790001E0,-1.847916028E0,3.070657729E0
8.553062833E0,-1.099060050E0,-2.308341576E0,-2.302412499E0,3.440563492E0
8.563117833E0,-1.232379344E0,-2.355735013E0,-2.607084594E0,3.723591865E0
8.573172833E0,-1.415689555E0,-2.565044868E0,-2.529383284E0,3.870582888E0
8.583227833E0,-1.574035078E0,-3.083685295E0,-1.898364635E0,3.948479418E0
8.593282833E0,-1.699479635E0,-3.830908585E0,-1.589930441E0,4.482406767E0
8.603337833E0,-2.194309761E0,-4.698228421E0,-1.969552732E0,5.546844471E0
8.613392833E0,-2.957423151E0,-5.251044654E0,-2.319850066E0,6.457671870E0
8.623446833E0,-3.459779668E0,-5.734387195E0,-2.297556971E0,7.080398285E0
8.633501833E0,-3.693331494E0,-6.378901218E0,-2.448059040E0,7.766857236E0
8.643556833E0,-3.842304808E0,-7.023117617E0,-2.422253231E0,8.363898494E0
8.653611833E0,-4.122913272E0,-7.521209759E0,-2.768084754E0,9.012730069E0
8.663666833E0,-3.897508079E0,-7.636810382E0,-3.008054484E0,9.086244208E0
8.673721833E0,-3.044196709E0,-7.420904283E0,-3.001413801E0,8.564195163E0
8.683776833E0,-3.248653375E0,-7.917867327E0,-2.114209923E0,8.815682354E0
8.693831833E0,-2.885451528E0,-7.490225363E0,-1.826654382E0,8.232009035E0
8.703886833E0,-2.794122405E0,-7.337428263E0,-5.535933280E-1,7.870923650E0
8.713941833E0,-2.695158572E0,-7.640263163E0,-1.027385026E-1,8.102348803E0
8.723995833E0,-2.688987129E0,-8.628235617E0,-1.435000277E-1,9.038677663E0
8.734050833E0,-2.441725043E0,-1.026096885E1,-4.775128663E-3,1.054748907E1
8.744105833E0,-1.773914836E0,-1.200721524E1,9.957129979E-1,1.217831828E1
8.754160833E0,-1.755328292E0,-1.384401513E1,3.034501441E0,1.428097095E1
8.764215833E0,-1.969373222E0,-1.528845515E1,4.740370474E0,1.612719455E1
8.774270833E0,-1.527538896E0,-1.510430294E1,3.957615409E0,1.568872404E1
8.784325833E0,-1.291385059E0,-1.279028372E1,2.217050167E0,1.304508890E1
8.794380833E0,-9.233949271E-1,-8.895880803E0,3.603757413E-1,8.950934260E0
8.804435833E0,-4.984824434E-1,-5.492623538E0,1.490864940E-1,5.517211693E0
8.814490833E0,-2.767498863E-1,-3.283881095E0,-1.977095640E-1,3.301447352E0
8.824544833E0,-2.358790183E-1,-1.242990578E0,-1.304687474E0,1.817381054E0
8.834599833E0,8.686471546E-1,1.944619035E0,-3.344342474E0,3.964936021E0
8.844654833E0,2.606139684E0,5.503618643E0,-5.948053810E0,8.512410137E0
8.854709833E0,4.233491721E0,8.267632565E0,-1.096986656E1,1.437407989E1
8.864764833E0,5.094943877E0,9.897138716E0,-1.707932633E1,2.038664258E1
8.874819833E0,5.438198240E0,9.394164149E0,-2.203981874E1,2.456782307E1
8.884874833E0,4.105826246E0,7.554987954E0,-1.893703352E1,2.079776167E1
8.894929833E0,1.571583048E0,6.609169248E0,-1.072872505E1,1.269868232E1
8.904984833E0,2.329194501E-1,7.154834921E0,-5.095452585E0,8.786896566E0
8.915038833E0,-8.475486463E-1,7.958827073E0,-3.744679695E0,8.836509102E0
8.925093833E0,-4.116030514E-2,9.636407277E0,-2.819437925E0,1.004048154E1
8.935148833E0,6.527395937E-1,9.674332318E0,-8.788955694E-1,9.736078892E0
8.945203833E0,1.345176812E0,9.357495675E0,8.223869079E-1,9.489391244E0
8.955258833E0,1.927861499E0,9.679120603E0,1.965308238E0,1.006302450E1
8.965313833E0,2.484153902E0,1.003363729E1,2.690606223E0,1.068102334E1
8.975368833E0,2.808303365E0,1.009976462E1,3.880719261E0,1.117818389E1
8.985423833E0,3.428195055E0,1.015636333E1,4.785291708E0,1.173896308E1
8.995478833E0,3.304023291E0,1.019061164E1,5.075933994E0,1.185454518E1
9.005533833E0,2.898156066E0,1.035271283E1,4.651938354E0,1.171403013E1
9.015587833E0,2.593016194E0,1.033500512E1,3.385120372E0,1.118012092E1
9.025642833E0,2.250616693E0,1.011093397E1,2.209195018E0,1.059135515E1
9.035697833E0,1.943477950E0,9.683006662E0,1.716320347E0,1.002414486E1
9.045752833E0,1.950574131E0,9.463022715E0,1.563561838E0,9.787658758E0
9.055807833E0,2.400707118E0,9.316972132E0,1.302355020E0,9.709041815E0
9.065862833E0,2.253835878E0,9.053887773E0,1.636234542E0,9.472588002E0
9.075917833E0,1.933045348E0,8.741097404E0,2.238245155E0,9.227848585E0
9.085972833E0,1.999920831E0,8.722050099E0,2.419464401E0,9.269716783E0
9.096027833E0,2.054615686E0,8.879047254E0,2.337125080E0,9.408564152E0
9.106081833E0,2.085058922E0,9.363979653E0,1.590641463E0,9.724285367E0
9.116136833E0,2.157268819E0,9.743210179E0,4.516377676E-1,9.989390874E0
9.126191833E0,2.290301161E0,9.970047648E0,-5.218932331E-1,1.024303188E1
9.136246833E0,2.432638470E0,1.003732220E1,-9.472699857E-1,1.037125293E1
9.146301833E0,2.569437296E0,1.003448630E1,-9.005121410E-1,1.039729991E1
9.156356833E0,2.606612139E0,9.875374210E0,-8.459026551E-1,1.024856058E1
9.166411833E0,2.587627984E0,9.580700269E0,-1.061538613E0,9.980606217E0
9.176466833E0,2.604138767E0,9.438593048E0,-1.403099037E0,9.891272130E0
9.186521833E0,2.761008453E0,9.410033492E0,-2.462630886E0,1.011120413E1
9.196575833E0,2.758748505E0,9.209058259E0,-5.902694035E0,1.128092391E1
9.206630833E0,1.855591083E0,8.625688570E0,-1.348799337E1,1.611743425E1
9.216685833E0,-5.723842326E-1,7.205410413E0,-1.927794373E1,2.058845981E1
9.226740833E0,-2.534275650E0,4.737182572E0,-1.123305909E1,1.245170946E1
9.236795833E0,-1.742092388E0,-3.354845828E0,4.083543384E0,5.564638621E0
9.246850833E0,-5.493771932E-1,-1.352921507E1,1.349912998E1,1.911983227E1
9.256905833E0,-7.756139774E0,-2.927089960E1,7.467472093E0,3.118824149E1
9.266959958E0,-1.666044232E1,-4.387459668E1,2.708420935E0,4.700942582E1
9.277014958E0,-6.527400615E0,-4.566583740E1,-1.933806363E1,5.001935995E1
9.287069958E0,1.260843297E1,-4.235246821E1,-3.472340481E1,5.619981305E1
9.297123958E0,1.095802478E1,-3.329155735E1,6.593922633E0,3.566350955E1
9.307178958E0,3.335395357E0,-1.293202256E1,2.501185321E1,2.835409795E1
9.317233958E0,-2.886112556E0,-2.919721767E0,7.803280027E0,8.817346543E0
9.327288958E0,-5.595734509E0,-6.029297948E-1,2.849638502E0,6.308423624E0
9.337343958E0,-1.056120817E1,-5.202744899E0,9.377287331E0,1.505128533E1
9.347398958E0,-1.183101758E1,-3.762773319E0,9.018474112E0,1.534484654E1
9.357453958E0,-9.626481044E0,7.299488604E-1,3.969692248E0,1.043841076E1
9.367508958E0,-9.469416645E0,-1.222454572E0,6.768119958E-1,9.571954934E0
9.377563958E0,-8.996880344E0,-4.640555579E0,-8.373983185E-1,1.015774817E1
9.387617958E0,-9.214904305E0,-5.154555071E0,6.947228944E-1,1.058142425E1
9.397672958E0,-9.129015139E0,-2.795193030E0,-9.474771233E-1,9.594255280E0
9.407727958E0,-5.581564366E0,-1.058169447E0,-4.326757150E0,7.141037095E0
9.417782958E0,-3.072188207E0,-1.428493495E0,-1.321901093E0,3.636805816E0
9.427837958E0,-2.023870003E0,-6.092857182E-1,1.105166004E0,2.385093451E0
9.437892958E0,-8.261035444E-1,6.228290391E-1,1.178092332E0,1.567885398E0
9.447947958E0,4.930268450E-1,1.033132254E0,1.477205333E0,1.868842776E0
9.458002958E0,1.838084666E0,1.578772200E0,3.429017027E-1,2.447173569E0
9.468057958E0,2.417981109E0,2.662182907E0,3.002931154E-1,3.608881604E0
9.478112958E0,2.957847367E0,4.113228528E0,1.162696686E0,5.198016310E0
9.488166958E0,3.408572384E0,4.804417366E0,1.370479760E0,6.048058093E0
9.498221958E0,3.410106109E0,5.101940655E0,1.244410282E0,6.261563628E0
9.508276958E0,3.270659663E0,5.703941327E0,1.314581548E0,6.705243168E0
9.518331958E0,3.142867596E0,6.141742828E0,1.380829332E0,7.036001090E0
9.528386958E0,3.164658122E0,6.388094795E0,1.027585001E0,7.202690266E0
9.538441958E0,3.228010657E0,6.080086863E0,4.288897598E-1,6.897206354E0
9.548496958E0,3.315353733E0,5.553813481E0,-1.470913875E-1,6.469779782E0
9.558551958E0,3.146528830E0,4.262304461E0,-9.044455630E-1,5.374560891E0
9.568606958E0,2.782587018E0,2.296374080E0,-2.106843601E0,4.177907896E0
9.578660958E0,2.388207964E0,1.201778233E-1,-2.896144624E0,3.755746752E0
9.588715958E0,1.946763647E0,-2.100767759E0,-2.963946598E0,4.121661474E0
9.598770958E0,1.444476420E0,-3.987482986E0,-2.487952838E0,4.916954547E0
9.608825958E0,9.206698322E-1,-5.097950515E0,-1.764969181E0,5.472828209E0
9.618880958E0,3.572068428E-1,-5.510892579E0,-1.643963392E0,5.761957079E0
9.628935958E0,-2.777807504E-2,-5.074220760E0,-2.318494096E0,5.578880068E0
9.638990958E0,-4.696626869E-1,-3.737087086E0,-3.451079303E0,5.108458797E0
9.649045958E0,-9.942665429E-1,-1.875401450E0,-4.492135119E0,4.968397577E0
9.659100958E0,-1.311922380E0,-3.782429320E-1,-4.448654639E0,4.653464961E0
9.669154958E0,-1.389383077E0,3.614392036E-1,-2.932712526E0,3.265245227E0
9.679209958E0,-1.083833023E0,6.641840565E-1,-1.186635699E0,1.738947602E0
9.689264958E0,-4.519513245E-1,5.758004683E-1,-2.086421031E-1,7.611423692E-1
9.699319958E0,2.346497874E-1,3.978018683E-1,6.243732888E-1,7.766265852E-1
9.709374958E0,6.193231948E-1,2.944786441E-1,1.388678049E0,1.548775522E0
9.719429958E0,6.532918632E-1,4.147634715E-1,1.584753901E0,1.763594036E0
9.729484958E0,6.065392810E-1,7.377660030E-1,1.306345160E0,1.618247896E0
9.739539958E0,4.554492751E-1,8.906063730E-1,1.195550364E0,1.558831109E0
9.749594958E0,1.694378377E-1,8.550553018E-1,1.273710680E0,1.543427240E0
9.759648958E0,-1.172534846E-1,7.963691372E-1,1.354732624E0,1.575833958E0
9.769703958E0,-3.545663863E-1,7.216727114E-1,1.011263668E0,1.291968665E0
9.779758958E0,-5.814703672E-1,6.722912210E-1,4.296803399E-1,9.872732490E-1
9.789813958E0,-7.964730714E-1,6.158410317E-1,-4.471131921E-2,1.007784020E0
9.799868958E0,-1.087526855E0,5.425800973E-1,-2.504643496E-1,1.240902983E0
9.809923958E0,-1.385807505E0,3.725839967E-1,-1.909098369E-1,1.447662889E0
9.819978958E0,-1.331485264E0,1.671830052E-1,-2.052828777E-1,1.357550818E0
9.830033958E0,-1.055098782E0,-2.218369299E-1,-3.299192029E-1,1.127515740E0
9.840088958E0,-7.328540495E-1,-3.951811463E-1,-4.580113057E-1,9.502723570E-1
9.850142958E0,-4.252008976E-1,-5.180668151E-1,-5.343840551E-1,8.571787134E-1
9.860197958E0,-2.567869073E-1,-6.116228503E-1,-5.303536059E-1,8.492920429E-1
9.870252958E0,-1.794165498E-1,-5.223364520E-1,-5.021752524E-1,7.464620899E-1
9.880307958E0,-1.710037221E-1,-3.216085553E-1,-5.118214772E-1,6.282002550E-1
9.890362958E0,-1.246541592E-1,-1.100820208E-1,-6.306239623E-1,6.521834807E-1
9.900417958E0,-5.508808047E-2,1.210005265E-1,-7.315357947E-1,7.435189594E-1
9.910472958E0,3.557679892E-2,3.114811778E-1,-6.886055374E-1,7.566133880E-1
9.920527958E0,9.102112100E-2,4.422038698E-1,-6.220824227E-1,7.686453328E-1
9.930582958E0,9.062394887E-2,4.764925271E-1,-5.844392178E-1,7.594912954E-1
9.940636958E0,1.365498810E-1,4.674462998E-1,-5.709344885E-1,7.504119558E-1
9.950691958E0,1.784203304E-1,3.763279688E-1,-6.552226869E-1,7.763847782E-1
9.960746958E0,2.633780350E-1,1.668011820E-1,-7.924948452E-1,8.516094781E-1
9.970801958E0,3.566146660E-1,-4.664616287E-2,-9.398182940E-1,1.006284408E0
9.980856958E0,4.462913659E-1,-2.521319389E-1,-1.086805601E0,1.201620952E0
9.990911958E0,4.912975310E-1,-4.377517998E-1,-1.048208715E0,1.237635412E0
1.000096696E1,4.416062844E-1,-5.552258706E-1,-8.517305750E-1,1.108484032E0
1.001102196E1,2.958752516E-1,-6.224127173E-1,-7.316919154E-1,1.005143181E0
1.002107696E1,6.666088969E-2,-6.555488884E-1,-6.597648040E-1,9.324578360E-1
1.003113096E1,-1.533866461E-1,-6.591928732E-1,-6.402590042E-1,9.316621168E-1
1.004118596E1,-2.457473642E-1,-4.335575920E-1,-6.209778106E-1,7.962269739E-1
1.005124096E1,-2.076257108E-1,-5.846163154E-2,-5.290561453E-1,5.713375561E-1
1.006129596E1,-1.682463214E-1,3.048311394E-1,-3.687569940E-1,5.071593131E-1
1.007135096E1,-1.995811115E-1,5.261909366E-1,-2.200389111E-1,6.042571011E-1
1.008140596E1,-2.995664527E-1,6.407981175E-1,-1.897064799E-1,7.323597719E-1
1.009146096E1,-4.216718106E-1,6.112790340E-1,-2.673336033E-1,7.892632189E-1
1.010151596E1,-4.543637395E-1,4.727736980E-1,-3.581565768E-1,7.471529366E-1
1.011157096E1,-3.118562767E-1,3.187229544E-1,-4.552660380E-1,6.372643284E-1
1.012162496E1,-1.030963522E-1,2.054273039E-1,-4.254575173E-1,4.835735043E-1
1.013167996E1,1.511604649E-1,1.394987780E-1,-3.350461147E-1,3.931479291E-1
1.014173496E1,4.030918443E-1,7.534195840E-2,-2.344903046E-1,4.723824178E-1
1.015178996E1,5.683522850E-1,-1.283522308E-2,-2.929221153E-2,5.692513474E-1
1.016184496E1,5.916587019E-1,-1.291813660E-1,2.051027834E-1,6.393864220E-1
1.017189996E1,4.869265911E-1,-2.919438761E-1,4.668767810E-1,7.350528284E-1
1.018195496E1,3.736598843E-1,-3.070934272E-1,5.797986482E-1,7.550460613E-1
1.019200996E1,2.497752187E-1,-1.888381684E-1,4.598226269E-1,5.563131869E-1
1.020206496E1,1.388427204E-1,8.079097867E-3,2.314771613E-1,2.700449019E-1
1.021211896E1,2.397183001E-2,1.482807112E-1,6.644775867E-3,1.503528217E-1
1.022217396E1,-1.706942582E-1,1.431725836E-1,-1.408214182E-1,2.635632567E-1
1.023222896E1,-3.745036376E-1,9.711348116E-2,-1.565581027E-1,4.173660771E-1
1.024228396E1,-5.810094604E-1,7.649853766E-2,-2.191729385E-1,6.256682797E-1
1.025233896E1,-7.792370877E-1,1.515750325E-1,-3.021360116E-1,8.493948427E-1
1.026239396E1,-9.557936181E-1,2.520196724E-1,-3.525520205E-1,1.049451420E0
1.027244904E1,-1.062746648E0,3.413721442E-1,-4.110955131E-1,1.189522971E0
1.028250404E1,-1.216454160E0,3.158724368E-1,-4.147083615E-1,1.323449713E0
1.029255904E1,-1.350958685E0,2.262176639E-1,-2.771615303E-1,1.397527214E0
1.030261304E1,-1.435360465E0,1.311050999E-1,-5.624612153E-2,1.442432611E0
1.031266804E1,-1.457272613E0,5.566256940E-2,1.179573432E-2,1.458382985E0
1.032272304E1,-1.450935986E0,-2.575289190E-2,-5.118579492E-2,1.452066952E0
1.033277804E1,-1.313239173E0,-4.788109481E-2,-5.010596037E-2,1.315066665E0
1.034283304E1,-1.058756508E0,-7.857663810E-2,1.479860115E-1,1.071932596E0
1.035288804E1,-7.040021333E-1,-8.045417905E-2,3.132177278E-1,7.747239661E-1
1.036294304E1,-2.592898080E-1,-5.370667577E-3,2.937716427E-1,3.918696551E-1
1.037299804E1,1.901347885E-1,1.235493279E-1,1.933808702E-1,2.980131460E-1
1.038305304E1,5.972503942E-1,1.602014297E-1,1.257706120E-1,6.310235957E-1
1.039310704E1,8.663480294E-1,1.212285680E-1,1.073354374E-1,8.813490624E-1
1.040316204E1,9.017988208E-1,5.757519364E-2,1.289708662E-1,9.127921453E-1
1.041321704E1,7.541890776E-1,2.241997898E-2,1.025337770E-1,7.614571529E-1
1.042327204E1,5.522513920E-1,-5.149642825E-3,2.939738832E-2,5.530572531E-1
1.043332704E1,4.024015805E-1,1.698733091E-2,-3.661467969E-2,4.044208652E-1
1.044338204E1,2.663397959E-1,3.392554522E-2,-4.560835518E-2,2.723379363E-1
1.045343704E1,1.831666616E-1,4.741565645E-2,-1.262647748E-2,1.896251521E-1
1.046349204E1,9.981489480E-2,1.111848056E-2,-9.100021720E-3,1.008436623E-1
1.047354704E1,3.274703890E-2,-2.100378335E-2,-3.083119869E-2,4.963960399E-2
1.048360104E1,-3.353115052E-2,-4.474406362E-2,-1.232066810E-2,5.725528924E-2
1.049365604E1,-7.750864416E-2,-3.461142361E-2,6.164719462E-3,8.510901439E-2
1.050371104E1,-1.360702631E-1,-6.038302660E-2,-9.304162636E-3,1.491569437E-1
1.051376604E1,-2.153740025E-1,-9.583294094E-2,-2.434144713E-2,2.369861168E-1
1.052382104E1,-2.575903147E-1,-9.533008039E-2,-3.461142361E-2,2.768366759E-1
1.053387604E1,-2.383766565E-1,-2.932203233E-2,-1.411250348E-1,2.785668455E-1
1.054393104E1,-1.881464428E-1,2.584820151E-2,-3.088388211E-1,3.625584516E-1
1.055398604E1,-1.333726501E-1,4.099716783E-2,-4.686350387E-1,4.889660838E-1
1.056404104E1,-1.299148992E-1,4.277238250E-2,-5.720383698E-1,5.881626087E-1
1.057409504E1,-1.524705335E-1,2.898581743E-2,-5.627101605E-1,5.837209658E-1
1.058415004E1,-1.923377270E-1,-2.077164888E-2,-5.007163721E-1,5.367887368E-1
1.059420504E1,-2.852160698E-1,-6.237985075E-2,-3.788213678E-1,4.782730192E-1
1.060426004E1,-3.437966922E-1,-6.514382958E-2,-2.376777680E-1,4.230018978E-1
1.061431504E1,-4.262757620E-1,-3.406295478E-2,-1.331715059E-1,4.478905672E-1
1.062437004E1,-4.843862683E-1,-1.421633542E-2,-1.280002284E-1,5.012147439E-1
1.063442504E1,-5.171835932E-1,2.406889379E-2,-1.011813891E-1,5.275375382E-1
1.064448004E1,-5.406525627E-1,7.932917476E-2,-8.321874261E-2,5.527419566E-1
1.065453504E1,-5.484834462E-1,1.257642531E-1,-1.491507769E-2,5.629149116E-1
1.066458904E1,-5.085911098E-1,1.799948394E-1,1.398461026E-1,5.573329271E-1
1.067464404E1,-4.331398085E-1,2.365204579E-1,2.650561859E-1,5.601846145E-1
1.068469904E1,-3.557872850E-1,2.507853252E-1,3.670743115E-1,5.694044447E-1
1.069475404E1,-2.624537364E-1,2.726562506E-1,4.438486185E-1,5.832880856E-1
1.070480904E1,-1.846015683E-1,2.376384455E-1,4.587788989E-1,5.486600477E-1
1.071486404E1,-1.367131644E-1,2.005384469E-1,4.085396951E-1,4.751955813E-1
1.072491904E1,-7.741859704E-2,1.319090921E-1,3.363265818E-1,3.694715380E-1
1.073497404E1,-4.821935624E-2,4.654617548E-2,2.571786708E-1,2.657677961E-1
1.074502804E1,-3.594575822E-2,3.865477324E-2,1.823810150E-1,1.898660677E-1
1.075508304E1,5.366223693E-2,3.566743076E-2,1.310793722E-1,1.460602721E-1
1.076513804E1,1.755272743E-1,7.522267520E-2,2.234118775E-2,1.922690915E-1
1.077519304E1,2.889351913E-1,1.079963189E-1,-8.764566958E-2,3.206688527E-1
1.078524804E1,3.530820706E-1,1.091078746E-1,-1.658258665E-1,4.050551751E-1
1.079530304E1,3.485636348E-1,8.114415050E-2,-2.146653199E-1,4.173274257E-1
1.080535804E1,2.869100082E-1,4.371787727E-2,-2.156248480E-1,3.615559164E-1
1.081541304E1,1.538960847E-1,-1.511622190E-2,-2.285682446E-1,2.759636706E-1
1.082546804E1,1.384532958E-2,-6.323939145E-2,-2.285156196E-1,2.375085308E-1
1.083552204E1,-8.283399582E-2,-7.797963738E-2,-2.059822047E-1,2.353103554E-1
1.084557704E1,-1.631115890E-1,-6.234886050E-2,-1.676484436E-1,2.420718313E-1
1.085563204E1,-2.215065622E-1,-5.581752062E-2,-1.228242731E-1,2.593579665E-1
1.086568704E1,-1.914083120E-1,3.413136721E-2,-1.122145003E-1,2.244864945E-1
1.087574204E1,-1.517954725E-1,1.126968956E-1,-1.592851710E-1,2.472129071E-1
1.088579704E1,-1.364515015E-1,8.327078283E-2,-2.065072846E-1,2.611480311E-1
1.089585204E1,-1.661185196E-1,6.126127839E-3,-1.817383330E-1,2.462959879E-1
1.090590704E1,-2.277703920E-1,-3.508972585E-2,-1.253906161E-1,2.623612908E-1
1.091596204E1,-2.732526666E-1,3.484940529E-3,-5.229106486E-2,2.782328523E-1
1.092601604E1,-2.919997171E-1,3.769875348E-2,3.215968609E-4,2.944233928E-1
1.093607104E1,-3.180440927E-1,3.837995410E-2,1.615483359E-2,3.207585453E-1
1.094612604E1,-3.086672053E-1,-2.284857988E-2,1.508596256E-2,3.098791498E-1
1.095618104E1,-2.545623341E-1,-4.610120237E-2,-5.009543538E-2,2.635087389E-1
1.096623604E1,-1.354332089E-1,-3.894888818E-2,-1.193686417E-1,1.846836284E-1
1.097629104E1,-2.623148650E-2,-3.314026415E-2,-1.474638551E-1,1.534012926E-1
1.098634604E1,5.438582987E-2,-3.291397691E-3,-1.139214487E-1,1.262804350E-1
1.099640104E1,6.017749697E-2,9.211703539E-2,-4.232287779E-2,1.178902258E-1
1.100645604E1,3.086832851E-2,1.622964871E-1,-3.652938344E-2,1.691963335E-1
1.101651004E1,-1.785447299E-3,1.345877016E-1,-7.983437419E-2,1.564946150E-1
1.102656504E1,-5.229135722E-2,5.068541944E-2,-9.190419674E-2,1.172594523E-1
1.103662004E1,-4.240897804E-2,-2.592129171E-2,-4.922595441E-2,6.995448070E-2
1.104667504E1,-6.161942035E-2,-9.879455566E-3,-1.587796792E-2,6.439461524E-2
1.105673004E1,-1.175378054E-2,3.572356403E-2,-1.679203391E-2,4.118612372E-2
1.106678504E1,2.644900292E-2,7.818838298E-2,5.908757597E-3,8.275195711E-2
1.107684004E1,-1.531941265E-2,1.347356361E-1,8.593550518E-2,1.605406089E-1
1.108689504E1,-3.981983095E-2,1.722852856E-1,1.691821682E-1,2.447252431E-1
1.109694904E1,-1.230628395E-1,8.815320790E-2,2.202296765E-1,2.672387714E-1
1.110700404E1,-2.712306994E-1,-2.661886454E-2,2.597837515E-1,3.765132850E-1
1.111705904E1,-4.489196894E-1,-9.195682168E-2,2.904393876E-1,5.425310889E-1
1.112711404E1,-5.433607006E-1,-4.739986897E-2,2.610822719E-1,6.046912859E-1
1.113716904E1,-5.309160715E-1,4.631988823E-2,1.358290654E-1,5.499699465E-1
1.114722404E1,-4.332134834E-1,1.080331564E-1,4.376246229E-2,4.486203720E-1
1.115727904E1,-3.232457757E-1,1.028121775E-1,2.655103683E-2,3.402398168E-1
1.116733404E1,-2.036959434E-1,8.389526546E-2,4.623627305E-2,2.250960814E-1
1.117738904E1,-5.208348870E-2,9.219304919E-2,6.691202760E-2,1.252576048E-1
1.118744304E1,4.053319126E-2,8.246620595E-2,9.124521554E-2,1.294963477E-1
1.119749804E1,6.117941737E-2,5.284830451E-2,1.512627912E-1,1.715117966E-1
1.120755304E1,3.640417993E-2,3.459563613E-2,1.969893332E-1,2.032902352E-1
1.121760804E1,-2.939307600E-2,6.522569060E-3,1.685274263E-1,1.711957658E-1
1.122766304E1,-1.004940489E-1,1.776910365E-2,7.739447728E-2,1.280808339E-1
1.123771804E1,-1.725861248E-1,2.602478743E-2,-3.817647099E-3,1.745790207E-1
1.124777304E1,-1.878482348E-1,2.513425648E-2,-8.195092008E-2,2.064815814E-1
1.125782804E1,-1.582271174E-1,1.630554557E-2,-1.643545608E-1,2.287227867E-1
1.126788317E1,-6.728537232E-2,8.392508626E-3,-2.418466866E-1,2.511724016E-1
1.127793717E1,4.813369453E-2,-2.729714155E-2,-2.813773727E-1,2.867668258E-1
1.128799217E1,1.203380370E-1,-4.079543889E-2,-2.481394601E-1,2.787807429E-1
1.129804717E1,1.772185814E-1,-3.607732058E-2,-2.230513966E-1,2.871583608E-1
1.130810217E1,1.502167243E-1,-3.033710897E-2,-1.821277575E-1,2.380250501E-1
1.131815717E1,7.199881285E-2,-1.037413001E-2,-1.311740971E-1,1.499936511E-1
1.132821217E1,-6.515201569E-2,8.174407482E-3,-5.488255084E-2,8.557862158E-2
1.133826717E1,-1.556230599E-1,2.361631930E-2,4.333196104E-2,1.632603018E-1
1.134832217E1,-1.702890462E-1,6.667813897E-2,1.172787738E-1,2.172524896E-1
1.135837617E1,-1.580686578E-1,1.110310239E-1,1.956012042E-1,2.749062020E-1
1.136843117E1,-1.388029593E-1,1.516340894E-1,2.446773237E-1,3.195718250E-1
1.137848617E1,-1.227918211E-1,1.502377743E-1,2.101496615E-1,2.860281461E-1
1.138854117E1,-1.145320442E-1,1.354419798E-1,1.586934328E-1,2.380036232E-1
1.139859617E1,-9.760903269E-2,6.690033317E-2,9.530610681E-2,1.519421990E-1
1.140865117E1,-1.209271440E-1,1.044897437E-3,5.846280098E-2,1.343218711E-1
1.141870617E1,-1.536312059E-1,-4.272677422E-2,1.938001156E-2,1.606353308E-1
1.142876117E1,-1.801641163E-1,-1.541969240E-2,-6.810135126E-2,1.932218149E-1
1.143881617E1,-1.558499318E-1,3.194743216E-2,-1.785622716E-1,2.391533494E-1
1.144887017E1,-1.348633978E-1,7.640556693E-2,-2.475138080E-1,2.920428597E-1
1.145892517E1,-1.111678487E-1,4.923940301E-2,-2.535767859E-1,2.812187685E-1
1.146898017E1,-1.174693930E-1,-9.885302782E-3,-2.501031013E-1,2.764929272E-1
1.147903517E1,-1.452781659E-1,-4.519254506E-2,-2.182065399E-1,2.660116646E-1
1.148909017E1,-1.550655279E-1,-5.783481002E-2,-1.996239424E-1,2.593065783E-1
1.149914517E1,-1.017172864E-1,-4.399445057E-2,-2.330073045E-1,2.580200031E-1
1.150920017E1,-3.034441799E-2,-3.877171755E-2,-2.567401296E-1,2.614182930E-1
1.151925517E1,2.776696533E-2,-6.276225865E-2,-2.367691107E-1,2.465151461E-1
1.152930917E1,3.962921172E-2,-5.241151750E-2,-1.518982373E-1,1.655008039E-1
1.153936417E1,2.422530681E-2,-2.057050467E-2,-1.367866932E-1,1.404300915E-1
1.154941917E1,4.838863313E-3,-5.003462434E-3,-1.304238993E-1,1.306095048E-1
1.155947417E1,7.023675442E-3,2.884782314E-2,-1.308482610E-1,1.341744995E-1
1.156952917E1,-3.071045369E-2,1.662889659E-2,-1.289065468E-1,1.335535473E-1
1.157958417E1,-5.050181687E-2,2.136514127E-2,-1.489339183E-1,1.587079544E-1
1.158963917E1,-8.227821797E-2,1.481859863E-2,-1.634670997E-1,1.836049800E-1
1.159969417E1,-1.193010333E-1,3.512948692E-2,-1.873746834E-1,2.248912835E-1
1.160974917E1,-1.430088615E-1,4.170701981E-2,-2.084451981E-1,2.562038458E-1
1.161980317E1,-1.529523441E-1,2.087514460E-2,-1.804088223E-1,2.374395384E-1
1.162985817E1,-1.596441901E-1,2.299066722E-2,-1.351753467E-1,2.104452721E-1
1.163991317E1,-1.319412518E-1,5.606251895E-2,-1.172203016E-1,1.851812600E-1
1.164996817E1,-1.128670496E-1,5.956149280E-2,-1.109854156E-1,1.691280721E-1
1.166002317E1,-8.526848406E-2,4.755189657E-2,-6.938189149E-2,1.197737204E-1
1.167007817E1,-5.316990137E-2,3.906466305E-2,-4.869736612E-2,8.200316932E-2
1.168013317E1,-2.927145392E-2,4.524750888E-2,-3.966641463E-2,6.691471829E-2
1.169018817E1,-3.958009511E-2,6.795166254E-2,-7.405498624E-3,7.898641517E-2
1.170024217E1,-7.000461996E-2,6.476785362E-2,-2.737081647E-2,9.922037730E-2
1.171029717E1,-1.567454329E-1,5.434168339E-2,-4.823017359E-2,1.727666025E-1
1.172035217E1,-2.967216361E-1,-1.686336994E-3,-7.816090107E-2,3.068480072E-1
1.173040717E1,-4.310351032E-1,-5.457147896E-2,-1.168858409E-1,4.499240006E-1
1.174046217E1,-5.019314235E-1,-9.105050325E-2,-1.752262889E-1,5.393789024E-1
1.175051717E1,-4.812813967E-1,-5.641042829E-2,-1.685647023E-1,5.130574803E-1
1.176057217E1,-3.863992131E-1,2.061494350E-2,-1.091096288E-1,4.020376088E-1
1.177062717E1,-2.534870312E-1,7.635586560E-2,-5.474601835E-3,2.647940038E-1
1.178068117E1,-1.304317930E-1,6.475440502E-2,2.643657759E-2,1.480016157E-1
1.179073617E1,-4.661663443E-2,5.999243259E-4,5.056036212E-2,6.877369215E-2
1.180079117E1,8.832219243E-4,-5.669752657E-2,6.472933508E-2,8.605391578E-2
1.181084617E1,1.344099462E-2,-2.765148282E-2,6.707925797E-2,7.378950933E-2
1.182090117E1,-1.587285161E-2,6.231260777E-2,8.063770853E-2,1.031370377E-1
1.183095617E1,-4.685958624E-2,1.255835742E-1,4.479953907E-2,1.413295922E-1
1.184101117E1,-1.033498290E-1,1.360606152E-1,9.159590229E-3,1.711069147E-1
1.185106617E1,-1.789291844E-1,1.096826559E-1,-1.361473002E-2,2.103123841E-1
1.186112117E1,-1.935156485E-1,7.961919665E-2,2.394010887E-2,2.106196845E-1
1.187117517E1,-2.163993117E-1,4.199587226E-2,1.233685758E-1,2.526106112E-1
1.188123017E1,-2.124217433E-1,2.621657610E-2,2.120311493E-1,3.012764746E-1
1.189128517E1,-2.106512064E-1,1.753696918E-2,2.142992842E-1,3.010077395E-1
1.190134017E1,-2.151629180E-1,9.314614534E-3,1.882926963E-1,2.860698914E-1
1.191139517E1,-2.003843728E-1,2.205628216E-2,1.506371391E-1,2.516583480E-1
1.192145017E1,-1.882765433E-1,1.167887771E-1,1.138582257E-1,2.491011256E-1
1.193150517E1,-2.076302424E-1,1.682267332E-1,3.360811450E-2,2.693326135E-1
1.194156017E1,-2.427687925E-1,1.586887550E-1,-6.379655801E-2,2.969660055E-1
1.195161417E1,-2.208221456E-1,1.348239291E-1,-1.156110748E-1,2.833828373E-1
1.196166917E1,-1.869389927E-1,9.224567413E-2,-8.201487400E-2,2.240131491E-1
1.197172417E1,-1.176024172E-1,6.208924413E-2,-2.435950041E-3,1.330087840E-1
1.198177917E1,-4.162369698E-2,3.540839911E-2,9.606741428E-2,1.105225541E-1
1.199183417E1,2.056670398E-2,5.372655630E-2,1.448039567E-1,1.558130869E-1
1.200188917E1,7.038381189E-2,5.066378474E-2,1.341305224E-1,1.597238151E-1
1.201194417E1,9.254855990E-2,5.113097727E-2,1.149842533E-1,1.562081665E-1
1.202199917E1,4.499783278E-2,4.892189920E-2,6.899590217E-2,9.580496695E-2
1.203205317E1,-1.427276105E-2,5.088597894E-2,4.039782822E-2,6.652126792E-2
1.204210817E1,-8.672064006E-2,5.783890307E-2,1.848655701E-2,1.058657684E-1
1.205216317E1,-1.383047765E-1,9.178257465E-2,2.063365459E-2,1.672662546E-1
1.206221817E1,-1.673221689E-1,7.926485538E-2,1.959986687E-3,1.851579517E-1
1.207227317E1,-2.125328404E-1,2.780467987E-2,-5.240347758E-3,2.144079516E-1
1.208232817E1,-1.896629182E-1,5.637885332E-3,-4.791917481E-2,1.957039999E-1
1.209238317E1,-1.921725431E-1,-2.591719866E-2,-8.932265103E-2,2.134959566E-1
1.210243817E1,-2.335758001E-1,-2.590258062E-2,-1.116555065E-1,2.601836855E-1
1.211249217E1,-2.218249431E-1,-8.225862980E-3,-1.658387303E-1,2.770856451E-1
1.212254717E1,-1.964737549E-1,1.107053339E-2,-2.328162467E-1,3.048407746E-1
1.213260217E1,-1.768791506E-1,2.772515774E-2,-3.103118078E-1,3.582573605E-1
1.214265717E1,-1.213276783E-1,2.811458230E-2,-3.142276881E-1,3.380086910E-1
1.215271217E1,-9.946932435E-2,3.167612135E-2,-2.708020985E-1,2.902262905E-1
1.216276717E1,-6.451116085E-2,6.348322034E-3,-2.053863734E-1,2.153730565E-1
1.217282217E1,-6.182728887E-2,1.607399583E-3,-1.154227944E-1,1.309489170E-1
1.218287717E1,-4.576411039E-2,4.322144866E-2,-1.230422281E-2,6.413923388E-2
1.219293217E1,-1.568837196E-2,9.391856253E-2,4.122060455E-2,1.037591425E-1
1.220298617E1,-1.186663181E-2,1.188107443E-1,8.942146897E-2,1.491744248E-1
1.221304117E1,2.084970921E-2,1.423504651E-1,1.247059802E-1,1.903941879E-1
1.222309617E1,2.277344316E-2,1.377001745E-1,1.475240815E-1,2.030845203E-1
1.223315117E1,-1.920810342E-3,1.004785538E-1,1.410306754E-1,1.731741340E-1
1.224320617E1,-6.400800794E-2,3.648662567E-2,1.669327444E-1,1.824687373E-1
1.225326117E1,-1.139432296E-1,-4.317584038E-3,1.788593102E-1,2.121140116E-1
1.226331617E1,-1.726931289E-1,-1.741300821E-2,1.819080484E-1,2.514292499E-1
1.227337121E1,-1.644049931E-1,-1.326148510E-2,1.056550938E-1,1.958771747E-1
1.228342521E1,-1.544050848E-1,1.712883353E-2,1.376091041E-2,1.559605393E-1
1.229348021E1,-9.821655840E-2,6.420184314E-2,-2.638914205E-2,1.202695133E-1
1.230353521E1,-5.899489760E-2,8.818478286E-2,-3.845589481E-2,1.128530448E-1
1.231359021E1,-4.908854485E-2,6.260847688E-2,-3.998326063E-2,8.904025911E-2
1.232364521E1,-5.142275333E-2,6.046079457E-2,-4.720815338E-2,9.234942873E-2
1.233370021E1,-1.001449701E-1,1.029647899E-1,-1.020801792E-1,1.762132968E-1
1.234375521E1,-1.272988549E-1,1.194936991E-1,-1.681747661E-1,2.424180161E-1
1.235381021E1,-1.488908681E-1,1.268015492E-1,-2.022972894E-1,2.813739803E-1
1.236386421E1,-1.509487957E-1,1.128781593E-1,-2.224742764E-1,2.915850158E-1
1.237391921E1,-1.572070706E-1,1.023408920E-1,-2.352757318E-1,3.009026274E-1
1.238397421E1,-1.391169548E-1,4.714200675E-2,-2.099513678E-1,2.562332389E-1
1.239402921E1,-1.121080810E-1,-9.321046472E-3,-2.161194494E-1,2.436446595E-1
1.240408421E1,-8.848737627E-2,-5.603679121E-2,-2.180666453E-1,2.419156868E-1
1.241413921E1,-7.977063954E-2,-9.535756230E-2,-2.026772853E-1,2.377698501E-1
1.242419421E1,-8.057200044E-2,-1.489560646E-1,-2.206500913E-1,2.781478370E-1
1.243424921E1,-5.933257431E-2,-1.746259260E-1,-2.522933952E-1,3.125164406E-1
1.244430321E1,-5.888029218E-2,-1.955735761E-1,-2.365012351E-1,3.124879945E-1
1.245435821E1,-5.165021002E-2,-1.831780636E-1,-2.095519298E-1,2.830794208E-1
1.246441321E1,-1.024625140E-1,-1.247521001E-1,-1.787553028E-1,2.408632632E-1
1.247446821E1,-1.649496612E-1,-2.580493212E-2,-1.545944615E-1,2.275384205E-1
1.248452321E1,-2.371043023E-1,3.015409112E-3,-1.498026683E-1,2.804788447E-1
1.249457821E1,-2.784362233E-1,-2.036468267E-2,-1.876535956E-1,3.363856755E-1
1.250463321E1,-3.271210179E-1,-7.299664021E-2,-2.592538476E-1,4.237324950E-1
1.251468821E1,-3.468422145E-1,-5.348857462E-2,-2.622213095E-1,4.380873937E-1
1.252474321E1,-3.358006248E-1,6.916379035E-2,-1.503465325E-1,3.743658229E-1
1.253479721E1,-2.967757228E-1,1.384158736E-1,5.820084572E-2,3.325990411E-1
1.254485221E1,-2.710356948E-1,1.766554946E-1,2.530183037E-1,4.107137368E-1
1.255490721E1,-3.019958246E-1,1.419130933E-1,2.765995397E-1,4.334144777E-1
1.256496221E1,-3.487744269E-1,2.631247044E-2,2.469266745E-1,4.281456872E-1
1.257501721E1,-3.393226951E-1,-5.088948727E-2,1.626661042E-1,3.797234425E-1
1.258507221E1,-3.009523889E-1,-2.906943262E-2,2.090620063E-1,3.675925663E-1
1.259512721E1,-3.203671914E-1,-6.101569533E-2,2.902640442E-1,4.365905035E-1
1.260518221E1,-2.719803125E-1,-1.498232067E-2,3.437204591E-1,4.385675710E-1
1.261523621E1,-1.554724941E-1,1.272389209E-1,3.804117373E-1,4.302028932E-1
1.262529121E1,-1.387664142E-1,1.642746001E-1,4.403824621E-1,4.900805800E-1
1.263534621E1,-1.176980191E-1,2.220924532E-1,4.997959838E-1,5.594407091E-1
1.264540121E1,-1.065122956E-1,3.262898362E-1,6.020971513E-1,6.930590926E-1
1.265545621E1,-1.222790202E-1,3.004732096E-1,7.200407535E-1,7.897436262E-1
1.266551121E1,-7.650467724E-2,2.099624044E-1,7.108793360E-1,7.451755546E-1
1.267556621E1,-6.541338623E-2,1.764180976E-1,4.682789433E-1,5.046656567E-1
1.268562121E1,1.425340676E-1,2.854382640E-1,-2.480108213E-1,4.041043560E-1
1.269567521E1,6.524288142E-1,5.946647555E-1,-1.246604742E0,1.527518547E0
1.270573021E1,1.442111660E0,1.081978725E0,-2.175359520E0,2.825341226E0
1.271578521E1,1.626795674E0,1.158260331E0,-1.866040642E0,2.733155473E0
1.272584021E1,1.109811471E0,1.004311913E0,-1.856379873E0,2.384632079E0
1.273589521E1,6.541537428E-1,1.076216878E0,-2.312636940E0,2.633334295E0
1.274595021E1,-1.347964472E-1,9.849389184E-1,-2.363925208E0,2.564452601E0
1.275600521E1,-3.860915034E-1,1.256925078E0,-2.783696820E0,3.078619055E0
1.276606021E1,-5.097283933E-1,1.477956262E0,-3.640056635E0,3.961589334E0
1.277611421E1,-4.705966334E-1,1.746285573E0,-4.479901575E0,4.831199914E0
1.278616921E1,-3.184637766E-1,2.441899583E0,-5.002751412E0,5.576003447E0
1.279622421E1,2.659420390E-1,2.991344896E0,-2.386358635E0,3.835828071E0
1.280627921E1,1.109863365E0,2.960887919E0,-3.271809518E-3,3.162066518E0
1.281633421E1,1.564129310E0,2.028272225E0,-2.579275529E-1,2.574279577E0
1.282638921E1,9.232279891E-1,1.503403929E0,-1.161061732E0,2.112022168E0
1.283644421E1,-9.566759630E-1,2.202005866E0,-1.023976977E0,2.610093405E0
1.284649921E1,-1.780981342E0,3.062380380E0,-2.313483033E-1,3.550153542E0
1.285655321E1,-2.114570989E-1,3.691370630E0,6.898898783E-1,3.761233744E0
1.286660821E1,2.126070562E0,3.818804848E0,1.765653013E0,4.713913137E0
1.287666321E1,4.276037816E0,3.059436892E0,2.111590371E0,5.665992181E0
1.288671821E1,4.557333913E0,1.502797573E0,2.589004419E0,5.452580748E0
1.289677321E1,3.819053647E0,1.420399779E0,3.421647635E0,5.320749838E0
1.290682821E1,3.057640335E0,2.066221824E0,2.885699450E0,4.684623609E0
1.291688321E1,1.912378072E0,2.286723250E0,3.407207644E-1,3.000397266E0
1.292693821E1,1.090634650E0,1.476878035E0,-2.080087911E0,2.774422172E0
1.293699221E1,6.112287480E-1,4.182513356E-2,-1.711787585E0,1.818121740E0
1.294704721E1,4.870160535E-2,-1.445235828E0,1.035569082E0,1.778617937E0
1.295710221E1,8.753770805E-1,-2.061829396E0,1.478737450E0,2.684043579E0
1.296715721E1,1.635692213E0,-2.610194144E0,7.371052676E-1,3.167321685E0
1.297721221E1,1.128728968E0,-3.478892169E0,-5.835000819E-1,3.703672792E0
1.298726721E1,-8.487291992E-2,-3.855204350E0,-4.707260031E-1,3.884763438E0
1.299732221E1,-1.532541774E0,-4.070264357E0,-9.682725996E-1,4.455702869E0
1.300737721E1,-2.518565351E0,-4.002343685E0,-8.169525057E-1,4.798889225E0
1.301743221E1,-2.626181601E0,-3.413771144E0,-8.701960820E-1,4.394076062E0
1.302748621E1,-2.918728325E0,-2.947693092E0,-1.060824668E0,4.281730792E0
1.303754121E1,-3.114910596E0,-2.962955495E0,-1.323765770E0,4.498236221E0
1.304759621E1,-3.155790820E0,-3.512994885E0,-1.671581545E0,5.009424480E0
1.305765121E1,-2.968592210E0,-4.244628913E0,-1.438465337E0,5.375741516E0
1.306770621E1,-2.549877191E0,-4.939227846E0,-1.714954437E0,5.817122495E0
1.307776121E1,-2.123308337E0,-5.627611774E0,-1.685521892E0,6.246553980E0
1.308781621E1,-2.195871552E0,-6.260205079E0,-1.825203688E0,6.880653167E0
1.309787121E1,-2.602157438E0,-6.823616467E0,-2.445218462E0,7.701432227E0
1.310792521E1,-2.788931247E0,-7.062434880E0,-2.689958936E0,8.055557275E0
1.311798021E1,-2.649034274E0,-6.992213328E0,-2.088851134E0,7.763486902E0
1.312803521E1,-2.474805666E0,-6.929445223E0,-1.915439674E0,7.603340274E0
1.313809021E1,-1.921335714E0,-6.549646347E0,-2.474505411E0,7.260342638E0
1.314814521E1,-2.482986798E0,-7.102561982E0,-1.522718452E0,7.676606127E0
1.315820021E1,-2.576992484E0,-7.059096705E0,-1.485209733E0,7.660129535E0
1.316825521E1,-2.537901801E0,-7.229125550E0,-1.256992029E0,7.764098835E0
1.317831021E1,-2.086085693E0,-8.011550832E0,-4.003389752E-1,8.288363623E0
1.318836421E1,-1.440732594E0,-8.917687410E0,5.857471669E-1,9.052290256E0
1.319841921E1,-1.086607088E0,-1.039639504E1,2.280884221E0,1.069898021E1
1.320847421E1,-8.442616341E-1,-1.212212005E1,4.086995580E0,1.282037850E1
1.321852921E1,-6.317863888E-1,-1.372637617E1,4.590679122E0,1.448747361E1
1.322858421E1,-2.628688887E-1,-1.430912137E1,4.183609124E0,1.491048758E1
1.323863921E1,-1.880353457E-1,-1.278144273E1,3.845930082E0,1.334885065E1
1.324869421E1,-4.562389416E-1,-1.017318460E1,3.299922931E0,1.070473401E1
1.325874921E1,-7.292705834E-1,-7.213446826E0,9.872814591E-1,7.317128902E0
1.326880321E1,-4.837287489E-1,-4.285940076E0,-1.180366972E0,4.471749325E0
1.327885846E1,-2.569769418E-1,-2.042498501E0,-1.671119031E0,2.651504496E0
1.328891346E1,-6.011575037E-1,-5.821575612E-1,-1.932012438E0,2.105461904E0
1.329896846E1,-2.172079816E-1,2.247087314E0,-1.922785531E0,2.965414795E0
1.330902346E1,9.937474564E-1,5.277713220E0,-3.883498442E0,6.627469426E0
1.331907846E1,1.955146946E0,7.803118059E0,-6.821537781E0,1.054725693E1
1.332913346E1,2.120095730E0,9.401742725E0,-1.056223962E1,1.429854810E1
1.333918846E1,1.922710979E0,1.011566905E1,-1.629196833E1,1.927308512E1
1.334924246E1,2.239800222E0,9.750982298E0,-2.111874428E1,2.336877662E1
1.335929746E1,1.948839555E0,8.400484813E0,-1.951683056E1,2.133712248E1
1.336935246E1,-2.194372326E-2,6.556933147E0,-1.121747392E1,1.299328962E1
1.337940746E1,-1.162708015E0,6.842004206E0,-3.027246215E0,7.571600302E0
1.338946246E1,-1.319477714E0,8.306204892E0,-4.834602155E-2,8.410493356E0
1.339951746E1,-3.099088615E-1,9.296851278E0,1.147034261E0,9.372468980E0
1.340957246E1,5.646217614E-1,9.262257981E0,2.728086875E0,9.672159978E0
1.341962646E1,8.829111448E-1,8.811390291E0,3.556625054E0,9.543045255E0
1.342968146E1,1.278722913E0,8.589611834E0,2.650910060E0,9.079861667E0
1.343973646E1,2.080657138E0,9.004731401E0,8.631098413E-1,9.282202342E0
1.344979146E1,2.420411065E0,9.688466792E0,2.424998023E-1,9.989173372E0
1.345984646E1,1.982446427E0,9.993672738E0,1.517762352E0,1.030083449E1
1.346990146E1,1.905543846E0,1.046557462E1,3.414324875E0,1.117215126E1
1.347995646E1,2.283441793E0,1.076422349E1,4.192356559E0,1.177533301E1
1.349001146E1,2.582808417E0,1.071888652E1,3.404355372E0,1.153928347E1
1.350006546E1,2.612165825E0,1.033851813E1,2.185996774E0,1.088517107E1
1.351012046E1,2.595279943E0,9.987168295E0,1.807458558E0,1.047596845E1
1.352017546E1,3.054228777E0,9.856270187E0,1.941193736E0,1.049964802E1
1.353023046E1,3.174566229E0,9.347598678E0,2.142859526E0,1.010184729E1
1.354028546E1,3.171342951E0,9.039606534E0,1.651101673E0,9.721010191E0
1.355034046E1,3.181107801E0,8.781852497E0,8.594717038E-1,9.379715973E0
1.356039546E1,3.138721335E0,8.662330146E0,5.436203170E-1,9.229466845E0
1.357045046E1,2.978879509E0,8.708082855E0,6.677730775E-1,9.227694784E0
1.358050446E1,2.883940608E0,8.777553039E0,7.197021997E-1,9.267174437E0
1.359055946E1,2.752753939E0,8.848496722E0,6.956198573E-1,9.292870142E0
1.360061446E1,2.741863500E0,9.156653173E0,4.744548090E-1,9.570121219E0
1.361066946E1,2.867292123E0,9.472824402E0,2.696732204E-2,9.897297283E0
1.362072446E1,2.934974813E0,9.581896609E0,-5.830013144E-1,1.003826232E1
1.363077946E1,3.053869173E0,9.578411669E0,-1.803718679E0,1.021398493E1
1.364083446E1,3.184083450E0,9.219122486E0,-6.134330313E0,1.152217927E1
1.365088946E1,3.273962463E0,8.037097317E0,-2.073502660E1,2.247788005E1
1.366094346E1,4.362739161E-1,4.445843298E0,-2.568940985E1,2.607492351E1
1.367099846E1,-4.825894774E0,-1.844945058E0,-9.522134557E0,1.083347263E1
1.368105346E1,-5.454282176E0,-1.155407240E1,-6.009047871E0,1.411929316E1
1.369110846E1,-3.742296955E0,-1.816177458E1,1.209966440E1,2.214174160E1
1.370116346E1,-4.278234031E0,-1.996471441E1,8.901197677E0,2.227385077E1
1.371121846E1,-8.553913413E0,-2.829379010E1,5.208005054E0,3.001385197E1
1.372127346E1,-8.597867517E0,-3.528586485E1,-1.279147538E1,3.850503119E1
1.373132846E1,1.070288386E1,-3.593653833E1,-2.241491295E1,4.368540755E1
1.374138246E1,1.152762661E1,-2.926489802E1,7.554013224E0,3.234785228E1
1.375143746E1,3.803969293E0,-1.108072392E1,2.223439537E1,2.513207040E1
1.376149246E1,-3.714803347E0,-4.853110054E0,7.700463756E0,9.831051987E0
1.377154746E1,-8.334960330E0,-6.754392450E0,3.312333646E-1,1.073327055E1
1.378160246E1,-9.592875926E0,-6.451173388E0,3.733967596E0,1.214839169E1
1.379165746E1,-8.969673834E0,-3.644156703E0,6.171244955E0,1.148125390E1
1.380171246E1,-7.025893875E0,-2.166089929E0,4.316816006E0,8.525844871E0
1.381176646E1,-5.697249774E0,-2.449198662E0,2.653024414E0,6.745055049E0
1.382182146E1,-6.555867199E0,-3.568132959E0,7.408036315E-1,7.500650476E0
1.383187646E1,-7.974198818E0,-4.966533174E0,-2.093591910E0,9.624833798E0
1.384193146E1,-9.703254400E0,-6.249159104E0,-4.683718556E0,1.245561540E1
1.385198646E1,-9.222068313E0,-4.679088730E0,-1.887206540E0,1.051199143E1
1.386204146E1,-5.641704733E0,-3.337645658E0,1.645604120E0,6.758455723E0
1.387209646E1,-2.166426290E0,-2.677794973E0,2.250945453E0,4.114698558E0
1.388215146E1,5.025478663E-1,-1.399076153E0,1.422521149E0,2.057555554E0
1.389220646E1,2.757187006E0,6.524615586E-2,1.505421657E0,3.142074412E0
1.390226046E1,3.903541236E0,1.850821509E0,1.834698397E0,4.693537328E0
1.391231546E1,3.720370481E0,3.002318950E0,1.770646681E0,5.098064855E0
1.392237046E1,3.510401645E0,4.477533453E0,1.241165078E0,5.823376707E0
1.393242546E1,3.613010924E0,5.975954969E0,2.603519547E-1,6.988109105E0
1.394248046E1,3.485325276E0,6.848999814E0,-2.255130379E-1,7.688117251E0
1.395253546E1,3.210924801E0,7.357928601E0,-8.321644027E-2,8.028454169E0
1.396259046E1,2.615968854E0,6.851393080E0,1.822109342E-2,7.333840207E0
1.397264446E1,2.340306550E0,6.315082952E0,-5.287017310E-1,6.755503901E0
1.398269946E1,2.583282918E0,5.939685275E0,-6.167105126E-1,6.506423262E0
1.399275446E1,2.499573010E0,4.988937950E0,-4.585035682E-1,5.598892089E0
1.400280946E1,2.448209752E0,4.069977844E0,-8.205578989E-1,4.819934222E0
1.401286446E1,2.495355413E0,3.277235734E0,-1.255891290E0,4.306313462E0
1.402291946E1,2.256707446E0,2.075595496E0,-1.720841414E0,3.515980706E0
1.403297446E1,1.660248472E0,-1.572901011E-2,-2.208426109E0,2.762936530E0
1.404302946E1,1.264770141E0,-1.546307874E0,-2.428407133E0,3.144498808E0
1.405308346E1,9.196000841E-1,-2.377730484E0,-2.490993975E0,3.564311652E0
1.406313846E1,1.719976026E-1,-3.588462558E0,-2.657502211E0,4.468664757E0
1.407319346E1,-8.772177109E-1,-4.997940323E0,-2.260199695E0,5.554945639E0
1.408324846E1,-2.061431639E0,-5.589910682E0,-2.135652979E0,6.329108585E0
1.409330346E1,-3.149060090E0,-4.545692691E0,-2.682111973E0,6.146025230E0
1.410335846E1,-3.691715616E0,-2.385435360E0,-3.117041906E0,5.388415007E0
1.411341346E1,-3.993373471E0,-7.840344357E-1,-3.170343370E0,5.158761359E0
1.412346846E1,-4.024650813E0,2.049624503E-1,-2.408259528E0,4.694628603E0
1.413352246E1,-3.545602468E0,6.942299742E-1,-1.693643236E0,3.990197931E0
1.414357746E1,-2.317443790E0,1.310004932E0,-1.440784342E0,3.026965174E0
1.415363246E1,-8.691476762E-1,1.462574576E0,-1.340925009E0,2.166246051E0
1.416368746E1,2.438052115E-1,1.178631445E0,-6.326815975E-1,1.359742280E0
1.417374246E1,1.253286940E0,3.918722069E-1,4.491597176E-2,1.313890949E0
1.418379746E1,2.452649104E0,-1.038442111E-1,1.707988503E-1,2.460781074E0
1.419385246E1,3.329733498E0,-8.926183999E-2,4.280126774E-1,3.358316200E0
1.420390746E1,3.161317608E0,5.751613677E-2,1.026288600E0,3.324230048E0
1.421396146E1,2.440244382E0,3.441472328E-1,1.410923197E0,2.839706715E0
1.422401646E1,1.941223703E0,8.469884831E-1,1.498705106E0,2.594582038E0
1.423407146E1,1.218584739E0,9.957773173E-1,1.538677257E0,2.200920020E0
1.424412646E1,4.437595215E-1,6.495280105E-1,1.584738114E0,1.769238265E0
1.425418146E1,-1.374366112E-1,2.268637812E-1,1.309371679E0,1.335967885E0
1.426423646E1,-7.735587104E-1,-2.837080729E-1,1.031710796E0,1.320344848E0
1.427429117E1,-1.297611905E0,-7.470297468E-1,9.024597023E-1,1.748222987E0
1.428434617E1,-1.567925907E0,-8.137932551E-1,5.108980557E-1,1.838931194E0
1.429440017E1,-1.758065812E0,-5.280351484E-1,-7.557533540E-2,1.837206615E0
1.430445517E1,-1.950779222E0,-1.686898327E-1,-5.667344335E-1,2.038426784E0
1.431451017E1,-1.919454665E0,1.880675054E-1,-9.486487591E-1,2.149327817E0
1.432456517E1,-1.716032371E0,3.417767715E-1,-1.285784011E0,2.171363393E0
1.433462017E1,-1.420895038E0,3.029787415E-1,-1.564551187E0,2.135078276E0
1.434467517E1,-1.034144554E0,2.375396276E-1,-1.617000272E0,1.934055303E0
1.435473017E1,-5.083542976E-1,1.784043968E-1,-1.461959449E0,1.558068564E0
1.436478417E1,1.217517476E-1,8.451623976E-2,-1.189791880E0,1.198987573E0
1.437483917E1,7.418738182E-1,-4.367343843E-2,-8.415769581E-1,1.122735903E0
1.438489417E1,1.166032450E0,-1.631577820E-1,-4.582503837E-1,1.263426116E0
1.439494917E1,1.326683092E0,-2.223824751E-1,-8.622465000E-2,1.347952774E0
1.440500417E1,1.286834756E0,-1.643956375E-1,1.172507071E-1,1.302581031E0
1.441505917E1,1.049932036E0,-8.486648798E-2,5.795635901E-2,1.054949544E0
1.442511417E1,7.113851202E-1,-3.873780370E-3,-9.772115305E-2,7.180760538E-1
1.443516917E1,3.076680623E-1,5.251384377E-2,-1.438597045E-1,3.436756537E-1
1.444522317E1,-1.404210301E-1,1.215618593E-1,-9.430754855E-2,2.083009002E-1
1.445527817E1,-5.761624110E-1,1.683121026E-1,-9.961550474E-2,6.084532328E-1
1.446533317E1,-9.099564175E-1,2.203698635E-1,-2.875374144E-1,9.794188702E-1
1.447538817E1,-1.130940677E0,3.039546418E-1,-5.024926832E-1,1.274328896E0
1.448544317E1,-1.144345419E0,3.696510333E-1,-5.011841494E-1,1.302825344E0
1.449549817E1,-1.016028564E0,3.537483609E-1,-3.234358102E-1,1.123415626E0
1.450555317E1,-7.460570624E-1,1.784780717E-1,-1.281090597E-1,7.777322764E-1
1.451560817E1,-4.305285881E-1,-9.211235762E-2,-2.925946712E-3,4.402818561E-1
1.452566217E1,-7.919015720E-2,-2.995902801E-1,-1.256493554E-3,3.098822287E-1
1.453571717E1,2.265100247E-1,-3.178546429E-1,-1.313068289E-1,4.118007389E-1
1.454577217E1,4.554508831E-1,-1.610942996E-1,-2.371233058E-1,5.381582875E-1
1.455582717E1,6.642165086E-1,3.299759209E-2,-2.712939224E-1,7.182428584E-1
1.456588217E1,7.597073874E-1,2.170620936E-1,-3.195404682E-1,8.522777586E-1
1.457593717E1,7.774142182E-1,2.515150577E-1,-3.469043411E-1,8.876797355E-1
1.458599217E1,6.914285731E-1,1.465265465E-1,-4.079602361E-1,8.160729470E-1
1.459604617E1,5.015558861E-1,4.350620806E-2,-3.779090559E-1,6.294969036E-1
1.460610117E1,2.887831637E-1,5.239689946E-3,-3.326171082E-1,4.405193647E-1
1.461615617E1,1.457405345E-1,2.766493142E-2,-2.691941142E-1,3.073615509E-1
1.462621117E1,9.897450373E-2,7.235286176E-2,-3.219131953E-1,3.444691485E-1
1.463626617E1,5.999623328E-2,4.715194702E-2,-2.866446177E-1,2.966276976E-1
1.464632117E1,-3.429991320E-2,-1.084722823E-1,-1.619690430E-1,1.979310258E-1
1.465637617E1,-1.002173294E-1,-1.542460406E-1,-4.335827351E-2,1.889849042E-1
1.466643117E1,-1.405118081E-1,-1.044762951E-1,-5.128929064E-2,1.824539827E-1
1.467648517E1,-1.952459858E-1,-3.280814230E-2,-1.676251278E-1,2.594138637E-1
1.468654017E1,-2.672942077E-1,5.776639760E-2,-2.849027321E-1,3.949084918E-1
1.469659517E1,-3.469636904E-1,1.354378867E-1,-3.614831308E-1,5.190349482E-1
1.470665017E1,-4.340592831E-1,1.825933421E-1,-4.529476900E-1,6.533830421E-1
1.471670517E1,-5.125647314E-1,1.966026860E-1,-5.332282799E-1,7.653153719E-1
1.472676017E1,-5.561399366E-1,7.898828208E-2,-6.022462553E-1,8.235480130E-1
1.473681517E1,-5.524114595E-1,-5.160050869E-2,-5.980226652E-1,8.157525000E-1
1.474687017E1,-4.393419501E-1,-1.402799660E-1,-4.552196257E-1,6.480159918E-1
1.475692417E1,-3.160038529E-1,-1.257432032E-1,-2.346661596E-1,4.132045434E-1
1.476697917E1,-1.277992304E-1,-4.574803054E-2,-7.820636317E-2,1.566581017E-1
1.477703417E1,3.058400765E-2,-1.422452152E-2,1.338091448E-2,3.628728991E-2
1.478708917E1,1.820010191E-1,3.480087340E-2,7.797802940E-2,2.010374214E-1
1.479714417E1,2.642888850E-1,4.845938444E-2,1.324960063E-1,2.995865791E-1
1.480719917E1,3.145252383E-1,8.660077214E-2,1.865097340E-1,3.757814526E-1
1.481725417E1,3.302570258E-1,1.546155846E-1,2.387359679E-1,4.358561052E-1
1.482730917E1,3.097930866E-1,1.853970820E-1,2.113082872E-1,4.183240691E-1
1.483736317E1,2.603969783E-1,2.001162779E-1,2.165895655E-1,3.934007510E-1
1.484741817E1,1.871109009E-1,1.885949242E-1,2.340944481E-1,3.540886122E-1
1.485747317E1,6.685940266E-2,1.412108427E-1,2.631135947E-1,3.060056299E-1
1.486752817E1,-8.673569664E-2,8.841223955E-2,1.648422917E-1,2.061862903E-1
1.487758317E1,-2.354948562E-1,-2.683287263E-3,6.144955873E-2,2.433948964E-1
1.488763817E1,-3.474354145E-1,-6.671614587E-2,2.689711891E-2,3.548039830E-1
1.489769317E1,-3.880956365E-1,-1.262156582E-1,-1.184485093E-2,4.082755392E-1
1.490774817E1,-3.415591089E-1,-1.257221532E-1,-6.190403357E-2,3.691893743E-1
1.491780217E1,-2.162947927E-1,-1.196726239E-1,-9.845234737E-2,2.660786331E-1
1.492785717E1,-1.352925834E-1,-5.453756511E-2,-2.274157584E-2,1.476333580E-1
1.493791217E1,-1.342639120E-1,5.141866028E-2,6.801554337E-2,1.590496489E-1
1.494796717E1,-1.379064350E-1,9.851038098E-2,1.241894518E-1,2.101083052E-1
1.495802217E1,-1.919582427E-1,1.200275499E-1,1.990525232E-1,3.014572717E-1
1.496807717E1,-3.163834834E-1,1.017924231E-1,2.439622092E-1,4.122835984E-1
1.497813217E1,-4.430672112E-1,-4.654383659E-4,3.220022191E-1,5.477172623E-1
1.498818717E1,-5.584906635E-1,-4.972589135E-2,3.636546405E-1,6.683032119E-1
1.499824117E1,-6.027613950E-1,-6.113965631E-2,3.406060859E-1,6.950337133E-1
1.500829617E1,-6.133714601E-1,-3.710993886E-2,3.040008348E-1,6.855787360E-1
1.501835117E1,-5.200541376E-1,2.772925079E-2,3.089703834E-1,6.055476159E-1
1.502840617E1,-3.106100889E-1,1.233546156E-1,2.880696572E-1,4.412245640E-1
1.503846117E1,-3.512597859E-2,1.497840303E-1,2.896213621E-1,3.279475926E-1
1.504851617E1,1.950617985E-1,1.742148668E-1,3.919232239E-1,4.711727268E-1
1.505857117E1,3.343494920E-1,1.932475537E-1,4.564845246E-1,5.979233404E-1
1.506862517E1,3.463951948E-1,1.613597631E-1,4.388878407E-1,5.819356845E-1
1.507868017E1,2.637785693E-1,6.306046665E-2,3.677277379E-1,4.569238944E-1
1.508873517E1,9.316719532E-2,1.331995726E-2,3.325025028E-1,3.455654235E-1
1.509879017E1,-6.241975799E-2,-7.439412475E-3,3.017315304E-1,3.082101353E-1
1.510884517E1,-1.758903864E-1,-5.082399845E-2,2.063956028E-1,2.758979009E-1
1.511890017E1,-1.958521959E-1,-3.958214164E-2,5.407380782E-2,2.069995296E-1
1.512895517E1,-1.414422463E-1,-2.743747473E-2,-4.932075240E-2,1.522867712E-1
1.513901017E1,-6.593817383E-2,-2.903493404E-2,-5.501806006E-2,9.065239708E-2
1.514906417E1,-1.091631308E-2,-4.906866431E-2,3.635520950E-2,6.203709347E-2
1.515911917E1,5.549972445E-2,-3.183341146E-2,1.248110839E-1,1.402547402E-1
1.516917417E1,8.609001786E-2,6.930704713E-3,1.173968145E-1,1.457447697E-1
1.517922917E1,7.431124046E-2,3.226902902E-2,1.173080099E-1,1.425644411E-1
1.518928417E1,1.085930273E-2,6.153785169E-2,1.209921943E-1,1.361761459E-1
1.519933917E1,-7.871185496E-2,3.756602168E-2,1.849882885E-1,2.045175518E-1
1.520939417E1,-1.676741713E-1,6.416149735E-3,2.707470616E-1,3.185274966E-1
1.521944917E1,-2.059906831E-1,-2.241003871E-2,2.351720168E-1,3.134330054E-1
1.522950317E1,-1.996892850E-1,-8.724045753E-3,9.979676843E-2,2.234084030E-1
1.523955817E1,-1.417454244E-1,-2.601075411E-2,-8.799533308E-2,1.688534966E-1
1.524961317E1,-1.566352129E-2,-5.679225147E-2,-2.628229880E-1,2.693448139E-1
1.525966817E1,1.199383798E-1,-5.508720338E-2,-3.501692802E-1,3.742169688E-1
1.526972317E1,1.836796086E-1,-1.027338248E-1,-3.716915654E-1,4.271382178E-1
1.527977883E1,1.857585861E-1,-1.572018081E-1,-3.897477673E-1,4.594801224E-1
1.528983383E1,1.348191051E-1,-1.687792951E-1,-3.470761031E-1,4.088085896E-1
1.529988883E1,6.427200973E-2,-1.219711643E-1,-2.466957825E-1,2.826069095E-1
1.530994283E1,1.716932550E-2,-7.564952195E-2,-1.824624375E-1,1.982679425E-1
1.531999783E1,6.960964054E-3,-1.523667455E-2,-1.313841583E-1,1.324477569E-1
1.533005283E1,-2.960781500E-2,9.159663320E-3,-3.586857498E-2,4.740334178E-2
1.534010783E1,-5.174493492E-2,5.809618056E-2,8.495711982E-2,1.151972946E-1
1.535016283E1,-8.711751983E-2,1.096019644E-1,1.877404998E-1,2.341976689E-1
1.536021783E1,-1.725870019E-1,1.145077783E-1,2.021002382E-1,2.893835013E-1
1.537027283E1,-2.440417314E-1,8.181774974E-2,2.022364783E-1,3.273379049E-1
1.538032683E1,-2.808338740E-1,9.582241595E-2,2.199045713E-1,3.693340232E-1
1.539038183E1,-2.665225214E-1,1.267255354E-1,1.672884013E-1,3.392329950E-1
1.540043683E1,-2.312531398E-1,1.417061019E-1,1.072320879E-1,2.916459406E-1
1.541049183E1,-1.815320724E-1,1.413652092E-1,8.373110488E-2,2.448446724E-1
1.542054683E1,-1.406671979E-1,1.016538441E-1,6.218046069E-2,1.843561072E-1
1.543060183E1,-1.170282206E-1,6.106715083E-2,1.554058358E-2,1.329146759E-1
1.544065683E1,-1.178830835E-1,-5.549007654E-4,-3.455265909E-3,1.179350167E-1
1.545071183E1,-1.520534809E-1,-2.821106136E-2,-1.307262003E-2,1.551999305E-1
1.546076583E1,-1.562057349E-1,-7.480342984E-3,4.521067142E-3,1.564500789E-1
1.547082083E1,-1.300743820E-1,4.971302748E-3,7.007887959E-3,1.303578505E-1
1.548087583E1,-1.026766683E-1,-7.175703049E-3,-7.843308896E-3,1.032255125E-1
1.549093083E1,-7.915024996E-2,-4.548549056E-3,-3.611481585E-2,8.711906388E-2
1.550098583E1,-2.001779661E-2,5.723254681E-3,-7.098826781E-2,7.397838868E-2
1.551104083E1,-2.027522027E-4,-1.939930737E-2,-8.145288348E-2,8.373139472E-2
1.552109583E1,-2.287986249E-2,-3.264500499E-2,-1.033027589E-1,1.107277944E-1
1.553115083E1,-3.613067642E-2,-1.735629022E-2,-2.226549554E-1,2.262341613E-1
1.554120483E1,5.665951967E-4,-2.364029288E-3,-4.217831270E-1,4.217901325E-1
1.555125983E1,1.259636432E-2,3.277539790E-2,-4.461554182E-1,4.475349732E-1
1.556131483E1,-2.179067239E-2,2.179725051E-2,-3.301076294E-1,3.315433615E-1
1.557136983E1,2.604057491E-3,1.320593655E-2,-3.013947308E-1,3.016951469E-1
1.558142483E1,2.986743137E-2,-4.897452414E-2,-3.954634206E-1,3.996021578E-1
1.559147983E1,5.035987571E-2,-7.959756196E-2,-2.843741439E-1,2.995672590E-1
1.560153483E1,7.104717851E-2,-4.006044388E-2,-1.841210733E-1,2.013780286E-1
1.561158983E1,1.186582781E-1,3.778178394E-2,-1.480191945E-1,1.934345680E-1
1.562164383E1,1.211928999E-1,6.991281867E-2,-1.133054446E-1,1.800378987E-1
1.563169883E1,6.951900870E-2,7.293699861E-2,-7.995190322E-2,1.286273889E-1
1.564175383E1,3.673834831E-2,5.757110059E-2,-5.113565505E-2,8.531701516E-2
1.565180883E1,-2.624742016E-2,5.423877239E-2,2.213638902E-2,6.419338918E-2
1.566186383E1,-8.085427478E-2,6.253363252E-2,3.284439504E-2,1.073621126E-1
1.567191883E1,-1.535028595E-1,3.114577889E-2,-2.019043565E-3,1.566437485E-1
1.568197383E1,-1.747289832E-1,1.818074763E-2,-3.584810972E-2,1.792926215E-1
1.569202783E1,-1.713678575E-1,1.796849370E-2,-6.112036049E-2,1.828264417E-1
1.570208283E1,-1.906952441E-1,5.032698512E-3,-9.999849737E-2,2.153826911E-1
1.571213783E1,-1.892075662E-1,7.679733038E-3,-1.159431966E-1,2.220389747E-1
1.572219283E1,-1.404890040E-1,6.181793332E-2,-1.137382847E-1,1.910366837E-1
1.573224783E1,-1.025924684E-1,1.535987538E-1,-3.651593484E-2,1.882849045E-1
1.574230283E1,-4.230270490E-2,1.893252414E-1,6.418422841E-2,2.043359515E-1
1.575235783E1,1.302174926E-2,1.648675078E-1,8.608914077E-2,1.864462422E-1
1.576241283E1,-8.184932470E-3,1.266957146E-1,9.761107922E-2,1.601459335E-1
1.577246683E1,-6.923249513E-2,1.426229453E-1,1.315570897E-1,2.060138606E-1
1.578252183E1,-1.904536079E-1,1.272172862E-1,1.022906059E-1,2.508389578E-1
1.579257683E1,-2.664334975E-1,8.036062360E-2,4.721210025E-2,2.822651605E-1
1.580263183E1,-3.391199429E-1,6.134313941E-3,-2.042023122E-2,3.397895692E-1
1.581268683E1,-3.636729862E-1,-4.643975616E-2,-1.132664144E-1,3.837238232E-1
1.582274183E1,-3.333181894E-1,-9.248131692E-2,-2.146296519E-1,4.070868419E-1
1.583279683E1,-2.831835777E-1,-9.812271059E-2,-2.853529678E-1,4.138203973E-1
1.584285083E1,-2.276956938E-1,-5.537488639E-2,-3.141305512E-1,3.919052312E-1
1.585290583E1,-1.408396907E-1,1.063608527E-3,-2.961573797E-1,3.279422866E-1
1.586296083E1,-6.217022806E-2,4.549250722E-2,-2.642047582E-1,2.752069398E-1
1.587301583E1,-2.964509100E-2,8.993485451E-2,-2.343734334E-1,2.527805684E-1
1.588307083E1,-7.104776323E-2,1.044271785E-1,-2.261205270E-1,2.590044652E-1
1.589312583E1,-1.796497075E-1,1.253672272E-1,-1.752270198E-1,2.805271244E-1
1.590318083E1,-2.770026322E-1,1.208677948E-1,-1.081026652E-1,3.209761179E-1
1.591323583E1,-3.325029413E-1,1.170823073E-1,-2.618317388E-2,3.534855461E-1
1.592328983E1,-3.190023051E-1,6.452460945E-2,6.633081436E-2,3.321530864E-1
1.593334483E1,-2.507889797E-1,7.297500551E-2,1.390443762E-1,2.958949177E-1
1.594339983E1,-1.111658022E-1,6.144195735E-2,1.227956218E-1,1.766683741E-1
1.595345483E1,2.373516396E-2,5.131399512E-2,7.513555169E-2,9.403103334E-2
1.596350983E1,8.009808362E-2,2.274566889E-2,4.053582251E-2,9.260789037E-2
1.597356483E1,8.392640188E-2,-2.733397901E-2,-2.993767105E-2,9.320435338E-2
1.598361983E1,2.189650699E-2,-2.545760751E-2,-1.321025618E-1,1.363034616E-1
1.599367483E1,-3.945379525E-2,6.979821324E-3,-1.904525846E-1,1.946214450E-1
1.600372883E1,-6.245732635E-2,2.695215583E-2,-2.360210326E-1,2.456283048E-1
1.601378383E1,-5.646509975E-2,-6.075841784E-3,-2.698495871E-1,2.757608076E-1
1.602383883E1,-7.276582137E-2,-2.934659064E-2,-2.455749444E-1,2.578044617E-1
1.603389383E1,-4.439922407E-2,-3.641762853E-2,-1.735828558E-1,1.828347412E-1
1.604394883E1,-4.155806199E-2,-1.902450085E-2,-1.632385466E-1,1.695164513E-1
1.605400383E1,-1.901134461E-2,1.160672307E-2,-1.991514874E-1,2.003932687E-1
1.606405883E1,-6.708656698E-3,7.130679488E-3,-1.955964533E-1,1.958413266E-1
1.607411283E1,-2.032784522E-2,-1.722238898E-2,-1.854409361E-1,1.873450633E-1
1.608416783E1,-2.372449279E-2,1.009755671E-2,-1.341176585E-1,1.365736378E-1
1.609422283E1,-4.215287000E-2,4.544456005E-2,-1.129548309E-1,1.288443492E-1
1.610427783E1,-6.291121647E-2,6.378376722E-2,-1.047136921E-1,1.378083721E-1
1.611433283E1,-9.388757229E-2,8.621894896E-2,-1.123127335E-1,1.698903573E-1
1.612438783E1,-1.055311328E-1,1.025777042E-1,-7.613717973E-2,1.656981458E-1
1.613444283E1,-1.066687086E-1,1.009825838E-1,3.425225839E-3,1.469266068E-1
1.614449783E1,-7.759912983E-2,9.803324819E-2,1.648914814E-3,1.250394403E-1
1.615455183E1,-4.508744135E-2,7.560566783E-2,-2.014950514E-2,9.030557532E-2
1.616460683E1,-2.576093182E-2,2.823912799E-2,1.054252982E-3,3.823853302E-2
1.617466183E1,-8.962904513E-3,-3.983123302E-3,-1.798713170E-2,2.048745556E-2
1.618471683E1,8.527725488E-3,-3.070899189E-2,-2.519916058E-2,4.062957025E-2
1.619477183E1,7.525658906E-3,-3.735903025E-2,-1.470567428E-2,4.084837254E-2
1.620482683E1,2.196828157E-2,-4.832899153E-2,-5.503984094E-3,5.337218993E-2
1.621488183E1,2.586471990E-2,-8.523486257E-3,-9.867834225E-3,2.896562973E-2
1.622493583E1,-1.361758053E-2,4.011716187E-2,1.046059571E-2,4.363770432E-2
1.623499083E1,-3.770927846E-2,7.792408884E-2,5.491193309E-3,8.674276055E-2
1.624504583E1,-5.519508451E-2,8.400636256E-2,-3.156093121E-2,1.053549177E-1
1.625510083E1,-6.755595222E-2,7.631668925E-2,-9.276022911E-3,1.023429936E-1
