"Time (s)","Linear Acceleration x (m/s^2)","Linear Acceleration y (m/s^2)","Linear Acceleration z (m/s^2)","Absolute acceleration (m/s^2)"
1.861041674E-3,-7.698699944E-1,-7.024356642E-1,-2.621388053E0,2.820955689E0
1.182604168E-2,-6.527708763E-1,-2.996113300E-2,-1.363308735E0,1.511826112E0
2.179204169E-2,-3.064364925E-2,2.799342799E-1,3.498044139E-1,4.490716672E-1
3.175804167E-2,4.865137777E-1,2.236828959E-1,1.115166351E0,1.237063331E0
4.172304168E-2,7.527930549E-1,2.112891376E-1,9.448597634E-1,1.226417733E0
5.168904166E-2,5.378271881E-1,2.672665796E-1,2.660488969E-1,6.568649209E-1
6.165404167E-2,1.940481837E-1,2.526695904E-1,-7.170329458E-1,7.846227532E-1
7.162004168E-2,-8.625242427E-2,1.406845933E-1,-1.358811057E0,1.368794770E0
8.158504168E-2,-2.140146710E-1,-1.272096848E-1,-1.356618935E0,1.379274998E0
9.155104167E-2,-4.060689542E-1,-5.459080401E-1,-1.318477548E0,1.483674704E0
1.015160417E-1,-4.499479222E-1,-8.179240206E-1,-1.541871591E0,1.802448568E0
1.114820417E-1,-1.925577284E-1,-9.933100846E-1,-1.430418398E0,1.752095944E0
1.214470417E-1,-5.754171833E-2,-9.537074777E-1,-1.059282757E0,1.426516373E0
1.314130417E-1,-2.928797230E-2,-2.534066319E-1,-6.718678826E-1,7.186648441E-1
1.413780417E-1,9.253657311E-2,4.537816492E-1,-3.890941948E-1,6.048760988E-1
1.513440417E-1,3.216483164E-1,7.953964528E-1,-4.707300961E-2,8.592607432E-1
1.613090417E-1,2.710397878E-1,5.793430039E-1,6.532901090E-1,9.142695715E-1
1.712750417E-1,-5.984215915E-2,-6.185164252E-1,6.509097075E-1,8.999039391E-1
1.812400417E-1,-3.021441977E-1,-6.410024777E-1,6.660113114E-1,9.724949149E-1
1.912060417E-1,-4.547438085E-1,2.744069070E-2,5.923814178E-1,7.473022595E-1
2.011710417E-1,-7.340748020E-1,1.113920894E-1,-2.135017240E-1,7.725652067E-1
2.111370417E-1,-1.129666130E0,8.244574070E-4,-7.230737042E-1,1.341261282E0
2.211012917E-1,-1.596092530E0,-1.507163689E-1,-1.103918062E0,1.946499904E0
2.310672917E-1,-1.738155312E0,-1.890656251E-1,-1.031243019E0,2.029874839E0
2.410322917E-1,-1.072242672E0,1.348443943E-1,-4.755984879E-1,1.180712192E0
2.509982917E-1,-1.764688953E-1,4.803689387E-1,4.578609592E-1,6.866820562E-1
2.609632917E-1,6.728182744E-1,5.046921864E-1,1.205447361E0,1.469864611E0
2.709292917E-1,8.846163391E-1,3.532665503E-1,1.225240186E0,1.551952588E0
2.808942917E-1,1.638532352E-1,2.234583628E-1,6.114667296E-1,6.713218930E-1
2.908602917E-1,-9.199916283E-1,-9.827122986E-2,-4.575761998E-1,1.032190781E0
3.008252917E-1,-1.305670684E0,-5.627801809E-1,-1.667336467E0,2.191234438E0
3.107912917E-1,-1.030239637E0,-1.289757194E0,-7.433559412E-1,1.810371615E0
3.207562917E-1,-1.188757142E0,-2.652510151E0,6.624609990E0,7.234252633E0
3.307222917E-1,3.053913027E0,-3.283062192E0,5.638586998E-1,4.519161291E0
3.406872917E-1,2.985094222E0,-4.492420464E0,-7.582435369E-1,5.446793772E0
3.506532917E-1,2.376426116E0,-2.939389461E0,-3.927871792E0,5.451200630E0
3.606182917E-1,1.649904894E0,-1.440638454E0,-4.215645434E0,4.750714866E0
3.705842917E-1,2.581918471E-1,-9.390230727E-1,-3.239970260E0,3.383169320E0
3.805492917E-1,-5.216191448E-1,3.289447644E-1,-2.136877239E0,2.224080827E0
3.905152917E-1,-4.599754585E-1,1.772791294E0,-3.884048080E-1,1.872224529E0
4.004802917E-1,6.934816767E-1,1.917103499E0,6.590613109E-1,2.142560262E0
4.104462917E-1,1.483439927E0,3.873312593E-1,-3.741487116E-1,1.578165637E0
4.204112917E-1,2.265496980E0,-9.476819220E-1,-1.119712561E0,2.698950502E0
4.303772917E-1,3.129048579E0,-1.507477684E0,-1.192855967E0,3.672375162E0
4.403422917E-1,3.758094378E0,-1.743521301E0,-1.632948407E0,4.453050682E0
4.503082917E-1,3.037492584E0,-1.474616332E0,-2.040980564E0,3.945434854E0
4.602742917E-1,2.070385627E0,-1.108482984E0,-2.955017899E0,3.774567784E0
4.702392917E-1,1.966741098E0,-1.096252947E0,-4.174756440E0,4.743251248E0
4.802052917E-1,1.844038593E0,-1.106004934E0,-4.266812664E0,4.778013767E0
4.901702917E-1,7.708314228E-1,-1.118072417E0,-2.770968601E0,3.085860334E0
5.001362917E-1,-5.400897682E-1,-1.452299849E0,-1.163809923E0,1.937866184E0
5.101012917E-1,-1.348353458E0,-2.467356313E0,2.440935962E0,3.723449018E0
5.200672917E-1,-3.596651584E0,-3.767270413E0,-5.637838554E-1,5.238900764E0
5.300322917E-1,-2.210683865E0,-5.123704576E0,-4.596715495E0,7.229748618E0
5.399982917E-1,2.122050747E0,-4.943194013E0,-8.302953256E0,9.893295669E0
5.499632917E-1,2.552161990E0,-3.364049053E0,-8.654618838E0,9.629786295E0
5.599292917E-1,2.330285299E0,-2.050410076E0,-8.657631324E0,9.197227365E0
5.698942917E-1,1.775193037E0,-1.861084542E0,-7.736327654E0,8.152650585E0
5.798602917E-1,1.367248004E0,-2.099675207E0,-4.916155318E0,5.517842530E0
5.898252917E-1,4.147313118E-1,-3.548067069E0,-3.484880887E0,4.990508670E0
5.997912917E-1,-9.075065804E-1,-6.110270190E0,-4.126087725E0,7.428564458E0
6.097562917E-1,-1.610909082E0,-7.947659476E0,-4.138739346E0,9.104366128E0
6.197222917E-1,-1.681334701E0,-8.694164143E0,-2.146513451E0,9.111690102E0
6.296872917E-1,-1.841178281E0,-9.114519891E0,-1.293284819E0,9.388130588E0
6.396532917E-1,-1.966725018E0,-8.893499233E0,-1.823036125E0,9.289014835E0
6.496182917E-1,-1.736545866E0,-7.618537833E0,-2.375684543E0,8.167103973E0
6.595842917E-1,-1.462683919E0,-6.657016429E0,-2.436973304E0,7.238380403E0
6.695492917E-1,-1.487034649E0,-6.596998268E0,-2.773875836E0,7.309312235E0
6.795152917E-1,-1.186642715E0,-6.687759334E0,-2.722272989E0,7.317446008E0
6.894802917E-1,-8.077308619E-1,-6.887669790E0,-2.008599853E0,7.219895959E0
6.994462917E-1,-1.325031692E0,-7.541801898E0,-1.033654411E0,7.726766872E0
7.094112917E-1,-2.526238067E0,-8.668603624E0,2.491065896E-1,9.032642009E0
7.193772917E-1,-3.845787410E0,-9.704101077E0,1.761575457E0,1.058597216E1
7.293422917E-1,-3.748558154E0,-9.841704773E0,3.695304637E0,1.116091920E1
7.393082917E-1,-2.177569767E0,-9.111241942E0,6.192972624E0,1.122984638E1
7.492732917E-1,1.355665255E-1,-7.706063050E0,8.325820547E0,1.134553101E1
7.592392917E-1,2.397581196E0,-6.133923932E0,9.009350116E0,1.115983010E1
7.692042917E-1,4.444731157E0,-5.129512616E0,8.466497539E0,1.085122644E1
7.791702917E-1,6.172537190E0,-4.532190008E0,9.427189808E0,1.214548761E1
7.891352917E-1,6.495015811E0,-4.092643406E0,1.226009329E1,1.446529805E1
7.991012917E-1,5.607112021E0,-3.584270397E0,1.385166446E1,1.536734550E1
8.090662917E-1,5.470216423E0,-3.171063454E0,1.369344582E1,1.508275073E1
8.190322917E-1,5.114978192E0,-2.886781477E0,1.335408628E1,1.458863015E1
8.289972917E-1,4.338403634E0,-2.708965310E0,1.350452462E1,1.444065180E1
8.389632917E-1,5.188881735E0,-1.687854931E0,1.262778024E1,1.375624155E1
8.489282917E-1,6.641683275E0,-3.487963539E-1,1.108553969E1,1.292759861E1
8.588942917E-1,8.168353275E0,9.973478794E-1,1.034311404E1,1.321728815E1
8.688592917E-1,9.273461831E0,2.285382484E0,9.991847237E0,1.382233984E1
8.788252917E-1,9.096139753E0,3.039811297E0,9.151942656E0,1.325663100E1
8.887902917E-1,8.465881827E0,3.028035005E0,8.404025302E0,1.230722521E1
8.987562917E-1,8.592975737E0,2.697352740E0,8.447678275E0,1.234820684E1
9.087212917E-1,7.906382811E0,1.511726856E0,9.484786052E0,1.244015167E1
9.186872917E-1,7.144840860E0,2.723054177E-1,9.445661747E0,1.184666312E1
9.286522917E-1,8.946944538E0,2.469623571E0,7.275418541E0,1.179315785E1
9.386182917E-1,1.190505269E1,5.203550060E0,9.381448209E-2,1.299292169E1
9.485842917E-1,1.730559018E1,9.945653064E0,-1.271037918E1,2.366333039E1
9.585492917E-1,1.713380133E1,1.267591920E1,-8.710431681E0,2.302428491E1
9.685152917E-1,1.629769159E1,1.063467258E1,-5.528012642E0,2.023042105E1
9.784802917E-1,1.228011649E1,7.104368187E0,-2.689056126E0,1.443967906E1
9.884462917E-1,7.909669531E0,3.591062230E0,-2.262203828E0,8.976422795E0
9.984112917E-1,4.627552541E0,1.438257760E0,-2.232588851E0,5.335473820E0
1.008377292E0,2.910383763E0,5.380800802E-1,-1.875146219E0,3.503717621E0
1.018342292E0,2.042357583E0,-3.327533484E-1,-1.577003417E0,2.601708874E0
1.028308292E0,1.760203115E0,-1.595674746E0,-1.527695017E0,2.824596426E0
1.038273292E0,1.601597975E0,-2.446566246E0,-4.833834708E-1,2.963859317E0
1.048239292E0,1.554057773E0,-2.796847208E0,5.402201611E-1,3.244886391E0
1.058204292E0,1.592913691E0,-3.437066451E0,8.476307997E-1,3.881916767E0
1.068170292E0,1.654183155E0,-3.648505277E0,1.347964764E0,4.226691575E0
1.078135292E0,1.394465623E0,-3.047767019E0,1.668094851E0,3.743789338E0
1.088101292E0,6.098985064E-1,-2.399396757E0,1.382293182E0,2.835456829E0
1.098066292E0,1.337980351E-1,-1.832741334E0,1.083893395E0,2.133463757E0
1.108032292E0,-1.895912898E-1,-6.399689823E-1,4.677421689E-1,8.150385832E-1
1.117997292E0,-8.460950285E-1,2.622844595E-1,1.151995039E-1,8.932753555E-1
1.127963292E0,-2.068540830E0,6.875448525E-1,-2.169433951E-1,2.190580637E0
1.137928292E0,-2.501064342E0,8.067783505E-1,-4.153069702E-1,2.660581521E0
1.147894292E0,-2.275186401E0,2.544744505E0,-9.532198200E-1,3.544125531E0
1.157859292E0,-2.279428849E0,4.092922318E0,-2.974104381E-1,4.694279705E0
1.167825292E0,-2.600426955E0,5.509043689E0,-1.263533894E0,6.221599522E0
1.177790292E0,-2.478352295E0,5.680173565E0,-2.526401204E0,6.692481219E0
1.187756292E0,-2.270096400E0,3.099725377E0,-1.384219840E0,4.083833939E0
1.197721292E0,-3.118865945E0,3.167478819E0,-1.938488814E0,4.849534589E0
1.207687292E0,-3.057030470E0,3.741212881E0,-1.518114354E0,5.064265032E0
1.217653167E0,-2.196763837E0,3.710895068E0,-8.672461617E-1,4.398707704E0
1.227619167E0,-2.497380596E0,3.084129683E0,6.878138244E-2,3.969067475E0
1.237584167E0,-2.960378627E0,1.754512605E0,2.882039970E-1,3.453290842E0
1.247550167E0,-2.049110240E0,8.140867853E-1,-2.188115805E-1,2.215732064E0
1.257515167E0,-4.905176586E-1,5.074161118E-1,-9.159698403E-1,1.156321509E0
1.267481167E0,-2.242149925E-1,-9.944944382E-3,-1.247197650E0,1.267230541E0
1.277446167E0,-9.915863255E-1,-9.521722913E-1,-1.175996690E0,1.809100254E0
1.287412167E0,9.475933367E-1,-1.241589586E0,-1.589936289E0,2.228760919E0
1.297377167E0,-2.197915739E-1,-1.714106006E0,-1.700168583E0,2.424260907E0
1.307343167E0,-6.116500399E-1,-1.897598065E0,-1.587962269E0,2.548846475E0
1.317308167E0,-1.854962507E0,-2.390470982E0,-1.162290232E0,3.241320102E0
1.327274167E0,-1.502253782E0,-2.327001210E0,-4.859328568E-1,2.812086734E0
1.337239167E0,-1.698793318E0,-2.037560527E0,-6.813175678E-1,2.738931410E0
1.347205167E0,-2.687376221E0,-1.402680961E0,1.315915883E-1,3.034274407E0
1.357170167E0,-9.297113818E-1,-5.746801418E-1,1.074203682E0,1.532492763E0
1.367136167E0,4.309701991E-1,-1.195667893E-1,2.543177451E0,2.582205080E0
1.377101167E0,1.606911048E0,2.985909909E-1,3.336842836E0,3.715621052E0
1.387067167E0,1.884255304E0,1.078629439E0,3.415791941E0,4.047405849E0
1.397032167E0,2.590945987E0,2.127147473E0,2.485180673E0,4.172994183E0
1.406998167E0,3.879701260E0,3.517776738E0,1.514739926E0,5.451721938E0
1.416963167E0,4.487323446E0,4.532666849E0,1.317217473E0,6.512772247E0
1.426929167E0,5.097268145E0,4.477510648E0,7.677399999E-1,6.827859757E0
1.436894167E0,2.351862987E0,3.379603524E0,-1.358249724E-2,4.117422005E0
1.446860167E0,1.003566393E-1,2.420701087E0,-8.478123558E-1,2.566836769E0
1.456825167E0,-9.244374856E-1,1.869004596E0,-1.379649364E0,2.500239031E0
1.466791167E0,-8.481006235E-1,1.988834510E0,-1.624063563E0,2.704130143E0
1.476756167E0,4.054348236E-1,2.276556696E0,-1.102180270E0,2.561618460E0
1.486722167E0,1.511894086E0,1.523489115E0,-9.849693239E-1,2.361568838E0
1.496687167E0,2.225997577E0,-5.719746351E-1,3.357874686E-1,2.322708208E0
1.506653167E0,2.471332127E0,-1.248560636E0,1.104675862E0,2.981056005E0
1.516618167E0,2.447475488E0,-1.084835674E0,-3.588237441E-1,2.701066305E0
1.526584167E0,1.552851493E0,-1.271831385E0,-1.353587154E0,2.420971089E0
1.536549167E0,3.844266549E-1,-2.957081966E0,-1.274710554E0,3.242993155E0
1.546515167E0,-4.316475990E-1,-3.920930563E0,-8.725425696E-1,4.039968646E0
1.556480167E0,8.949222028E-2,-4.102821069E0,-2.435505652E-1,4.111017692E0
1.566446167E0,1.369038422E0,-3.956613781E0,3.455891562E-1,4.201010673E0
1.576411167E0,2.537458874E0,-2.528919016E0,4.546104920E-1,3.611204733E0
1.586377167E0,2.690691592E0,-1.095099292E0,8.094581294E-1,3.015673418E0
1.596342167E0,2.955694422E0,-1.951687734E0,5.442529857E-1,3.583493524E0
1.606308167E0,3.071745573E0,-3.049722328E0,6.071848136E-1,4.370938176E0
1.616273167E0,2.241570466E0,-4.247333835E0,2.015804207E-1,4.806778290E0
1.626239167E0,1.799747542E0,-3.295818186E0,-2.547854054E-1,3.763831071E0
1.636204167E0,1.929502813E0,-2.103948060E0,-1.146783416E0,3.076473752E0
1.646170167E0,2.261118293E-1,-2.630775173E0,-1.492379588E0,3.033035016E0
1.656135167E0,-4.562787026E-1,-2.412751797E0,-1.391942550E0,2.822599078E0
1.666101167E0,-2.566213142E0,-1.105709649E0,-7.762593931E-1,2.900107302E0
1.676066167E0,-2.610556671E0,-1.275487064E0,2.904721320E-1,2.919973877E0
1.686032167E0,-1.877159708E0,-1.074550422E0,6.489368570E-1,2.258208631E0
1.695997167E0,-6.618749911E-1,2.414315343E-1,6.618948716E-1,9.666811835E-1
1.705963167E0,-1.640605921E-1,1.606637106E0,1.837522602E-1,1.625411813E0
1.715928167E0,-4.369524854E-1,2.191545197E0,6.968594670E-2,2.235766973E0
1.725894167E0,-3.061455935E0,-1.438637245E0,4.048649540E0,5.275770338E0
1.735859167E0,-1.605834283E0,1.928433942E0,3.489675604E0,4.298301645E0
1.745825167E0,7.610634152E0,5.117766729E0,-4.226047631E0,1.009815662E1
1.755790167E0,3.950606936E-1,6.615077859E-1,-9.374495870E-1,1.213456728E0
1.765756167E0,1.098204748E0,1.325299494E0,1.079328766E0,2.031606016E0
1.775721167E0,3.757278691E0,1.420602093E0,-7.592872649E-1,4.088003256E0
1.785687167E0,1.227611232E-1,1.334532248E0,-5.732428962E-1,1.457619303E0
1.795652167E0,-1.208328869E0,1.963084542E0,-9.292523754E-1,2.485411344E0
1.805618167E0,-4.580600569E0,1.927714734E0,-7.796168643E-1,5.030485873E0
1.815583167E0,-6.679714735E0,1.240316062E0,-6.480159205E-1,6.824726918E0
1.825549167E0,-4.673284784E0,9.341038102E-1,-6.591677302E-1,4.811095790E0
1.835514167E0,-2.859115376E0,3.552136731E-1,-1.410491087E0,3.207834565E0
1.845480167E0,-2.615668307E0,7.366778362E-1,-2.200934656E0,3.496931267E0
1.855445167E0,-2.895768648E0,2.060423725E0,-2.258731459E0,4.211020042E0
1.865411167E0,-2.925579507E0,2.457782959E0,-2.317627539E0,4.468904781E0
1.875376167E0,-2.070252895E0,2.129361228E0,-2.339351699E0,3.780567770E0
1.885342167E0,1.201858925E0,1.549721478E0,-2.692329105E0,3.330876393E0
1.895308167E0,5.200080907E0,5.930491698E-1,-3.169313675E0,6.118586269E0
1.905273167E0,6.020304930E-1,9.844927758E-1,1.892857727E-1,1.169399779E0
1.915238167E0,-2.598631275E0,1.592473980E0,6.225395434E0,6.931407231E0
1.925204167E0,-7.448387951E-1,1.935303835E0,1.108032631E1,1.127270229E1
1.935170167E0,2.863216029E0,-1.346638908E0,8.496325940E-1,3.276174281E0
1.945135167E0,2.303969028E0,-1.008793219E0,7.739418492E-1,2.631524848E0
1.955100167E0,2.596984114E0,-2.062757349E-1,3.666262686E-1,2.630834656E0
1.965066167E0,3.237738377E0,-4.754371047E-1,5.029073238E-1,3.310876926E0
1.975032167E0,1.070978358E0,-6.450069433E-1,-1.145308748E0,1.695511937E0
1.984997167E0,-6.330698526E-1,-1.776716237E0,-5.048626328E0,5.389445780E0
1.994963167E0,-1.519182640E-1,-2.215758517E0,-4.380143690E0,4.911041001E0
2.004928167E0,1.246786006E0,-1.850840805E0,-3.452068360E0,4.110579398E0
2.014894167E0,1.925377894E0,-1.720512215E0,-2.541653666E0,3.623154107E0
2.024859167E0,6.481506988E-1,-2.198688156E0,-2.477075263E0,3.374941598E0
2.034825167E0,-4.425982645E-1,-2.787674096E0,-2.441765682E0,3.732189670E0
2.044790167E0,-2.889454240E-1,-2.924632843E0,-1.428816554E0,3.267794894E0
2.054756167E0,7.156740528E-1,-3.055668361E0,-9.782882953E-1,3.287300788E0
2.064721167E0,8.502898210E-1,-1.242514030E0,-6.973202276E-1,1.659243621E0
2.074687167E0,2.793420154E0,4.414940178E-2,1.728532256E0,3.285265452E0
2.084652167E0,4.526596562E0,-4.435873210E-2,2.715158097E0,5.278648276E0
2.094618167E0,3.452083855E0,4.972817177E-1,2.460915020E0,4.268521381E0
2.104583167E0,1.042801503E0,5.538967985E-1,1.258600890E0,1.725778908E0
2.114549167E0,-1.241760909E0,-1.907069385E-1,-1.709483197E0,2.121478752E0
2.124514167E0,-1.500238831E0,-4.913947409E-1,-3.308823563E0,3.666128573E0
2.134480167E0,-5.982689792E-1,4.067738360E-1,-3.185934970E0,3.267043367E0
2.144445167E0,1.060414193E0,1.623749567E0,-2.740114598E0,3.356973179E0
2.154411167E0,2.125692393E0,2.238047519E0,-1.210806042E0,3.315641132E0
2.164376167E0,1.750469255E0,2.426642443E0,-9.483704317E-1,3.138812297E0
2.174342167E0,2.261741021E-1,2.771676698E0,-1.353486582E0,3.092777453E0
2.184307167E0,-1.545407403E0,2.905490813E0,1.750103658E0,3.727334667E0
2.194273167E0,-2.100625087E0,3.349400901E0,1.818961785E0,4.351980483E0
2.204238167E0,-3.012311257E0,3.380439675E0,5.161898589E-1,4.557174945E0
2.214204167E0,-2.089366712E0,1.278227069E0,1.887688058E0,3.092358954E0
2.224168542E0,1.724156639E0,1.310241160E0,2.393652891E0,3.227851015E0
2.234134542E0,4.311990591E0,5.270236385E0,1.635672040E0,7.003147681E0
2.244099542E0,1.680482762E0,3.160798375E0,2.635133688E0,4.445064480E0
2.254065542E0,1.184140692E0,5.399413658E0,7.007396793E-1,5.571973899E0
2.264030542E0,6.483889729E-2,6.012112981E0,-4.457173155E-1,6.028960981E0
2.273996542E0,-1.217187985E0,6.291884708E0,-6.806106395E-1,6.444578389E0
2.283961542E0,-1.512457465E0,6.430971842E0,1.134418309E-2,6.606440427E0
2.293927542E0,-1.049034269E0,7.082466272E0,-5.093784374E-1,7.177831691E0
2.303892542E0,-8.370760638E-1,7.678356019E0,-9.947278883E-1,7.787639633E0
2.313858542E0,-9.768772890E-1,7.070587068E0,-1.497280432E-1,7.139321341E0
2.323823542E0,-9.978733248E-1,4.699178594E0,4.076890422E0,6.300719494E0
2.333789542E0,1.561772151E0,3.086000792E0,8.070599524E0,8.780495989E0
2.343754542E0,3.823672948E0,4.690051090E0,7.795624852E0,9.868577449E0
2.353720542E0,2.545744379E0,4.938938994E0,4.519505936E0,7.162392528E0
2.363685542E0,2.238174403E0,1.602026576E0,3.933119084E0,4.800556170E0
2.373651542E0,3.989881807E0,-8.518925428E-2,3.583290111E0,5.363430065E0
2.383616542E0,6.551922814E-1,-7.477950304E0,2.544544238E0,7.926141750E0
2.393582542E0,-1.307247385E1,-2.525698252E1,1.519765023E0,2.848007065E1
2.403547542E0,-9.080869750E0,-2.763053576E1,-1.646768009E0,2.913109243E1
2.413513542E0,-2.475347995E0,-2.657857722E1,-2.799265324E0,2.683997021E1
2.423478542E0,4.138511597E0,-1.896941072E1,-2.743619419E0,1.960849991E1
2.433444542E0,7.297449095E0,-8.499930164E0,-2.061211638E0,1.139079319E1
2.443409542E0,5.598548774E0,-1.643520173E0,-2.760432503E0,6.454834973E0
2.453374542E0,3.054129959E0,4.038586482E0,-2.588051907E0,5.686466675E0
2.463340542E0,1.526526158E0,9.665628152E0,-1.377547582E0,9.881917174E0
2.473306542E0,-1.718737001E0,8.576305325E0,-3.943551686E0,9.594720934E0
2.483271542E0,-4.176205672E0,9.394575208E-1,-4.863599959E0,6.479033787E0
2.493237542E0,-4.040178094E0,-3.296128088E-1,-1.402408627E0,4.289339529E0
2.503202542E0,-3.124507046E0,-5.284964937E-1,2.814031005E-1,3.181358284E0
2.513168542E0,-1.759999925E0,-1.165138995E0,5.616741800E-1,2.184176389E0
2.523133542E0,-6.088678981E-1,-1.210525668E0,1.303416144E0,1.880155885E0
2.533099542E0,7.570507050E-2,-9.641579139E-1,2.473725978E0,2.656059478E0
2.543064542E0,4.932533515E-1,-5.117120612E-1,3.161728667E0,3.240628992E0
2.553030542E0,6.593484092E-1,-2.034538686E-1,2.879852527E0,2.961365289E0
2.562995542E0,4.329072355E-1,1.004142344E-2,2.222622125E0,2.264411318E0
2.572961542E0,-4.777820574E-1,4.635152167E-1,1.351989695E0,1.506983140E0
2.582926542E0,-1.166077254E0,3.136288601E-1,-1.598769093E-1,1.218055766E0
2.592891542E0,-9.819249710E-1,-1.146368848E0,-2.737378685E0,3.125952695E0
2.602857542E0,-4.828323707E-2,-3.243160501E0,-5.749479443E0,6.601282843E0
2.612822542E0,8.968576312E-1,-8.859093046E-1,2.396211194E0,2.707585085E0
2.622788542E0,8.711366066E-1,1.857390271E0,4.032451583E0,4.524316896E0
2.632753542E0,-1.286816629E0,1.909653854E0,-5.723039065E-1,2.372805648E0
2.642719542E0,-1.666328261E0,1.359257784E0,-1.600777026E0,2.680805604E0
2.652684542E0,-7.666424775E-1,1.005544506E0,-2.307638010E0,2.631359653E0
2.662650542E0,-2.893879851E-1,2.245529616E-1,-2.498023497E0,2.524735795E0
2.672615542E0,-3.952421035E-1,1.070843287E0,-1.961459600E0,2.269415218E0
2.682581542E0,-3.283173582E-1,1.068353543E0,-9.905480061E-1,1.493437957E0
2.692546542E0,-4.235367069E-1,2.363567358E-1,-4.033081182E-1,6.307973422E-1
2.702512542E0,-5.295554245E-1,-9.912667751E-2,-8.376487255E-2,5.452261913E-1
2.712477542E0,-3.401898372E-1,7.897132516E-2,3.152549708E-1,4.704798531E-1
2.722443542E0,1.935388181E-1,6.631847674E-1,8.664316446E-1,1.108140381E0
2.732408542E0,1.464061377E0,1.353914598E0,1.835205351E0,2.710081020E0
2.742374542E0,1.430499382E0,4.039584017E-1,1.339276240E0,2.000792773E0
2.752339542E0,-1.336189349E0,-3.527101877E0,-1.583683715E0,4.090709442E0
2.762305542E0,6.026835539E-1,-3.288202187E0,-1.459406555E0,3.647652476E0
2.772270542E0,1.772644967E0,-8.432176137E-1,-2.245827824E-1,1.975784287E0
2.782236542E0,2.210365192E0,1.238498747E0,3.654794835E-1,2.559915757E0
2.792201542E0,1.844661175E0,2.324377565E0,5.813786390E-1,3.023823248E0
2.802167542E0,1.625535599E0,2.924859715E0,1.239948857E0,3.568563227E0
2.812132542E0,1.701866614E0,2.995626812E0,1.527144648E0,3.768594001E0
2.822098542E0,2.655863822E-1,9.404725975E-1,1.980191009E0,2.208207705E0
2.832063542E0,-1.109430890E0,-1.322375886E0,4.917449307E0,5.211604606E0
2.842029542E0,-8.230749059E-1,-2.658658791E0,4.298692853E0,5.121003721E0
2.851994542E0,-7.583550726E-1,-2.798604881E0,-1.055904821E-2,2.899552239E0
2.861960542E0,-6.816822879E-1,-2.417114990E0,-1.648858681E0,3.004308667E0
2.871925542E0,-1.269240484E0,-1.795968195E0,-2.015485534E0,2.983061364E0
2.881891542E0,-1.557061634E0,-4.805043018E-1,-1.590807962E0,2.277278044E0
2.891856542E0,-1.713634574E0,1.394478487E0,-1.297190174E0,2.561994546E0
2.901822542E0,-1.782671041E0,1.738867210E0,-1.725476502E0,3.029660769E0
2.911787542E0,-1.181258965E0,1.275492327E0,-1.896442217E0,2.572692461E0
2.921753542E0,-2.568066417E-1,4.110984367E-1,-2.303887021E0,2.354325165E0
2.931718542E0,3.409069982E-1,1.109994489E0,-2.179014030E0,2.469090417E0
2.941684542E0,5.837675189E-1,7.825656152E-1,-8.713310266E-1,1.308591310E0
2.951649542E0,1.111443137E-1,8.646453202E-1,-2.230243532E-1,8.998357907E-1
2.961615542E0,1.665630542E-2,-9.699829102E-2,2.683608860E-1,2.858385315E-1
2.971580542E0,4.279026036E-1,-1.862265680E0,3.329745193E-1,1.939589166E0
2.981546542E0,4.072987698E-2,-2.241817803E0,-5.264265794E-1,2.303156732E0
2.991511542E0,-3.297321651E-1,-4.948790967E-1,-9.782114044E-2,6.026587730E-1
3.001477542E0,-6.334766726E-1,-2.470477849E-1,6.440819138E-1,9.365718416E-1
3.011442542E0,-4.070145951E-1,-6.354759818E-1,6.249942631E-1,9.798512300E-1
3.021408542E0,-4.548108322E-1,-5.972579956E-2,2.766786964E-1,5.356968968E-1
3.031373542E0,-7.205320658E-1,2.510700846E-1,8.754378185E-2,7.680277071E-1
3.041339542E0,-5.561120161E-1,1.036499666E0,9.132459149E-2,1.179801811E0
3.051304542E0,-1.367170382E-1,1.613690017E0,1.730068320E-1,1.628686092E0
3.061270542E0,3.842109657E-1,1.324120111E0,2.153628927E-1,1.395454517E0
3.071235542E0,9.880054175E-1,4.900621605E-1,1.556195515E-1,1.113792203E0
3.081201542E0,1.056984143E0,-6.499390697E-1,1.056147480E-1,1.245307492E0
3.091166542E0,9.905058331E-1,-1.148994248E0,-1.842545360E-2,1.517112087E0
3.101132542E0,5.570024009E-1,-8.116391408E-1,-7.186871231E-2,9.870029794E-1
3.111097542E0,3.172225589E-1,-3.472544432E-1,-1.410102832E-1,4.910190425E-1
3.121063542E0,1.933017135E-1,-1.613808131E-1,-2.020926368E-1,3.228788521E-1
3.131028542E0,-1.651804069E-1,5.466719788E-1,-1.745214070E-1,5.971536995E-1
3.140994542E0,-3.132025981E-1,8.385035884E-1,-2.643993974E-1,9.333226541E-1
3.150959542E0,-2.100306706E-1,8.224716926E-1,-3.579636186E-1,9.212548616E-1
3.160925542E0,-1.858652978E-1,6.936142623E-2,-2.380424881E-1,3.098727844E-1
3.170890542E0,-2.737827167E-1,-6.722000045E-1,-5.681680977E-2,7.280370676E-1
3.180856542E0,-2.929545674E-1,-1.077216752E0,-7.419999719E-2,1.118804697E0
3.190821542E0,-1.195488822E-1,-9.418262279E-1,-2.377238148E-1,9.786936144E-1
3.200787542E0,8.500791751E-2,-2.380828339E-1,-3.135098693E-1,4.027384014E-1
3.210752542E0,2.038451204E-1,-3.738300383E-2,-3.113601404E-1,3.740260140E-1
3.220718167E0,3.071093608E-1,-3.164062876E-1,-3.997228248E-1,5.951532870E-1
3.230683167E0,2.909709726E-1,-5.435454726E-1,-4.313527532E-1,7.524433436E-1
3.240649167E0,3.584886986E-1,-4.770714015E-1,-4.577036691E-1,7.520664318E-1
3.250614167E0,4.932025538E-1,-5.852068841E-2,-4.804554775E-1,6.910216321E-1
3.260580167E0,6.083748682E-1,5.295858300E-1,-4.509415103E-1,9.240829926E-1
3.270545167E0,7.332360189E-1,9.644578761E-1,-3.870514700E-1,1.271858048E0
3.280511167E0,5.779940513E-1,3.537758428E-1,-8.358726338E-2,6.828039989E-1
3.290476167E0,3.100891750E-1,-4.036695492E-1,2.536000286E-1,5.686979655E-1
3.300442167E0,1.732481758E-1,-8.219337487E-1,3.666978970E-1,9.165464338E-1
3.310407167E0,1.132168593E-1,-9.533686316E-1,3.260571170E-1,1.013924577E0
3.320373167E0,7.544969335E-2,-9.010103238E-1,2.775578253E-1,9.458068546E-1
3.330338167E0,7.695155069E-3,-6.079531378E-1,2.552115212E-1,6.593930191E-1
3.340304167E0,4.358733818E-2,-8.391865432E-2,1.770377563E-1,2.007101486E-1
3.350269167E0,1.372300583E-1,4.161428297E-1,1.027183297E-1,4.500644385E-1
3.360235167E0,7.662995383E-2,7.332618928E-1,1.514557493E-1,7.526513119E-1
3.370200167E0,6.734114014E-2,1.104937817E0,2.520544633E-1,1.135321039E0
3.380166167E0,2.503858873E-1,1.065592487E0,2.490036786E-1,1.122578850E0
3.390131167E0,2.386639009E-1,4.125736892E-1,2.880157167E-1,5.568936700E-1
3.400097167E0,1.430949618E-1,2.853441238E-4,2.375961994E-1,2.773593400E-1
3.410062167E0,1.253157717E-1,1.890574390E-1,9.909861088E-2,2.475223072E-1
3.420028167E0,-1.479433268E-2,5.336554921E-1,2.724668008E-1,5.993706817E-1
3.429993167E0,-1.517769076E-2,8.636319977E-1,3.607047933E-1,9.360547728E-1
3.439959167E0,1.694676585E-2,9.426226187E-1,3.019858843E-1,9.899596297E-1
3.449924167E0,-1.069722522E-1,7.253704906E-1,2.126737583E-1,7.634366632E-1
3.459890167E0,-2.543570238E-1,5.987642384E-1,2.229210037E-1,6.876844353E-1
3.469855167E0,-1.644731862E-1,8.089733952E-1,2.534000538E-1,8.635397909E-1
3.479821167E0,-1.527703495E-1,8.122794110E-1,3.413451008E-1,8.942332464E-1
3.489786167E0,-2.615154775E-1,4.944083959E-1,4.245373848E-1,7.021837352E-1
3.499752167E0,-2.369459159E-1,7.175586104E-2,2.817989570E-1,3.751038827E-1
3.509717167E0,-1.203180103E-1,-4.872929192E-1,-8.152041882E-2,5.085040721E-1
3.519683167E0,-3.707967952E-2,-1.004371555E0,-3.398233630E-1,1.060951008E0
3.529648167E0,-2.957719021E-2,-1.323537143E0,-4.858740923E-1,1.410212400E0
3.539614167E0,1.150951311E-3,-1.042870792E0,-7.724984640E-1,1.297819206E0
3.549579167E0,1.842742704E-2,-4.487901735E-1,-1.033642716E0,1.127017948E0
3.559545167E0,1.255989962E-1,-2.727784574E-2,-1.099772387E0,1.107257193E0
3.569510167E0,1.340824290E-1,1.292339909E-1,-1.019086073E0,1.035961363E0
3.579475167E0,1.224803837E-1,1.246088433E-1,-7.855009174E-1,8.046990118E-1
3.589441167E0,1.960780446E-1,1.829348195E-1,-5.762993820E-1,6.356356861E-1
3.599406167E0,2.346537343E-1,-7.483851314E-3,-3.927823260E-1,4.575984470E-1
3.609372167E0,2.209950770E-1,-4.719480711E-1,-2.052068639E-1,5.600746940E-1
3.619337167E0,1.714197515E-1,-6.197077954E-1,-1.209788918E-3,6.429805179E-1
3.629303167E0,3.327565643E-1,-4.821812832E-1,1.431579655E-1,6.030919699E-1
3.639268167E0,1.160458884E-1,-8.752773124E-1,3.321721351E-1,9.433532473E-1
3.649234167E0,1.361392602E-2,-9.268941933E-1,3.754041088E-1,1.000123207E0
3.659199167E0,-9.739867911E-2,-8.337556493E-1,2.936465853E-1,8.893049548E-1
3.669165167E0,4.383335978E-2,-6.536140448E-1,7.052078292E-2,6.588671063E-1
3.679130167E0,4.182348172E-1,-5.069518429E-1,-1.818168318E-1,6.818928755E-1
3.689096167E0,5.711108552E-1,-3.722068512E-1,-2.334894074E-1,7.205711987E-1
3.699061167E0,7.756775951E-1,3.633758014E-1,-1.480295733E-2,8.567011335E-1
3.709027167E0,1.159307859E0,-7.840122163E-2,2.360822091E-1,1.185696535E0
3.718992167E0,6.536565833E-1,-2.866274123E0,1.677481386E-1,2.944644921E0
3.728958167E0,-2.071754752E-1,-4.729345549E0,3.857998735E-1,4.749576038E0
3.738923167E0,-4.161855143E-1,-6.499217620E0,4.808163969E-1,6.530254548E0
3.748889167E0,-2.733193249E-2,-8.428509933E0,4.379095285E-1,8.439922480E0
3.758854167E0,2.099629891E-1,-1.053542428E1,8.227124517E-1,1.056958396E1
3.768820167E0,-3.147542299E-1,-1.234110763E1,1.250015423E0,1.240824509E1
3.778785167E0,-2.203876683E0,-1.432582336E1,1.315648372E0,1.455394167E1
3.788751167E0,-4.692241749E0,-1.649546313E1,2.040991673E0,1.727087385E1
3.798716167E0,-7.139642685E0,-1.807006451E1,3.120868909E0,1.967845400E1
3.808682167E0,-7.188213751E0,-1.770920711E1,2.730435409E0,1.930651991E1
3.818647167E0,-4.888015593E0,-1.347525463E1,7.543106997E-1,1.435423869E1
3.828613167E0,-4.039450116E0,-7.953700234E0,-1.716488162E-1,8.922329739E0
3.838578167E0,1.697497867E0,-6.616335011E-1,-1.691758533E0,2.486223005E0
3.848544167E0,9.411954888E0,6.550924548E0,-3.718878564E0,1.205527125E1
3.858509167E0,1.536695519E1,1.309850449E1,-1.120483371E0,2.022299717E1
3.868475167E0,1.599852231E1,1.883092176E1,4.713075086E-1,2.471393253E1
3.878440167E0,1.087413712E1,2.127700502E1,-4.685558090E0,2.434978964E1
3.888406167E0,3.165921121E0,2.236993149E1,-3.307413799E0,2.283365668E1
3.898371167E0,-2.461893844E0,2.142420283E1,-2.535047482E0,2.171367896E1
3.908337167E0,-7.655835468E0,1.822070867E1,2.624925034E0,1.993730856E1
3.918302167E0,-8.985256079E0,1.003483480E1,4.399335714E0,1.416992911E1
3.928268167E0,-4.443698247E0,2.983032494E0,1.023681400E0,5.449115578E0
3.938233167E0,-2.956839892E0,2.245486346E0,-7.966053647E-1,3.797326847E0
3.948199167E0,-2.274106713E0,4.964204813E0,-3.381643617E-1,5.470762826E0
3.958164167E0,6.856345671E-1,7.831519740E0,-1.082498688E0,7.935653697E0
3.968130167E0,1.654583982E0,8.481410277E0,-1.792234747E0,8.825195399E0
3.978095167E0,1.599966164E0,8.289356725E0,-1.274241022E0,8.537974984E0
3.988061167E0,1.636542983E0,8.108792367E0,-3.864185089E-1,8.281310636E0
3.998026167E0,1.731454110E0,7.632536067E0,1.898139225E-1,7.828765514E0
4.007992167E0,1.741578272E0,6.827347575E0,2.726919186E-1,7.051250291E0
4.017957167E0,1.727650643E0,5.259407927E0,-3.038531926E-1,5.544229004E0
4.027923167E0,1.434909937E0,2.919516529E0,-9.264657386E-1,3.382437295E0
4.037888167E0,4.014405906E-3,-1.708431868E0,-1.349922412E0,2.177394333E0
4.047854167E0,-1.669846530E0,-7.086748188E0,-1.479695808E0,7.429662643E0
4.057819167E0,-8.950004824E-1,-8.221214443E0,-2.045912983E0,8.519105160E0
4.067785167E0,2.140516546E-1,-6.357026199E0,-2.129615582E0,6.707671931E0
4.077750167E0,1.097399660E0,-4.318801428E0,-3.341224739E0,5.569570409E0
4.087716167E0,2.348556532E0,-8.859420490E-1,-4.883238418E0,5.490594553E0
4.097681167E0,2.602773735E0,6.694576603E-1,-5.418291979E0,6.048180936E0
4.107647167E0,2.642094506E0,2.394652911E0,-4.160904094E0,5.479794596E0
4.117612167E0,1.628792498E0,4.844050963E0,-1.646547861E0,5.369256428E0
4.127578167E0,-5.183447041E-2,6.199432628E0,8.693137372E-1,6.260300160E0
4.137543167E0,-2.519856416E0,4.684592714E0,2.940607729E0,6.078014402E0
4.147509167E0,-3.460599155E0,4.917328269E0,4.851324314E0,7.726008764E0
4.157474167E0,-2.422949926E0,6.778064318E0,5.688524559E0,9.174538348E0
4.167440167E0,-2.823786792E0,6.680766065E0,4.769633449E0,8.680772448E0
4.177405167E0,-3.555538056E0,4.393571529E0,2.824397534E0,6.318428846E0
4.187371167E0,-2.785940689E0,2.064622611E0,1.935781553E0,3.971319965E0
4.197336167E0,-2.738109003E0,-2.353632939E-1,2.852955335E0,3.961311769E0
4.207302167E0,-1.622355299E0,-1.112555569E0,5.192543846E0,5.552686576E0
4.217267458E0,-1.135632337E-1,-2.050529067E0,6.292895107E0,6.619523766E0
4.227232458E0,1.115780747E0,-3.453724583E0,5.290125105E0,6.415497159E0
4.237198458E0,2.325374661E0,-3.889208833E0,3.142089039E0,5.514166863E0
4.247163458E0,4.217760372E0,-3.248000241E0,1.488582991E0,5.527647551E0
4.257129458E0,5.044492931E0,-3.885680038E0,-3.773395371E-1,6.378699195E0
4.267094458E0,4.947141468E0,-5.477157653E0,-2.081247414E0,7.668445440E0
4.277060458E0,4.433945968E0,-6.536671375E0,-2.069877796E0,8.165313442E0
4.287025458E0,3.707686701E0,-6.827772667E0,-2.365531438E0,8.121647570E0
4.296991458E0,1.407154081E0,-7.296672000E0,-1.899859768E0,7.670135072E0
4.306956458E0,-7.187932500E-1,-7.888903729E0,3.393110007E-1,7.928845927E0
4.316922458E0,-2.699363890E0,-9.079807895E0,3.232100784E0,1.000879375E1
4.326887458E0,-4.171408324E0,-1.001119567E1,5.862281588E0,1.232846429E1
4.336853458E0,-5.231914904E0,-1.077847667E1,8.122863691E0,1.447513065E1
4.346818458E0,-6.237085773E0,-1.079359055E1,8.941063993E0,1.534097328E1
4.356784458E0,-6.115967132E0,-9.897376113E0,9.052347032E0,1.474137357E1
4.366749458E0,-5.441645758E0,-9.273740158E0,9.151817526E0,1.411982752E1
4.376715458E0,-5.056023055E0,-9.704719713E0,8.433971817E0,1.381581827E1
4.386680458E0,-4.354181761E0,-1.087952591E1,6.683803693E0,1.349059727E1
4.396646458E0,-2.841793585E0,-1.284455991E1,5.645580268E0,1.431541430E1
4.406611458E0,-5.510800485E-1,-1.496188582E1,6.546873597E0,1.634084668E1
4.416577458E0,2.046880404E0,-1.761705733E1,8.231703179E0,1.955278409E1
4.426542458E0,3.570206966E0,-2.254105844E1,9.849312000E0,2.485668200E1
4.436508458E0,2.655339911E0,-2.763556436E1,1.175959268E1,3.015067607E1
4.446473458E0,-1.031408203E0,-2.860144019E1,1.165686177E1,3.090289000E1
4.456439458E0,-5.756602521E0,-2.596516922E1,7.215285190E0,2.755701046E1
4.466404458E0,-8.600689384E0,-2.088741908E1,8.401589352E-1,2.260446860E1
4.476370458E0,-1.350705529E1,-1.272609532E1,-6.601600027E0,1.969708526E1
4.486335458E0,-4.566466094E0,-1.777536017E0,-8.004968036E0,9.385721078E0
4.496301458E0,1.668377856E0,4.766234463E0,-9.877983238E0,1.109391854E1
4.506266458E0,2.553396045E0,8.199072207E0,-1.040189727E1,1.348866499E1
4.516232458E0,4.538103882E0,9.841135254E0,-7.649462587E0,1.326486366E1
4.526197458E0,6.983524951E0,1.012955618E1,-2.125155911E0,1.248574454E1
4.536163458E0,8.856774625E0,1.023747356E1,1.992204845E0,1.368273371E1
4.546128458E0,1.043126900E1,1.098865133E1,4.411242984E0,1.578039593E1
4.556094458E0,1.142359763E1,1.123034014E1,3.947998493E0,1.649866099E1
4.566059458E0,1.208204323E1,1.177016912E1,3.133907615E0,1.715616585E1
4.576025458E0,1.140387965E1,1.391239013E1,9.943745703E-1,1.801643280E1
4.585990458E0,1.209998717E1,1.330601399E1,-2.781594161E0,1.819881765E1
4.595956458E0,9.746791014E0,1.237119038E1,-6.399692162E0,1.700006901E1
4.605921458E0,6.044042872E0,1.145660633E1,-6.938652248E0,1.469452884E1
4.615887458E0,4.053827249E0,1.148857540E1,-6.831562833E0,1.396750267E1
4.625852458E0,2.767763157E0,1.159463804E1,-6.323780100E0,1.349393712E1
4.635818458E0,1.403498110E0,1.088995500E1,-5.900905371E0,1.246521605E1
4.645783458E0,7.642030191E-1,9.970172778E0,-5.575087405E0,1.144857856E1
4.655749458E0,1.327651244E-1,9.281230441E0,-5.344619401E0,1.071092067E1
4.665714458E0,-4.119103226E-1,9.116117350E0,-4.933834375E0,1.037381257E1
4.675680458E0,5.429578274E-2,9.655226541E0,-4.197948544E0,1.052849085E1
4.685645458E0,7.494472781E-1,9.886504970E0,-3.480107220E0,1.050789218E1
4.695611458E0,1.268964787E0,1.003244679E1,-3.482875000E0,1.069535781E1
4.705576458E0,1.563655978E0,1.003546630E1,-4.142496182E0,1.096885949E1
4.715542458E0,1.606117873E0,1.000312301E1,-4.322562942E0,1.101483704E1
4.725507458E0,1.354622988E0,1.013915965E1,-3.684562425E0,1.087260604E1
4.735473458E0,1.159927079E0,1.029388516E1,-2.659400510E0,1.069494804E1
4.745438458E0,1.330219634E0,1.046308721E1,-1.893741534E0,1.071596637E1
4.755404458E0,1.608493889E0,1.060934245E1,-1.382415974E0,1.081926401E1
4.765369458E0,1.936904218E0,1.055481482E1,-1.350366215E0,1.081569243E1
4.775335458E0,2.612122848E0,1.006881765E1,-2.092018863E0,1.061041081E1
4.785300458E0,3.071559339E0,9.202367290E0,-3.352580909E0,1.026439668E1
4.795265458E0,2.966507678E0,8.315672119E0,-4.258478043E0,9.802306149E0
4.805231458E0,2.666449621E0,7.670278675E0,-4.631914856E0,9.348677113E0
4.815196458E0,2.198023912E0,7.424018510E0,-4.306648867E0,8.859716949E0
4.825162458E0,1.694094203E0,7.524245049E0,-3.778550569E0,8.588461045E0
4.835127458E0,1.343445743E0,7.775239120E0,-3.250632365E0,8.533803408E0
4.845093458E0,1.226601710E0,8.144142879E0,-2.739052451E0,8.679517458E0
4.855058458E0,9.586051056E-1,8.610765890E0,-2.295084769E0,8.962791254E0
4.865024458E0,1.130761168E0,9.467010516E0,-1.744463873E0,9.692577734E0
4.874989458E0,1.662909832E0,1.020627282E1,-1.111126802E0,1.040037868E1
4.884955458E0,2.232115226E0,1.058977532E1,-6.921375480E-1,1.084457165E1
4.894920458E0,2.907228898E0,1.081941653E1,-5.228149004E-1,1.121539520E1
4.904886458E0,3.525996169E0,1.083052624E1,-4.480627799E-1,1.139884678E1
4.914851458E0,4.025611218E0,1.085570435E1,-1.049405640E-1,1.157855238E1
4.924817458E0,4.674710043E0,1.080492245E1,8.908500557E-1,1.180647606E1
4.934782458E0,5.659569731E0,1.060468806E1,1.788560796E0,1.215273994E1
4.944748458E0,6.922373015E0,9.903073640E0,2.301109740E0,1.229980576E1
4.954713458E0,7.512354736E0,8.925893977E0,2.557381507E0,1.194350272E1
4.964679458E0,7.582353508E0,7.842236516E0,3.384722761E0,1.142143189E1
4.974644458E0,5.363987718E0,5.564817941E0,5.690912561E0,9.598231542E0
4.984610458E0,3.470719516E0,-7.198822939E-1,1.290012016E1,1.337823697E1
4.994575458E0,-1.518201010E1,-3.248840486E1,2.251147387E1,4.234095342E1
5.004541458E0,-1.519872378E1,-4.383874156E1,2.040998222E1,5.068928723E1
5.014506458E0,-1.297319515E1,-4.482380560E1,1.196446976E1,4.817287492E1
5.024472458E0,-1.366948510E1,-4.960657073E1,9.753846849E0,5.237178831E1
5.034437458E0,-7.602064472E0,-4.209234664E1,8.865910315E0,4.368250675E1
5.044403458E0,2.386409506E-1,-3.013915733E1,6.750260807E0,3.088675728E1
5.054368458E0,4.458314824E-1,-2.348208594E1,6.256227218E0,2.430529787E1
5.064334458E0,-1.989261064E0,-1.354641173E1,4.410261821E0,1.438446522E1
5.074299458E0,-7.103744289E0,-4.019143905E0,1.701262597E0,8.337325415E0
5.084265458E0,-1.363640857E1,1.408126473E0,-1.531181712E0,1.379416457E1
5.094230458E0,-1.067916756E1,2.608812447E0,-9.729708374E-2,1.099363401E1
5.104196458E0,-5.091560093E0,3.445302254E-1,1.534350318E-1,5.105509531E0
5.114161458E0,-3.341003129E0,-3.858713849E0,-2.752020991E0,5.798757972E0
5.124127458E0,-5.007936723E0,-1.016887052E1,-3.525940913E0,1.187087264E1
5.134092458E0,-3.259559017E0,-1.280128116E1,-3.806530958E0,1.374726163E1
5.144058458E0,1.428650200E-1,-9.434634483E0,-3.441236393E0,1.004364705E1
5.154023458E0,2.516952689E0,-3.945429227E0,-3.906663064E0,6.096185604E0
5.163989458E0,3.233966923E0,-3.763080883E-1,-4.204728683E0,5.317884272E0
5.173954458E0,3.425762321E0,2.767684804E0,-4.175514824E0,6.068842616E0
5.183920458E0,2.779821577E0,5.758700502E0,-4.232479276E0,7.668371424E0
5.193885458E0,2.043986617E0,7.603261982E0,-3.784491048E0,8.735550730E0
5.203851458E0,1.863751457E0,7.922762616E0,-3.148126289E0,8.726650910E0
5.213816458E0,1.638120854E0,7.709369650E0,-2.272934931E0,8.202685752E0
5.223782833E0,1.468489619E0,7.336980951E0,-5.429838476E-1,7.502171865E0
5.233747833E0,7.588475543E-1,6.214013829E0,2.336377805E0,6.681951716E0
5.243713833E0,4.174438351E-1,4.761503481E0,4.980223845E0,6.902811333E0
5.253678833E0,1.433796920E0,4.030930138E0,6.328488278E0,7.638974753E0
5.263644833E0,1.992880491E0,3.042255433E0,5.214377934E0,6.357407334E0
5.273609833E0,2.289436943E0,2.430893369E0,2.439618292E0,4.135517077E0
5.283575833E0,2.008598099E0,2.391507109E0,9.294330543E-1,3.258468716E0
5.293540833E0,1.058596586E0,2.668407853E0,9.257124710E-1,3.016284268E0
5.303506833E0,2.890930662E-1,2.889523821E0,7.664277385E-1,3.003387120E0
5.313471833E0,-3.698089081E-1,3.249330482E0,1.122411490E0,3.457559076E0
5.323437833E0,-1.009833147E0,3.388586601E0,6.615766369E-1,3.597216394E0
5.333402833E0,-1.197646006E0,3.005991002E0,-1.804972614E-1,3.240820439E0
5.343368833E0,-5.960210171E-1,2.269667507E0,-1.027887594E0,2.561871299E0
5.353333833E0,5.622241107E-1,1.647163573E0,-1.652396246E0,2.399928570E0
5.363299833E0,1.859480943E0,9.410684288E-1,-1.526729057E0,2.583443589E0
5.373264833E0,2.002920160E0,-3.696141958E-2,-5.970884264E-1,2.090351622E0
5.383230833E0,1.178059880E0,-9.748624116E-1,5.564362442E-1,1.627207146E0
5.393195833E0,4.323726538E-1,-1.401691028E0,1.258342443E0,1.932643152E0
5.403161833E0,-3.059959048E-1,-1.709607743E0,1.237634383E0,2.132634754E0
5.413126833E0,-1.225665863E0,-2.363681379E0,3.726937781E-1,2.688521363E0
5.423092833E0,-2.300269202E0,-3.293393930E0,-1.179531039E0,4.186761930E0
5.433057833E0,-2.727503908E0,-4.014387195E0,-2.619544134E0,5.515124077E0
5.443023833E0,-2.232602592E0,-4.096565718E0,-3.037452530E0,5.567089265E0
5.452988833E0,-1.834453983E0,-3.596983706E0,-2.370023561E0,4.681936018E0
5.462954833E0,-1.168019918E0,-2.256054019E0,-1.420636737E0,2.910714518E0
5.472919833E0,4.999506792E-1,-7.122206873E-1,-8.972599196E-1,1.249913738E0
5.482885833E0,1.253357107E0,1.151819623E-1,-1.915097612E-1,1.273124861E0
5.492850833E0,7.560955623E-1,5.303822207E-1,5.084691954E-1,1.054289677E0
5.502815833E0,-1.480096927E-1,7.922983056E-1,7.972900736E-1,1.133717309E0
5.512781833E0,-7.133266881E-1,1.115526540E0,1.004493031E0,1.661998999E0
5.522746833E0,-9.385962260E-1,1.537561024E0,1.368330031E0,2.262163533E0
5.532712833E0,-1.000416498E0,1.950974373E0,1.726845627E0,2.790901287E0
5.542677833E0,-9.635787472E-1,2.296255381E0,1.607270798E0,2.963881272E0
5.552643833E0,-6.464713785E-1,2.462884655E0,1.091416715E0,2.770363968E0
5.562608833E0,-3.403023961E-1,2.249542560E0,5.305199227E-1,2.336171834E0
5.572574833E0,4.045027775E-1,1.422088455E0,7.364480406E-2,1.480331594E0
5.582539833E0,1.423421912E0,3.049001366E-1,-5.173423451E-1,1.544906837E0
5.592505833E0,1.983010975E0,-5.941268116E-1,-1.212624526E0,2.399120138E0
5.602470833E0,2.129549216E0,-1.322457163E0,-1.671623207E0,3.013004640E0
5.612436833E0,1.961480650E0,-1.842685694E0,-1.807469960E0,3.241889042E0
5.622401833E0,1.363797854E0,-1.811390811E0,-1.619073549E0,2.786122828E0
5.632367833E0,3.254548538E-1,-1.425614326E0,-9.377705991E-1,1.737155941E0
5.642332833E0,-5.427175069E-1,-8.513206851E-1,1.993385983E-1,1.029089441E0
5.652298833E0,-8.494343734E-1,-1.601148909E-1,1.258523414E0,1.526779852E0
5.662263833E0,-9.402629748E-1,5.195110774E-1,1.700611071E0,2.011483094E0
5.672229833E0,-8.893237862E-1,9.744782495E-1,1.349896830E0,1.887518505E0
5.682194833E0,-7.005338573E-1,1.001006482E0,7.624801371E-1,1.440186662E0
5.692160833E0,-1.164750740E-1,5.829790950E-1,4.425814538E-1,7.411541076E-1
5.702125833E0,5.455472669E-1,9.751343071E-2,1.951060912E-1,5.875347449E-1
5.712091833E0,8.203430137E-1,-1.923453283E-1,-6.297392786E-2,8.449408861E-1
5.722056833E0,9.267901129E-1,-3.112613225E-1,-3.046951917E-1,1.024042325E0
5.732022833E0,7.950201845E-1,-2.612576884E-1,-5.165833765E-1,9.834485540E-1
5.741987833E0,5.612695527E-1,-2.235045558E-1,-6.800069144E-1,9.096082679E-1
5.751953833E0,4.380505925E-1,-3.169664508E-1,-7.053252120E-1,8.887292655E-1
5.761918833E0,3.477903405E-1,-3.358476949E-1,-6.253984518E-1,7.904903659E-1
5.771884833E0,1.553204665E-1,-2.516618228E-1,-4.383985019E-1,5.288207322E-1
5.781849833E0,-8.731647134E-2,-7.920112073E-2,-2.239378345E-1,2.530714077E-1
5.791815833E0,-1.605531397E-1,1.302473134E-1,1.452518535E-1,2.526653404E-1
5.801780833E0,3.656760961E-2,3.475456345E-1,5.728797841E-1,6.710561863E-1
5.811746833E0,3.126386341E-1,4.624445915E-1,8.210524271E-1,9.928368466E-1
5.821711833E0,4.190781319E-1,4.349059600E-1,8.131620482E-1,1.012917663E0
5.831677833E0,4.125716427E-1,3.308255213E-1,4.976033145E-1,7.261335583E-1
5.841642833E0,3.477514565E-1,1.992000192E-1,8.155520976E-2,4.089779644E-1
5.851608833E0,2.874295333E-1,-3.362382889E-2,-2.071775217E-1,3.559056392E-1
5.861573833E0,2.539179710E-1,-3.510978180E-1,-2.644605008E-1,5.076252262E-1
5.871539833E0,2.863165158E-1,-5.515953344E-1,-9.879543275E-2,6.292814138E-1
5.881504833E0,3.283205742E-1,-5.211506367E-1,1.616597253E-1,6.368094317E-1
5.891470833E0,2.601765382E-1,-3.498739958E-1,3.505487645E-1,5.594533763E-1
5.901435833E0,1.506722224E-1,-2.115569401E-1,3.623342662E-1,4.458077814E-1
5.911401833E0,8.242322892E-2,-1.700417089E-1,2.483455744E-1,3.120629677E-1
5.921366833E0,2.664137632E-2,-1.059766906E-1,6.562783286E-2,1.274669931E-1
5.931332833E0,-9.979735315E-3,2.669721723E-2,-1.404005648E-1,1.432642842E-1
5.941297833E0,-5.841806978E-2,1.061678946E-1,-2.770457554E-1,3.023882327E-1
5.951263833E0,-5.989507645E-2,9.096922696E-2,-3.094255891E-1,3.280350830E-1
5.961228833E0,-3.249823987E-2,2.233987212E-2,-2.529318380E-1,2.559877344E-1
5.971194833E0,-1.327800348E-1,3.001551211E-2,-1.803363168E-1,2.259483476E-1
5.981159833E0,-2.747945774E-1,1.064859831E-1,-8.371692538E-2,3.063655463E-1
5.991125833E0,-2.983302051E-1,1.777863461E-1,6.261066958E-2,3.528866561E-1
6.001090833E0,-1.807742733E-1,1.624181092E-1,2.364729492E-1,3.390847030E-1
6.011056833E0,6.308444023E-2,6.813877344E-2,3.738940653E-1,3.852522695E-1
6.021021833E0,1.716812682E-1,-4.864298701E-3,4.311663732E-1,4.641148141E-1
6.030987833E0,1.004417163E-1,-2.761172175E-2,2.858715427E-1,3.042589103E-1
6.040952833E0,-5.373737365E-2,2.896535218E-2,7.216399670E-2,9.452163442E-2
6.050918833E0,-1.846623793E-1,3.943654597E-2,-8.700978488E-2,2.079089660E-1
6.060883833E0,-2.697346893E-1,4.484171212E-2,-1.080881202E-1,2.940248688E-1
6.070849833E0,-2.510358784E-1,1.681986666E-1,-1.625292063E-2,3.026118985E-1
6.080814833E0,-1.542425323E-1,2.572119999E-1,7.317030251E-2,3.087112969E-1
6.090780833E0,-6.994410127E-2,2.214498442E-1,6.615685970E-2,2.414724434E-1
6.100745833E0,2.814089477E-2,1.015170193E-1,-3.792811051E-2,1.119649799E-1
6.110710833E0,1.423992893E-1,-5.082867622E-2,-1.127881122E-1,1.886326328E-1
6.120676833E0,2.181417820E-1,-1.305689102E-1,-1.003582473E-1,2.733237186E-1
6.130642833E0,2.975612962E-1,-1.472802526E-1,-8.118274212E-2,3.417964825E-1
6.140607833E0,3.687669343E-1,-1.668660861E-1,-4.823046595E-2,4.076266924E-1
6.150572833E0,2.929849729E-1,-1.087003237E-1,-2.880046070E-2,3.138238698E-1
6.160538833E0,1.115710142E-1,2.839466393E-2,-1.583304669E-1,1.957623174E-1
6.170503833E0,8.664813459E-2,6.383112967E-2,-2.269652304E-1,2.511882325E-1
6.180469833E0,1.472393221E-1,7.739491582E-2,-9.605425805E-2,1.920828244E-1
6.190434833E0,1.342088020E-1,1.154977119E-1,1.117844376E-1,2.093979094E-1
6.200400833E0,1.183684024E-1,2.041222054E-1,2.481564170E-1,3.424303735E-1
6.210365833E0,1.437605211E-1,2.982284635E-1,2.870886406E-1,4.382090728E-1
6.220331208E0,2.163928798E-1,3.218558925E-1,2.915179065E-1,4.851801560E-1
6.230296208E0,1.968310198E-1,3.307050687E-1,3.232434368E-1,5.025879150E-1
6.240262208E0,1.245269823E-1,3.397507113E-1,2.996750647E-1,4.698325867E-1
6.250227208E0,9.536896437E-2,3.082798272E-1,1.989152598E-1,3.790764723E-1
6.260193208E0,3.624747455E-2,2.189279401E-1,1.501313549E-1,2.679230227E-1
6.270158208E0,6.516663373E-2,1.684354788E-1,7.173130274E-2,1.943259645E-1
6.280124208E0,7.706103981E-2,2.150664389E-1,-5.983455777E-3,2.285339772E-1
6.290089208E0,8.590261459E-2,3.436543125E-1,-5.558319345E-2,3.585624591E-1
6.300055208E0,3.068341032E-1,5.857775724E-1,-1.817773631E-1,6.858028441E-1
6.310020208E0,6.129241481E-1,8.272149539E-1,-3.196487148E-1,1.078024068E0
6.319986208E0,9.447840419E-1,9.687836462E-1,-4.770300324E-1,1.434822739E0
6.329951208E0,1.184071110E0,9.682948190E-1,-5.738464750E-1,1.633682658E0
6.339917208E0,1.232096631E0,7.878006274E-1,-5.983751062E-1,1.580109080E0
6.349882208E0,8.852269346E-1,4.939300936E-1,-5.691439980E-1,1.162548302E0
6.359848208E0,3.099571010E-1,2.955270499E-1,-4.733230439E-1,6.383136733E-1
6.369813208E0,-2.800348520E-1,1.383287501E-1,-3.668028545E-1,4.817662250E-1
6.379779208E0,-6.770119706E-1,2.280349785E-1,-7.329397112E-2,7.181345041E-1
6.389744208E0,-2.913126692E-1,6.157691109E-1,5.415457249E-2,6.833501203E-1
6.399710208E0,6.189590594E-1,1.127570050E0,-1.358395904E-2,1.286354950E0
6.409675208E0,1.521599587E0,1.519807123E0,-2.810741946E-1,2.168889508E0
6.419641208E0,2.212423558E0,1.725030359E0,-5.955932933E-1,2.867974740E0
6.429606208E0,2.848894736E0,1.903130701E0,-8.235762316E-1,3.523689187E0
6.439572208E0,3.613595353E0,2.041282280E0,-7.320108810E-1,4.214349849E0
6.449537208E0,3.961524273E0,2.065664000E0,-1.027475658E-1,4.468914788E0
6.459503208E0,2.988173659E0,1.450878391E0,-2.307001394E-1,3.329782646E0
6.469468208E0,1.661092225E0,1.070818729E0,-7.155743578E-1,2.101886484E0
6.479434208E0,1.264472372E0,1.288049807E0,-1.136537340E0,2.132997845E0
6.489399208E0,2.721507003E0,1.405981715E0,-1.241752138E0,3.305349198E0
6.499365208E0,3.846083279E0,1.581211073E0,-1.008662242E0,4.279016775E0
6.509330208E0,3.804504898E0,1.958852912E0,-1.029038034E0,4.401168200E0
6.519296208E0,3.275523085E0,2.899944144E0,-2.000908718E0,4.810651018E0
6.529261208E0,3.855186224E0,4.233075399E0,-2.704563819E0,6.332144472E0
6.539227208E0,4.839947095E0,5.089788387E0,-3.457526443E0,7.828507061E0
6.549192208E0,4.363281782E0,5.232689660E0,-3.291411139E0,7.566548505E0
6.559158208E0,2.760880984E0,4.006798094E0,-2.093217250E0,5.297023053E0
6.569123208E0,7.251225686E-1,1.423513421E0,-3.063748044E-1,1.626671055E0
6.579089208E0,-1.641740719E0,-1.734067231E0,1.557589784E0,2.851032740E0
6.589054208E0,-4.224580564E0,-5.757792429E0,3.494588727E0,7.950560042E0
6.599020208E0,-5.856168909E0,-9.855655060E0,5.068713267E0,1.253477184E1
6.608985208E0,-4.979647309E0,-1.046989337E1,5.271978271E0,1.273614186E1
6.618951208E0,-3.294322468E0,-7.005612223E0,4.617591809E0,9.014062195E0
6.628916208E0,-3.495284253E0,-3.697939392E0,4.587799076E0,6.851253033E0
6.638882208E0,-4.361681984E0,-1.814300970E0,4.056030188E0,6.226342315E0
6.648847208E0,-4.301159501E0,-1.015892324E0,2.625795392E0,5.140701480E0
6.658813208E0,-3.517179737E0,-1.166865678E0,1.091376954E0,3.863059988E0
6.668778208E0,-4.071701018E0,-2.114891124E0,9.470378512E-1,4.684911348E0
6.678744208E0,-6.859770970E0,-4.013346975E0,2.589542947E0,8.358776489E0
6.688709208E0,-9.599040645E0,-7.053722529E0,4.157208361E0,1.261661461E1
6.698675208E0,-1.055474582E1,-1.107574443E1,4.999317927E0,1.609558803E1
6.708640208E0,-1.104336489E1,-1.508805938E1,6.039458655E0,1.964893139E1
6.718606208E0,-1.056281849E1,-1.802239333E1,7.529086543E0,2.220511068E1
6.728571208E0,-7.282411226E0,-1.879344110E1,8.802452822E0,2.199341077E1
6.738537208E0,-4.530960631E0,-1.929598005E1,9.904414991E0,2.215765978E1
6.748502208E0,-2.980229339E0,-2.079476877E1,1.089985551E1,2.366666486E1
6.758467208E0,-1.250373127E0,-2.241411071E1,1.110987229E1,2.504765566E1
6.768433208E0,5.565872486E-1,-2.190612566E1,9.639403975E0,2.393963742E1
6.778398208E0,1.303147902E0,-1.845832665E1,6.723484068E0,1.968789616E1
6.788364208E0,2.770893171E-2,-1.374980947E1,4.885344585E0,1.459193681E1
6.798329208E0,-1.337300612E0,-9.291715668E0,2.634938683E0,9.750243836E0
6.808295208E0,-3.157804893E0,-5.822680736E0,-8.288510048E-1,6.675502729E0
6.818260208E0,-8.050875696E0,-2.635440667E0,-6.509171335E0,1.068323258E1
6.828226208E0,-2.889204271E0,6.228173447E-1,-3.222553158E0,4.372670994E0
6.838191208E0,1.830321171E0,3.301676511E0,-9.290573707E-1,3.887710248E0
6.848157208E0,3.535768036E0,6.158869323E0,-1.387028258E0,7.235825753E0
6.858122208E0,5.353986640E0,8.399273270E0,-1.584611229E0,1.008582952E1
6.868088208E0,7.240428802E0,8.844542250E0,-1.422309187E0,1.151836361E1
6.878053208E0,8.726149582E0,8.554327980E0,-1.285766469E0,1.228720510E1
6.888019208E0,1.060348120E1,7.937332124E0,-3.979553577E-1,1.325116686E1
6.897984208E0,1.374200110E1,7.325428607E0,8.684723228E-1,1.559675423E1
6.907950208E0,1.641922714E1,7.641426759E0,1.883906517E0,1.820800721E1
6.917915208E0,1.746536886E1,9.754070798E0,2.680230923E0,2.018327635E1
6.927881208E0,1.655898261E1,1.226157380E1,-1.325639802E0,2.064711646E1
6.937846208E0,1.364963614E1,1.399634211E1,-7.303084057E0,2.086971960E1
6.947812208E0,8.839147609E0,1.480320408E1,-8.766131673E0,1.934193491E1
6.957777208E0,5.887145119E0,1.459179683E1,-7.993373008E0,1.764859837E1
6.967743208E0,4.914372502E0,1.495183095E1,-5.133109238E0,1.655467052E1
6.977708208E0,4.794163396E0,1.476056501E1,-3.670156055E0,1.594767468E1
6.987674208E0,4.096769494E0,1.325294583E1,-2.899789778E0,1.417155158E1
6.997639208E0,3.444806410E0,1.143973829E1,-2.884028316E0,1.229031825E1
7.007605208E0,2.276150900E0,1.071145120E1,-2.791149681E0,1.130073300E1
7.017570208E0,1.858253905E0,9.933072195E0,-3.247156488E0,1.061428547E1
7.027536208E0,1.963269898E0,9.746757685E0,-3.243656637E0,1.045825140E1
7.037501208E0,1.594085180E0,9.541978253E0,-3.202350444E0,1.019046147E1
7.047467208E0,7.248699689E-1,9.091365502E0,-3.542578872E0,9.784080347E0
7.057432208E0,-1.026683360E-2,8.873316398E0,-3.799711350E0,9.652650188E0
7.067398208E0,-2.436359346E-1,8.820491483E0,-3.502696476E0,9.493645826E0
7.077363208E0,-1.173995188E-1,8.742336429E0,-2.881744393E0,9.205795980E0
7.087329208E0,2.460955659E-1,8.599070874E0,-2.331849722E0,8.913030128E0
7.097294208E0,8.490563509E-1,8.475942546E0,-2.038365689E0,8.758848864E0
7.107260208E0,1.581344390E0,8.356892651E0,-1.950898359E0,8.726070666E0
7.117225208E0,2.085533716E0,8.209465633E0,-2.228866221E0,8.758574170E0
7.127191208E0,2.222397154E0,7.951647277E0,-2.749802265E0,8.702250055E0
7.137156208E0,2.427845508E0,7.610989662E0,-3.116112784E0,8.575065966E0
7.147122208E0,2.897451476E0,7.268910005E0,-3.338028651E0,8.507332895E0
7.157087208E0,3.493497637E0,7.048715558E0,-3.790442344E0,8.732489331E0
7.167053208E0,3.954484517E0,6.942552926E0,-4.609816766E0,9.224283145E0
7.177018208E0,3.844142588E0,6.980989598E0,-5.401595839E0,9.627506718E0
7.186984208E0,3.174870577E0,7.532505995E0,-5.395547479E0,9.794405666E0
7.196949208E0,2.625921107E0,8.635869741E0,-3.785856080E0,9.788075097E0
7.206915208E0,2.881576286E0,9.485327504E0,-1.557494474E0,1.003497428E1
7.216880208E0,4.110533254E0,9.944593549E0,1.239992711E-1,1.076135681E1
7.226846417E0,5.121597825E0,9.725275599E0,6.954084805E-1,1.101341649E1
7.236811417E0,5.626890228E0,8.643922527E0,1.857549023E0,1.047997036E1
7.246777417E0,6.609221288E0,7.453872639E0,5.199894966E0,1.123747885E1
7.256742417E0,8.765097885E0,5.130884957E0,1.021894842E1,1.440763090E1
7.266708417E0,8.530090102E0,-1.657584481E0,1.106792320E1,1.407156521E1
7.276673417E0,-1.034880806E1,-2.621346772E1,9.056683327E0,2.960181128E1
7.286639417E0,-2.139980357E1,-4.927756428E1,1.743250634E1,5.648116687E1
7.296604417E0,-1.929368794E1,-4.659895011E1,1.981377673E1,5.418758432E1
7.306570417E0,-2.792400049E1,-4.255406150E1,1.255924502E1,5.242454186E1
7.316535417E0,-2.632419293E1,-3.266601754E1,6.791655586E0,4.249892259E1
7.326500417E0,-1.635431018E1,-2.305977196E1,5.072645520E0,2.872191283E1
7.336466417E0,-6.213721468E0,-1.424555395E1,2.501666313E0,1.574180664E1
7.346432417E0,-3.118618315E-1,-7.134261492E0,-4.087314838E-1,7.152762143E0
7.356397417E0,4.324005742E0,-3.182342441E0,-1.214796182E0,5.504548922E0
7.366362417E0,1.035615333E1,-1.254704890E0,-1.753988695E0,1.057831142E1
7.376328417E0,1.086284848E1,8.022555292E-2,-4.492240369E-1,1.087242914E1
7.386293417E0,3.037688758E0,2.165974154E0,2.215220866E0,4.338916974E0
7.396259417E0,-5.272895114E0,2.640759879E0,4.866316283E0,7.645787716E0
7.406224417E0,-6.554073274E0,8.880762827E-1,1.587332816E0,6.801777814E0
7.416190417E0,-5.431615444E0,-2.177013112E0,-2.566636772E0,6.389793169E0
7.426155417E0,-4.115397846E0,-5.625097471E0,-1.965003013E0,7.241509361E0
7.436121417E0,-3.879052219E0,-1.059157159E1,-2.635638303E0,1.158339433E1
7.446086417E0,-1.989058458E0,-1.091140727E1,-6.116554193E0,1.266599374E1
7.456052417E0,-6.350988364E-1,-6.166188283E0,-9.661776592E0,1.147933602E1
7.466017417E0,5.608456296E-1,-1.674970592E0,-8.319556425E0,8.505004021E0
7.475983417E0,1.954731209E0,1.297424648E0,-4.541940241E0,5.112094088E0
7.485948417E0,3.268328671E0,4.170605502E0,-2.578986677E0,5.892969950E0
7.495914417E0,4.277917112E0,7.469796361E0,-1.074073435E0,8.674794882E0
7.505879417E0,4.727517709E0,9.616786945E0,-4.172193021E-1,1.072408909E1
7.515845417E0,4.533594510E0,1.052227390E1,-1.247661334E-1,1.145806675E1
7.525810417E0,3.902209532E0,1.060187906E1,3.359307253E-1,1.130220900E1
7.535776417E0,2.956293762E0,1.030981298E1,1.555440347E0,1.083749561E1
7.545741417E0,2.658879523E0,9.903479437E0,3.656826742E0,1.088673170E1
7.555707417E0,2.895960436E0,9.007463220E0,5.812705970E0,1.110443746E1
7.565672417E0,2.936991811E0,7.559494988E0,7.193451102E0,1.084055460E1
7.575638417E0,2.293529117E0,5.407429606E0,7.658715806E0,9.651761422E0
7.585603417E0,1.392351270E0,3.123646336E0,7.183977444E0,7.956465321E0
7.595569417E0,3.861235169E-1,8.989304692E-1,6.336676134E0,6.411757309E0
7.605534417E0,-5.832968912E-1,-1.464874286E0,5.160297621E0,5.395809808E0
7.615500417E0,-2.105227138E0,-4.111950327E0,4.095887441E0,6.173848939E0
7.625465417E0,-2.516970815E0,-5.376327682E0,2.472791008E0,6.430764868E0
7.635431417E0,-1.787692046E0,-5.387392952E0,8.642406929E-1,5.741668542E0
7.645396417E0,-7.681788334E-1,-3.887417831E0,1.763109474E-1,3.966510010E0
7.655362417E0,1.674850139E-1,-2.411786422E0,2.566727404E-1,2.431181991E0
7.665327417E0,1.692653157E0,-1.883849507E0,1.055472127E-1,2.534778864E0
7.675293417E0,3.234761268E0,-2.087055454E0,-3.669104433E-1,3.867053684E0
7.685258417E0,5.008085243E0,-3.338372467E0,-7.275310952E0,9.442234798E0
7.695224417E0,3.424172171E0,-3.326855791E0,-5.869732111E0,7.566153551E0
7.705189417E0,4.622416931E-1,-2.088358798E0,-2.331915795E0,3.164291568E0
7.715155417E0,-8.777825519E-1,-6.876249593E-1,-2.772688851E0,2.988500253E0
7.725120417E0,-1.637313938E0,3.135364741E-1,-1.543954369E0,2.272200948E0
7.735086417E0,-2.452859311E0,3.878908378E-1,-1.212032057E0,2.763331288E0
7.745051417E0,-2.399220756E0,1.260688931E-1,-1.062588334E0,2.627022567E0
7.755017417E0,-1.958119671E0,-1.080553758E-1,-2.258248772E-1,1.974058126E0
7.764982417E0,-1.381788275E0,-1.936422408E-1,4.672643052E-1,1.471452373E0
7.774948417E0,-7.129817024E-1,2.711120009E-2,7.792541908E-1,1.056558100E0
7.784913417E0,1.214697656E-1,3.015765792E-1,4.381960420E-1,5.456364250E-1
7.794879417E0,7.895390046E-1,1.471153611E-1,-2.411859512E-1,8.385615256E-1
7.804844417E0,1.555412281E0,-4.540713787E-2,-5.820584509E-1,1.661373291E0
7.814810417E0,1.962592206E0,1.256215811E-2,-7.197445920E-1,2.090444511E0
7.824775417E0,2.250142484E0,2.871462357E-1,-7.687031825E-1,2.395098900E0
7.834741417E0,2.259571997E0,5.327006418E-1,-7.508701980E-1,2.439926564E0
7.844706417E0,1.805896767E0,6.281400651E-1,-7.216048837E-1,2.043657672E0
7.854672417E0,7.034095180E-1,5.599521750E-1,-3.023285311E-1,9.485430560E-1
7.864637417E0,-2.427322474E-1,3.070396328E-1,4.224934906E-1,5.759279726E-1
7.874603417E0,-7.880131736E-1,3.803613782E-2,1.141856406E0,1.387893209E0
7.884568417E0,-1.059283926E0,-1.029665440E-1,1.795778745E0,2.087463975E0
7.894534417E0,-9.490510476E-1,1.298491180E-2,2.172792592E0,2.371053383E0
7.904499417E0,-4.513334200E-1,3.457119477E-1,1.993854344E0,2.073324324E0
7.914465417E0,1.468773794E-1,5.850022316E-1,1.384961559E0,1.510602230E0
7.924430417E0,7.178866392E-1,5.322059673E-1,8.283633471E-1,1.218519697E0
7.934396417E0,1.224070158E0,2.842805153E-1,4.753358017E-1,1.343542812E0
7.944361417E0,1.532805191E0,-5.045796275E-2,1.451527432E-1,1.540489233E0
7.954327417E0,1.585699981E0,-4.256544954E-1,-2.455137679E-1,1.660091319E0
7.964292417E0,1.396752762E0,-7.284478801E-1,-6.779425550E-1,1.714981253E0
7.974257417E0,1.033303578E0,-8.673028797E-1,-1.093062853E0,1.736294033E0
7.984223417E0,4.157200760E-1,-7.595568216E-1,-1.421049405E0,1.664070659E0
7.994188417E0,-3.895233804E-1,-6.043337113E-1,-1.533546910E0,1.693727789E0
8.004154417E0,-8.712190524E-1,-5.025728631E-1,-1.317063106E0,1.657183558E0
8.014119417E0,-9.672917292E-1,-3.489290857E-1,-7.496595320E-1,1.272554207E0
8.024085417E0,-8.516548535E-1,-1.259531182E-1,-4.996504247E-2,8.623669074E-1
8.034050417E0,-6.833140996E-1,1.835142785E-1,5.058180678E-1,8.697399421E-1
8.044016417E0,-4.534936738E-1,4.329260927E-1,8.174977586E-1,1.030234973E0
8.053981417E0,-1.007299840E-1,5.985490608E-1,9.167057124E-1,1.099434796E0
8.063947417E0,3.324066085E-1,6.159930593E-1,8.165057784E-1,1.075464220E0
8.073912417E0,7.161564481E-1,4.448766321E-1,6.112185153E-1,1.041337289E0
8.083878417E0,8.545331454E-1,1.952116334E-1,3.092240064E-1,9.294912397E-1
8.093843417E0,7.823328960E-1,-7.491452694E-2,-7.477799445E-2,7.894610155E-1
8.103809417E0,5.891847450E-1,-2.337915623E-1,-4.395901644E-1,7.713862009E-1
8.113774417E0,2.392841443E-1,-2.446790779E-1,-7.381715074E-1,8.136472990E-1
8.123740417E0,-7.176083118E-2,-2.025335169E-1,-7.780778772E-1,8.072017253E-1
8.133705417E0,-2.958518627E-1,-2.005097955E-1,-5.183366641E-1,6.296073381E-1
8.143671417E0,-2.995724460E-1,-2.205686688E-1,-9.940515116E-2,3.850656726E-1
8.153636417E0,-1.822103494E-1,-2.228677940E-1,2.140851299E-1,3.587521539E-1
8.163602417E0,2.031293482E-2,-2.041765845E-1,2.586863753E-1,3.301807592E-1
8.173567417E0,2.004618484E-1,-1.377259022E-1,1.458462229E-1,2.835921324E-1
8.183533417E0,2.113522875E-1,-1.419703960E-2,-3.714268327E-2,2.150602806E-1
8.193498417E0,1.347221875E-1,1.533467388E-1,-3.329831439E-1,3.905676180E-1
8.203464417E0,9.068359047E-2,2.121703130E-1,-5.541996843E-1,6.003141222E-1
8.213429417E0,6.532216966E-2,1.374212623E-1,-5.570905477E-1,5.774958593E-1
8.223395667E0,5.849554539E-3,2.065821290E-3,-4.316737653E-1,4.317183394E-1
8.233360667E0,-6.953362674E-2,-1.203690273E-1,-3.204812121E-1,3.493305531E-1
8.243326667E0,-1.056662035E-1,-1.581268376E-1,-2.098163702E-1,2.831825428E-1
8.253291667E0,-5.963253647E-2,-1.173641431E-1,-2.457774773E-2,1.339195549E-1
8.263257667E0,-1.003060609E-2,-3.375480652E-2,1.559123509E-1,1.598394857E-1
8.273222667E0,6.675941527E-2,5.863295496E-2,3.459199624E-1,3.571487971E-1
8.283188667E0,1.065581962E-1,1.522269970E-1,4.181466705E-1,4.575744156E-1
8.293153667E0,1.051972568E-1,2.473769832E-1,4.374959841E-1,5.134827853E-1
8.303119667E0,4.432540298E-2,3.374878389E-1,4.861443798E-1,5.934636811E-1
8.313084667E0,-3.551891148E-3,3.494377935E-1,5.481788063E-1,6.500918328E-1
8.323050667E0,-6.604137719E-3,2.766750419E-1,5.914669132E-1,6.530128658E-1
8.333015667E0,-1.687798798E-2,1.570544583E-1,5.870347238E-1,6.079150732E-1
8.342981667E0,-2.169638604E-2,8.363331020E-2,5.249486956E-1,5.320116510E-1
8.352946667E0,-3.313032389E-3,1.072057754E-1,4.232208842E-1,4.366004710E-1
8.362912667E0,1.108190623E-1,1.354583520E-1,3.425589828E-1,3.846771197E-1
8.372877667E0,2.067566684E-1,9.488393784E-2,3.344950877E-1,4.045222433E-1
8.382843667E0,2.911726284E-1,9.547918439E-3,2.900283283E-1,4.110828305E-1
8.392808667E0,3.449611652E-1,-1.010293615E-1,2.318450242E-1,4.277350262E-1
8.402774667E0,3.297370622E-1,-1.757164317E-1,1.469583634E-1,4.014966439E-1
8.412739667E0,2.502432883E-1,-1.200906998E-1,2.414666176E-2,2.786153994E-1
8.422705667E0,1.945488515E-1,1.937241018E-2,-8.740564138E-2,2.141595014E-1
8.432670667E0,1.889495578E-1,6.549934030E-2,-1.251970732E-1,2.359372928E-1
8.442636667E0,1.555458766E-1,-2.971496522E-2,-1.939696848E-2,1.595422868E-1
8.452601667E0,3.129137456E-3,-1.732097304E-1,6.230968416E-2,1.841029574E-1
8.462567667E0,-1.320842162E-1,-2.863820046E-1,8.011211693E-2,3.253902949E-1
8.472532667E0,-2.271219358E-1,-3.935339856E-1,3.510054320E-2,4.557251581E-1
8.482498667E0,-2.475176087E-1,-3.898017079E-1,-4.972238302E-2,4.644164655E-1
8.492463667E0,-1.655773598E-1,-2.318532103E-1,-1.662155834E-1,3.298475305E-1
8.502429667E0,4.499373972E-2,-4.840909839E-3,-1.952538796E-1,2.004294103E-1
8.512394667E0,1.976379356E-1,5.921065986E-2,-1.270889398E-1,2.423184980E-1
8.522359667E0,1.936314234E-1,6.803293884E-2,-2.734742761E-2,2.070494885E-1
8.532325667E0,1.012936556E-1,8.298777759E-2,9.486917362E-2,1.617019975E-1
8.542290667E0,7.581792176E-3,1.372417527E-1,1.819295369E-1,2.280156544E-1
8.552256667E0,-2.710389107E-2,2.019429481E-1,2.087765890E-1,2.917245950E-1
8.562221667E0,-8.657855272E-2,2.168632883E-1,2.270894837E-1,3.257225280E-1
8.572187667E0,-1.372353208E-1,1.357355100E-1,2.041555345E-1,2.809575488E-1
8.582152667E0,-1.042751509E-1,-7.921866238E-2,1.524695103E-1,2.009872014E-1
8.592118667E0,-7.375210047E-2,-2.488966745E-1,8.148445845E-2,2.720820536E-1
8.602083667E0,-5.735738486E-2,-3.481163228E-1,-9.042426646E-3,3.529257843E-1
8.612049667E0,-1.076180041E-2,-3.637061691E-1,-1.465268388E-1,3.922602558E-1
8.622014667E0,5.646422267E-2,-3.031611747E-1,-3.033409765E-1,4.325628906E-1
8.631980667E0,1.568603307E-1,-1.599336272E-1,-4.332409653E-1,4.877311375E-1
8.641945667E0,2.466425729E-1,-2.685626149E-2,-5.158045274E-1,5.723706212E-1
8.651911667E0,2.848748848E-1,4.951831520E-2,-5.468947577E-1,6.186272218E-1
8.661876667E0,1.897401014E-1,3.514001191E-2,-4.937874216E-1,5.301529442E-1
8.671842667E0,2.506701350E-3,-3.076687932E-2,-4.297343901E-1,4.308416535E-1
8.681807667E0,-2.877362198E-1,-1.146106893E-1,-2.529666290E-1,3.998998095E-1
8.691773667E0,-5.182919329E-1,-1.541951698E-1,-4.030661166E-2,5.422428433E-1
8.701738667E0,-6.238207269E-1,-3.944414735E-2,1.209348916E-1,6.366579836E-1
8.711704667E0,-6.293323123E-1,1.605528474E-1,2.535607061E-1,6.972298099E-1
8.721669667E0,-5.312408844E-1,3.365908760E-1,3.309336948E-1,7.106528023E-1
8.731635667E0,-3.265386352E-1,3.970399761E-1,2.982822579E-1,5.943404145E-1
8.741600667E0,-1.001055014E-1,3.101059127E-1,2.020175001E-1,3.834029980E-1
8.751566667E0,-2.245301574E-2,1.085330933E-1,1.249088055E-1,1.669903589E-1
8.761531667E0,-8.375463992E-2,-1.483555555E-2,5.674693555E-2,1.022504186E-1
8.771497667E0,-1.734050274E-1,-1.314278662E-2,-3.842629328E-2,1.780972105E-1
8.781462667E0,-1.760391980E-1,1.223132265E-1,-2.184204018E-1,3.060356132E-1
8.791428667E0,-1.358205870E-1,3.728822047E-1,-4.108356044E-1,5.712042229E-1
8.801393667E0,-9.402732074E-2,6.570633173E-1,-5.818634462E-1,8.826881726E-1
8.811359667E0,-1.620088041E-2,1.068347695E0,-6.161930341E-1,1.233419281E0
8.821324667E0,8.823886961E-2,1.643340663E0,-3.606340420E-1,1.684758602E0
8.831290667E0,1.732591394E-1,2.317379617E0,2.009717256E-2,2.323934361E0
8.841255667E0,4.221008500E-1,2.914855129E0,7.577611417E-2,2.946233455E0
8.851221667E0,9.100214678E-1,3.275118458E0,-2.941462299E-1,3.411900055E0
8.861186667E0,1.272003001E0,3.886771129E0,-1.070914623E0,4.227509855E0
8.871152667E0,1.775476335E0,4.777628347E0,-1.825175329E0,5.413807701E0
8.881117667E0,2.411756894E0,5.698652521E0,-2.323520655E0,6.609838130E0
8.891083667E0,2.723521369E0,6.399232571E0,-2.635467272E0,7.437300175E0
8.901048667E0,3.503209862E0,6.979133107E0,-2.847735525E0,8.312062072E0
8.911014667E0,5.029544524E0,7.218106472E0,-2.303614687E0,9.094175047E0
8.920979667E0,4.796697287E0,6.001176934E0,-1.253931304E0,7.784264459E0
8.930945667E0,4.077506426E0,4.793861387E0,-8.689035550E-1,6.353121992E0
8.940910667E0,3.768667020E0,4.137665797E0,4.680047089E-1,5.616240537E0
8.950876667E0,3.748318418E0,3.345414269E0,2.225268429E0,5.494861888E0
8.960841667E0,3.357206349E0,2.155319942E0,3.714994259E0,5.451368715E0
8.970807667E0,2.057715003E0,4.564003247E-1,5.485350187E0,5.876355925E0
8.980772667E0,-3.287757799E-2,-1.044487547E0,7.524166696E0,7.596388592E0
8.990738667E0,-2.738197880E0,-2.587466601E0,7.974464867E0,8.819569204E0
9.000703667E0,-3.571552411E0,-3.658060212E0,5.692414126E0,7.651207076E0
9.010669667E0,-2.504878481E0,-3.687295121E0,2.297953120E0,5.015092228E0
9.020634667E0,-1.807667596E0,-3.264003485E0,8.014842814E-1,3.816249198E0
9.030600667E0,-1.060644135E0,-2.485260780E0,-6.472633839E-2,2.702901519E0
9.040565667E0,-1.599627171E-1,-2.264167031E0,-4.703775090E-1,2.318036975E0
9.050530667E0,-3.003143115E-1,-3.560668988E0,1.149147445E-1,3.575158420E0
9.060496667E0,-1.705915080E0,-5.850414079E0,1.440243475E0,6.261932004E0
9.070461667E0,-3.505286500E0,-8.425038441E0,2.788973347E0,9.541838319E0
9.080427667E0,-5.583562945E0,-1.140579871E1,4.140002344E0,1.335694721E1
9.090392667E0,-6.984900216E0,-1.376635241E1,5.123718025E0,1.626510916E1
9.100358667E0,-6.876792215E0,-1.439229802E1,5.405791216E0,1.684194442E1
9.110323667E0,-6.368557493E0,-1.409901454E1,5.760769247E0,1.650839780E1
9.120289667E0,-6.445650693E0,-1.415447889E1,6.249415212E0,1.676158930E1
9.130254667E0,-7.284150773E0,-1.533768052E1,6.827908908E0,1.830091900E1
9.140220667E0,-8.482787297E0,-1.786479684E1,8.109278271E0,2.137449509E1
9.150185667E0,-9.388208175E0,-2.108371244E1,9.639416254E0,2.501159189E1
9.160151667E0,-9.660498390E0,-2.391336721E1,1.022522833E1,2.774400214E1
9.170116667E0,-8.386342737E0,-2.440941458E1,9.372910690E0,2.745909174E1
9.180082667E0,-7.429482733E0,-2.219637677E1,8.052565541E0,2.475318499E1
9.190047667E0,-8.078865148E0,-1.802607474E1,6.546878275E0,2.081031109E1
9.200013667E0,-8.020046836E0,-1.296982131E1,4.485155590E0,1.589509473E1
9.209978667E0,-8.122857260E0,-8.058868255E0,1.812338352E0,1.158493582E1
9.219944667E0,-1.183905985E1,-3.340976232E0,-3.795656014E0,1.287371216E1
9.229909792E0,-7.526816654E0,7.215803254E-1,-4.711330277E0,8.908999949E0
9.239875792E0,-6.818730533E-3,4.032496022E0,-3.555229324E0,5.375939565E0
9.249840792E0,2.502954454E0,6.882599670E0,-3.887825382E0,8.291570745E0
9.259806792E0,4.474806311E0,8.899135948E0,-2.540678936E0,1.027976467E1
9.269771792E0,5.564346655E0,9.910904231E0,-5.526729763E-1,1.137951773E1
9.279737792E0,6.493473315E0,9.849862808E0,9.397066122E-1,1.183503450E1
9.289702792E0,7.665456476E0,9.278451844E0,4.197324938E0,1.274623192E1
9.299668792E0,1.024897621E1,9.907791173E0,1.002146806E1,1.742514451E1
9.309633792E0,1.243633889E1,1.137521543E1,1.530430110E1,2.276575682E1
9.319599792E0,1.248169340E1,1.268801592E1,1.605486023E1,2.396950052E1
9.329564792E0,1.086748298E1,1.416211769E1,1.102190795E1,2.097975736E1
9.339530792E0,8.977764627E0,1.527527553E1,4.583276255E0,1.830138578E1
9.349495792E0,8.200880751E0,1.434280835E1,3.629922241E-1,1.652580890E1
9.359461792E0,8.862569801E0,1.310245955E1,-2.984649249E0,1.609744454E1
9.369426792E0,8.438106383E0,1.232381156E1,-5.784351652E0,1.601676293E1
9.379392792E0,6.155275040E0,1.069981992E1,-6.050212269E0,1.374694969E1
9.389357792E0,5.008156579E0,9.439188879E0,-5.707961873E0,1.211448504E1
9.399323792E0,4.678039447E0,9.063189524E0,-5.444369976E0,1.156142819E1
9.409288792E0,4.963478004E0,9.294610625E0,-4.810640557E0,1.158309817E1
9.419254792E0,5.241492058E0,9.740032802E0,-4.029821213E0,1.177204048E1
9.429219792E0,4.555755749E0,1.010935171E1,-3.277966052E0,1.156282682E1
9.439185792E0,3.336301676E0,9.794237076E0,-3.192583547E0,1.082823063E1
9.449150792E0,1.155206330E0,8.630678583E0,-5.687770268E0,1.040066561E1
9.459116792E0,-5.223861533E-1,7.279261331E0,-8.117242763E0,1.091559265E1
9.469081792E0,1.603096032E-1,7.085962906E0,-6.872973983E0,9.872909442E0
9.479047792E0,1.857763324E0,7.557574178E0,-6.161758432E0,9.926503866E0
9.489012792E0,3.411303326E0,8.164948441E0,-4.970278316E0,1.014923839E1
9.498978792E0,4.439296170E0,9.187400756E0,-4.162721993E0,1.102016050E1
9.508943792E0,5.028990793E0,9.961517730E0,-3.953854480E0,1.183873089E1
9.518909792E0,5.446681380E0,1.034479804E1,-3.648419908E0,1.224712833E1
9.528874792E0,5.483580235E0,1.055565565E1,-2.897861659E0,1.224292124E1
9.538840792E0,5.008942444E0,1.057169573E1,-1.953877223E0,1.186034954E1
9.548805792E0,3.896562291E0,1.001251598E1,-1.219431562E0,1.081298697E1
9.558771792E0,3.059176691E0,9.245758892E0,-1.037263897E0,9.793800892E0
9.568736792E0,2.711866699E0,8.725236831E0,-8.141528589E-1,9.173157779E0
9.578702792E0,2.590065981E0,8.401225655E0,-6.478913748E-1,8.815259357E0
9.588667792E0,2.548830539E0,8.325532279E0,-5.927996399E-1,8.727109273E0
9.598632792E0,2.527737001E0,8.342082823E0,-3.608481963E-1,8.724105203E0
9.608598792E0,2.615980841E0,8.276046708E0,-3.478496897E-1,8.686616389E0
9.618564792E0,2.823458178E0,8.105163000E0,-5.911985260E-1,8.603202836E0
9.628529792E0,2.930043857E0,7.955500007E0,-7.787590778E-1,8.513612809E0
9.638494792E0,2.928621521E0,7.849615118E0,-6.881485775E-1,8.406356522E0
9.648460792E0,3.413662970E0,7.882695156E0,-4.323057032E-1,8.600980526E0
9.658425792E0,4.501961950E0,8.033383166E0,-3.022041316E-1,9.213806696E0
9.668391792E0,5.928763261E0,7.887709728E0,-2.061986978E-1,9.869585425E0
9.678356792E0,7.114751088E0,7.210245475E0,1.070794170E0,1.018596697E1
9.688322792E0,8.200241066E0,6.176319169E0,3.951102195E0,1.100009457E1
9.698287792E0,1.039657864E1,4.140474799E0,8.536841882E0,1.407515713E1
9.708253792E0,1.042640412E1,-2.795174904E0,1.399191343E1,1.767191407E1
9.718218792E0,-1.261827851E1,-2.916339503E1,2.495851023E1,4.040608612E1
9.728184792E0,-3.021337955E1,-5.199882570E1,1.728167741E1,6.257301776E1
9.738149792E0,-2.155763629E1,-4.993164785E1,8.591282383E0,5.506097777E1
9.748115792E0,-1.937810654E1,-5.143698780E1,1.406037848E1,5.673595835E1
9.758080792E0,-1.158818038E1,-4.237314397E1,1.541531634E1,4.655535664E1
9.768046792E0,-3.361867164E0,-3.114607827E1,1.111558853E1,3.324058740E1
9.778011792E0,7.786692646E0,-2.218877539E1,5.299340317E0,2.410513106E1
9.787977792E0,8.176022483E0,-1.311922000E1,1.407047077E0,1.552227621E1
9.797942792E0,7.168335557E-1,-4.897475218E0,9.510063565E-1,5.040191162E0
9.807908792E0,-1.026141791E1,8.152088660E-1,3.508213909E0,1.087514726E1
9.817873792E0,-1.487771398E1,-3.956403866E0,-1.118509906E1,1.902908158E1
9.827839792E0,-1.581175405E1,-1.022496988E1,-2.780667962E1,3.358233176E1
9.837804792E0,-1.086138902E1,-1.113214785E1,-3.715129739E1,4.027546877E1
9.847770792E0,-7.584256777E-1,-9.044476095E0,-3.361930548E1,3.482291571E1
9.857735792E0,1.973706594E0,-4.923241559E0,-2.059227970E1,2.126442589E1
9.867701792E0,1.888978100E0,-2.164753255E0,-9.217094672E0,9.654492690E0
9.877666792E0,2.721646459E0,-1.047987106E0,-3.032022221E0,4.206993603E0
9.887632792E0,4.724969785E0,2.560466498E-1,1.968519382E0,5.125033455E0
9.897597792E0,5.199934727E0,1.390399470E0,5.212022091E0,7.492510002E0
9.907563792E0,4.581982850E0,1.734305797E0,5.529040582E0,7.387331941E0
9.917528792E0,5.198201612E0,2.647409917E0,5.777295232E0,8.210189978E0
9.927494792E0,6.738360554E0,3.720382175E0,9.420516965E0,1.216523269E1
9.937459792E0,7.771667640E0,5.446196061E0,1.243390879E1,1.564167373E1
9.947425792E0,7.924622616E0,6.644367147E0,1.184935562E1,1.572750734E1
9.957390792E0,8.491333002E0,7.480065241E0,1.013091858E1,1.518847009E1
9.967356792E0,9.060687500E0,8.410762464E0,7.032633961E0,1.422304200E1
9.977321792E0,8.802597833E0,8.314305040E0,4.398945705E0,1.288270625E1
9.987287792E0,8.037467446E0,8.523385100E0,1.969874328E0,1.187978878E1
9.997252792E0,7.867377205E0,9.352143719E0,3.760214286E-1,1.222700324E1
1.000721879E1,7.867544435E0,9.878418270E0,-2.088410546E-1,1.263032136E1
1.001718379E1,7.391405665E0,9.555183604E0,-2.947850382E-1,1.208392774E1
1.002714979E1,6.696253585E0,8.713321960E0,5.909795478E-2,1.098932592E1
1.003711479E1,5.904703138E0,7.339230959E0,5.967517729E-1,9.438534998E0
1.004708079E1,5.421222603E0,5.760842337E0,5.029250117E-1,7.926530926E0
1.005704579E1,5.248554325E0,4.100441837E0,4.164878154E-1,6.673410512E0
1.006701179E1,4.318598237E0,2.294025838E0,1.229904510E0,5.042371504E0
1.007697679E1,8.161911982E-1,-9.067136979E-1,3.003881326E0,3.242159901E0
1.008694279E1,-8.358441578E0,-1.026980867E1,8.505423623E0,1.573768556E1
1.009690779E1,-1.998937563E1,-2.414988942E1,1.472147170E1,3.463400101E1
1.010687379E1,-1.466100798E1,-2.271639305E1,1.005688348E1,2.884650019E1
1.011683879E1,-3.344420242E-1,-1.061553699E1,4.774133466E0,1.164447626E1
1.012680479E1,2.582179549E0,-2.136808827E0,2.994183719E-2,3.351790521E0
1.013676979E1,1.180890809E0,3.152638586E0,-4.733541218E0,5.808618220E0
1.014673579E1,1.907080495E0,4.850020385E0,-5.767715154E0,7.773428578E0
1.015670079E1,2.268912047E0,4.214693508E0,-5.397789887E0,7.214411889E0
1.016666679E1,-2.618690148E-1,2.143382851E0,-5.825682111E0,6.212989417E0
1.017663179E1,-3.299943104E0,-1.126875401E0,-7.816285404E0,8.558842806E0
1.018659779E1,-4.054095929E0,-3.511155936E0,-9.627485595E0,1.102054394E1
1.019656279E1,-1.692442949E0,-3.201416643E0,-7.500432263E0,8.328860414E0
1.020652779E1,8.185803705E-1,-1.137614982E0,-3.387967381E0,3.666410321E0
1.021649379E1,2.333064188E0,2.989991266E-1,-8.098120321E-1,2.487646380E0
1.022646292E1,2.994562619E0,1.222990177E0,6.038090698E-1,3.290546405E0
1.023642892E1,2.947424120E0,1.912930634E0,1.188730610E0,3.709406020E0
1.024639392E1,2.459934735E0,2.230491747E0,1.481684300E0,3.636173909E0
1.025635992E1,1.788630524E0,1.950425320E0,2.069040182E0,3.359209037E0
1.026632492E1,1.376122908E0,9.165662563E-1,2.574839539E0,3.060001080E0
1.027629092E1,3.764066139E-1,-2.297721863E-1,2.974958074E0,3.007466166E0
1.028625592E1,-9.757178593E-1,-1.080623340E0,3.364878480E0,3.666357775E0
1.029622192E1,-1.744649814E0,-1.411911961E0,3.423070555E0,4.093251811E0
1.030618692E1,-1.603054225E0,-1.003036636E0,2.874427480E0,3.440668347E0
1.031615292E1,-1.338950112E0,-2.086134517E-1,2.110873356E0,2.508404532E0
1.032611792E1,-1.244438349E0,4.974945563E-1,1.445514009E0,1.971202270E0
1.033608392E1,-9.235577720E-1,1.026577526E0,7.139828919E-1,1.554539142E0
1.034604892E1,-3.349823070E-1,1.258406178E0,-2.508937910E-2,1.302470242E0
1.035601492E1,3.257665104E-1,9.840618360E-1,-6.826320219E-1,1.241163967E0
1.036597992E1,8.948403418E-1,3.283813852E-1,-1.106683357E0,1.460589478E0
1.037594592E1,9.486063668E-1,-3.337497139E-1,-1.321537396E0,1.660633614E0
1.038591092E1,8.790937901E-1,-7.306522804E-1,-1.355852512E0,1.773413285E0
1.039587692E1,7.220621359E-1,-5.512216973E-1,-1.089082653E0,1.418210179E0
1.040584192E1,2.029472074E-1,-5.886450469E-2,-5.595390692E-1,5.981108333E-1
1.041580792E1,-2.679469031E-1,2.309235030E-1,-1.059152949E-1,3.692414614E-1
1.042577292E1,-6.379139784E-1,1.177845579E-1,2.437699820E-1,6.929871933E-1
1.043573892E1,-9.687649351E-1,-6.360601187E-2,4.383026075E-1,1.065204394E0
1.044570392E1,-8.851959443E-1,-7.049169302E-2,4.491567940E-1,9.951295213E-1
1.045566992E1,-4.497023392E-1,5.437501252E-2,3.658051734E-1,5.822390065E-1
1.046563492E1,-4.817579448E-2,2.230408716E-1,2.707202375E-1,3.540587304E-1
1.047560092E1,2.660930434E-1,3.599177581E-1,1.670191370E-1,4.777464730E-1
1.048556592E1,5.171347690E-1,3.729032546E-1,6.585938260E-2,6.409544952E-1
1.049553192E1,6.313478476E-1,2.937915963E-1,1.734284163E-2,6.965733133E-1
1.050549692E1,6.045108819E-1,2.047262228E-1,1.878710389E-2,6.385132637E-1
1.051546292E1,5.515166894E-1,1.365114355E-1,1.532862201E-2,5.683669566E-1
1.052542792E1,4.238401043E-1,5.394933522E-2,1.219889984E-2,4.274339457E-1
1.053539392E1,2.054416296E-1,-8.439520240E-2,2.995952502E-2,2.241124416E-1
1.054535892E1,-3.854484558E-3,-1.761707604E-1,-3.704664275E-2,1.800651205E-1
1.055532492E1,-1.471402118E-1,-2.063505793E-1,-2.213067336E-1,3.364631835E-1
1.056528992E1,-1.796744120E-1,-2.624119288E-1,-4.771890767E-1,5.734564758E-1
1.057525592E1,-1.474366656E-1,-3.260103393E-1,-7.501183923E-1,8.310823750E-1
1.058522092E1,-7.313375741E-2,-3.258267367E-1,-8.979433130E-1,9.580259924E-1
1.059518692E1,2.347569376E-2,-2.552765715E-1,-9.272573054E-1,9.620412395E-1
1.060515192E1,6.860830486E-3,-1.523608983E-1,-8.275828899E-1,8.415190753E-1
1.061511792E1,-6.698073238E-2,-7.339542031E-2,-5.656293829E-1,5.742907844E-1
1.062508292E1,-1.728855023E-1,-3.688599050E-2,-2.847126245E-1,3.351287093E-1
1.063504892E1,-3.322127733E-1,8.415078878E-2,-8.085836783E-2,3.521146938E-1
1.064501392E1,-4.311204726E-1,1.968149400E-1,7.841350079E-2,4.803640906E-1
1.065497992E1,-3.935293078E-1,1.493028045E-1,1.778177749E-1,4.569199105E-1
1.066494492E1,-2.959527272E-1,8.470452011E-2,1.575625813E-1,3.458161932E-1
1.067491092E1,-2.624312246E-1,5.188994586E-2,4.235723019E-3,2.675456138E-1
1.068487592E1,-3.258855012E-1,-1.891048014E-2,-1.847277220E-1,3.750777218E-1
1.069484192E1,-3.257241181E-1,-5.204489708E-2,-3.641141586E-1,4.913084498E-1
1.070480692E1,-2.069908494E-1,-3.394951880E-2,-4.452713192E-1,4.922035445E-1
1.071477292E1,-2.903201044E-2,8.294275403E-3,-4.100630410E-1,4.111731390E-1
1.072473792E1,1.324002582E-1,1.732120693E-2,-2.954681392E-1,3.242395316E-1
1.073470392E1,1.624236640E-1,-6.562914848E-3,-1.656921114E-1,2.321171994E-1
1.074466892E1,6.118380278E-2,-1.210782945E-2,-9.039152205E-2,1.098211479E-1
1.075463492E1,-1.008188617E-1,-2.323800445E-2,-1.186196865E-1,1.574010094E-1
1.076459992E1,-2.842881167E-1,-4.925694466E-2,-2.041040790E-1,3.534182437E-1
1.077456492E1,-3.940514642E-1,-7.410761118E-3,-3.344579579E-1,5.169077301E-1
1.078453092E1,-3.768203044E-1,1.063047194E-1,-3.540269807E-1,5.278535197E-1
1.079449692E1,-2.171699747E-1,2.374665374E-1,-2.535855567E-1,4.097057345E-1
1.080446192E1,1.012123793E-1,3.163413835E-1,-6.924696699E-2,3.392800599E-1
1.081442692E1,4.120024163E-1,2.858621871E-1,1.436625803E-1,5.216340844E-1
1.082439292E1,4.608509329E-1,1.802445155E-1,3.465052687E-1,6.041006282E-1
1.083435792E1,3.444536269E-1,9.497340024E-2,4.616061008E-1,5.837366188E-1
1.084432392E1,2.095721027E-1,1.852631807E-2,4.339758141E-1,4.822848722E-1
1.085428892E1,1.316070834E-1,3.375422180E-2,2.990681237E-1,3.284836594E-1
1.086425492E1,1.047250941E-1,5.783656418E-2,1.629886512E-1,2.021823779E-1
1.087421992E1,1.027265158E-1,-2.882501900E-2,6.337066144E-3,1.068820714E-1
1.088418592E1,1.396282938E-1,-1.284855473E-1,-7.085948288E-2,2.025479267E-1
1.089415092E1,2.868059278E-1,-2.149758071E-1,-1.169963533E-1,3.770416217E-1
1.090411692E1,3.400495040E-1,-1.663684881E-1,-1.164777052E-1,3.960797834E-1
1.091408192E1,2.762072647E-1,1.908414245E-2,-1.393350559E-1,3.099498594E-1
1.092404792E1,2.596847874E-1,1.207017338E-1,-1.243648683E-1,3.122046089E-1
1.093401292E1,2.422144765E-1,1.354039729E-1,-1.289100552E-1,3.059736766E-1
1.094397892E1,2.811604410E-1,1.847649980E-1,-1.788721740E-1,3.810309078E-1
1.095394392E1,2.952189016E-1,1.883651286E-1,-2.407747458E-1,4.249801169E-1
1.096390992E1,2.629662448E-1,9.586802423E-2,-2.719452292E-1,3.902513698E-1
1.097387492E1,1.180614236E-1,1.200135165E-1,-2.060044241E-1,2.660442945E-1
1.098384092E1,-9.104114771E-2,1.370587349E-1,-5.203378737E-2,1.725720210E-1
1.099380592E1,-3.266865698E-1,1.218512964E-1,1.522914626E-1,3.804793593E-1
1.100377192E1,-5.269703704E-1,5.870019794E-3,3.542325103E-1,6.349904722E-1
1.101373692E1,-6.123087287E-1,-1.586928481E-1,5.310524578E-1,8.259068424E-1
1.102370292E1,-5.793380338E-1,-2.781134570E-1,6.051422350E-1,8.827099053E-1
1.103366792E1,-5.604524043E-1,-3.040078515E-1,5.915398572E-1,8.697396587E-1
1.104363392E1,-4.865851137E-1,-2.452216995E-1,4.360524528E-1,6.978828672E-1
1.105359892E1,-4.098637971E-1,-2.059933144E-1,2.209855753E-1,5.091720753E-1
1.106356492E1,-3.016207257E-1,-9.727837265E-2,7.680127725E-2,3.260929011E-1
1.107352992E1,-1.345473558E-1,3.987099409E-2,-6.077552095E-2,1.529259659E-1
1.108349592E1,-1.291620702E-2,1.479865962E-1,-1.708994955E-1,2.264365223E-1
1.109346092E1,-6.835687459E-3,9.941143692E-2,-2.633575697E-1,2.815787100E-1
1.110342692E1,1.818279415E-2,-5.195835829E-2,-3.979439557E-1,4.017333405E-1
1.111339192E1,3.711520135E-3,-1.494367057E-1,-5.411101073E-1,5.613779944E-1
1.112335792E1,1.012395689E-1,-1.219501144E-1,-6.661668473E-1,6.847624035E-1
1.113332292E1,1.988114718E-1,-4.889558673E-2,-7.599750437E-1,7.870697852E-1
1.114328892E1,1.693149000E-1,-5.143210888E-3,-7.860778914E-1,8.041221545E-1
1.115325392E1,1.007489875E-1,9.036462486E-2,-7.113256247E-1,7.240858156E-1
1.116321992E1,1.628382316E-1,1.947625673E-1,-4.893792057E-1,5.513082208E-1
1.117318492E1,3.245219305E-1,2.602198076E-1,-2.043672037E-1,4.634595836E-1
1.118315092E1,4.264163876E-1,2.122796559E-1,3.703670248E-2,4.777711850E-1
1.119311592E1,3.666908804E-1,1.652715504E-1,2.339779423E-1,4.653198519E-1
1.120308192E1,1.175462839E-1,1.198603195E-1,3.658414261E-1,4.025215200E-1
1.121304692E1,-8.613942683E-2,9.506344736E-2,4.243108052E-1,4.432795047E-1
1.122301292E1,-1.620509040E-1,5.228229403E-2,4.054161125E-1,4.397228196E-1
1.123297396E1,-1.763458845E-1,2.082310438E-2,3.170750628E-1,3.634117061E-1
1.124293996E1,-1.576447347E-1,6.490409374E-2,1.582781343E-1,2.326292577E-1
1.125290496E1,-7.524518698E-2,9.989207804E-2,-1.449656323E-2,1.258984343E-1
1.126287096E1,3.958623469E-2,7.051274300E-2,-1.820093514E-1,1.991645573E-1
1.127283596E1,9.992862314E-2,4.463530540E-2,-2.958172180E-1,3.154138023E-1
1.128280196E1,9.328209311E-2,6.176998615E-3,-2.716091605E-1,2.872476984E-1
1.129276696E1,3.798058927E-2,-6.281429887E-2,-1.406771381E-1,1.586764585E-1
1.130273296E1,1.501389563E-2,-6.047541261E-2,-8.867200211E-2,1.083762730E-1
1.131269796E1,-4.123164117E-3,7.790771663E-2,-1.458583559E-1,1.654124324E-1
1.132266396E1,-2.969800830E-3,2.163177431E-1,-2.083569051E-1,3.003577627E-1
1.133262896E1,-9.020294935E-2,2.975098407E-1,-2.503217871E-1,3.991361604E-1
1.134259496E1,-1.714424095E-1,2.888536227E-1,-2.741924603E-1,4.336016840E-1
1.135255996E1,-2.433815807E-1,3.367323786E-1,-2.498252124E-1,4.848050385E-1
1.136252496E1,-2.971268481E-1,3.692703795E-1,-1.738431300E-1,5.048429567E-1
1.137249096E1,-2.607694459E-1,4.035847646E-1,-5.461357892E-2,4.835948812E-1
1.138245596E1,-1.875991434E-1,4.875209606E-1,4.094848976E-2,5.239722363E-1
1.139242196E1,-1.246649766E-1,6.799399638E-1,9.586349264E-2,6.978893322E-1
1.140238696E1,-9.669832885E-3,9.917380607E-1,8.060693756E-2,9.950554583E-1
1.141235296E1,1.634159365E-1,1.324516552E0,-2.333389878E-2,1.334763401E0
1.142231796E1,3.716314852E-1,1.691137558E0,-1.693267407E-1,1.739749334E0
1.143228396E1,5.597507384E-1,2.032875738E0,-3.240674557E-1,2.133289566E0
1.144224896E1,7.073294914E-1,2.293066894E0,-4.211714351E-1,2.436361256E0
1.145221496E1,8.030147901E-1,2.513406352E0,-4.095769912E-1,2.670168077E0
1.146217996E1,9.512039924E-1,2.680720335E0,-3.033783987E-1,2.860609901E0
1.147214596E1,1.217444970E0,2.841854981E0,-1.461707434E-1,3.095105470E0
1.148211096E1,1.493954244E0,3.120681213E0,5.021237969E-2,3.460212681E0
1.149207696E1,1.991362554E0,3.325077653E0,1.167887771E-1,3.877538631E0
1.150204196E1,1.648859850E0,3.278157840E0,-7.543665406E-1,3.746214958E0
1.151200796E1,9.936068308E-1,3.315685855E0,-2.072405840E0,4.034339251E0
1.152197296E1,7.040834096E-1,3.266410199E0,-2.913161191E0,4.433021223E0
1.153193896E1,1.457191922E0,2.859404814E0,-3.763797167E0,4.946288841E0
1.154190396E1,3.293343352E0,2.718114449E0,-3.967601284E0,5.828903545E0
1.155186996E1,5.240600358E0,2.786132185E0,-2.999150636E0,6.649911969E0
1.156183496E1,6.500886415E0,2.628986510E0,-1.685292974E0,7.212025143E0
1.157180096E1,6.793474070E0,2.830352338E0,-5.353383207E-1,7.378941077E0
1.158176596E1,6.202729872E0,2.849825905E0,-3.823824683E-1,6.836781546E0
1.159173196E1,3.934661871E0,1.940023123E0,4.251335084E-2,4.387147267E0
1.160169696E1,8.292793134E-1,5.964674520E-1,8.749235559E-1,1.344979119E0
1.161166296E1,-1.460668969E0,-6.795014226E-1,1.682714059E0,2.329549876E0
1.162162796E1,-3.821263895E0,-2.952624049E0,2.461267315E0,5.420136836E0
1.163159396E1,-5.925174240E0,-5.809288273E0,1.779753573E0,8.486639075E0
1.164155896E1,-6.821505037E0,-7.046642720E0,1.254766286E0,9.887494274E0
1.165152496E1,-6.090494907E0,-5.626142369E0,1.787329518E0,8.481872021E0
1.166148996E1,-6.087670702E0,-5.108526959E0,3.288627280E0,8.600689022E0
1.167145596E1,-7.344726173E0,-6.860675535E0,4.288764281E0,1.092736795E1
1.168142096E1,-8.599095433E0,-9.609694272E0,5.052446898E0,1.384983343E1
1.169138696E1,-9.861439126E0,-1.306266807E1,6.475061603E0,1.760135511E1
1.170135196E1,-1.139922761E1,-1.689147868E1,8.503678229E0,2.208114547E1
1.171131796E1,-1.209321843E1,-2.010123988E1,1.056600990E1,2.572831790E1
1.172128296E1,-1.081294600E1,-2.189823426E1,1.119966564E1,2.686791722E1
1.173124896E1,-9.090601856E0,-2.319286628E1,1.012090347E1,2.688830183E1
1.174121396E1,-7.543312234E0,-2.441259079E1,9.051858205E0,2.710742122E1
1.175117996E1,-6.662775936E0,-2.477070000E1,8.546193919E0,2.703733700E1
1.176114496E1,-6.787478335E0,-2.306625067E1,8.077392819E0,2.536466158E1
1.177111096E1,-6.053082667E0,-1.921259642E1,7.171183151E0,2.138199099E1
1.178107596E1,-4.892277921E0,-1.467326725E1,5.599184366E0,1.644962068E1
1.179104196E1,-4.499879464E0,-1.008715802E1,3.621857176E0,1.162400626E1
1.180100696E1,-5.909403130E0,-5.500440096E0,1.118917340E-1,8.073933760E0
1.181097296E1,-6.700736060E0,-2.040363683E0,-6.314328661E0,9.430466274E0
1.182093796E1,-9.086441562E-1,4.416401982E-1,-7.126610411E0,7.197864698E0
1.183090396E1,2.624666002E0,3.187162301E0,-5.067960731E0,6.536903022E0
1.184086896E1,3.590850854E0,6.338488771E0,-3.312018481E0,8.002506868E0
1.185083496E1,4.445098363E0,8.310237132E0,-1.137711461E0,9.492804012E0
1.186079996E1,5.716048572E0,9.818284335E0,7.430793679E-1,1.138525738E1
1.187076596E1,6.629201224E0,1.022394778E1,2.597975802E0,1.245892834E1
1.188073096E1,7.270975826E0,9.084480990E0,4.581707447E0,1.250547590E1
1.189069696E1,8.331679457E0,7.849053785E0,8.234208126E0,1.410059259E1
1.190066196E1,1.131241633E1,8.680916691E0,1.292943342E1,1.924835906E1
1.191062796E1,1.431854825E1,1.057241143E1,1.561779606E1,2.367936362E1
1.192059296E1,1.429129087E1,1.294533083E1,1.089760550E1,2.214904943E1
1.193055896E1,1.213618377E1,1.384563013E1,4.599630917E0,1.897748758E1
1.194052396E1,1.029597613E1,1.377764689E1,9.420595318E-1,1.722550883E1
1.195048996E1,8.563466594E0,1.328961956E1,-1.681545201E0,1.589888494E1
1.196045496E1,7.749268126E0,1.314079623E1,-2.928834652E0,1.553414801E1
1.197041996E1,7.141337793E0,1.300112496E1,-3.976479111E0,1.535709418E1
1.198038596E1,6.358314925E0,1.262706454E1,-4.994704474E0,1.499393212E1
1.199035096E1,4.798713115E0,1.192545246E1,-4.878802720E0,1.374942835E1
1.200031696E1,3.466218914E0,1.139587949E1,-4.338670559E0,1.267693990E1
1.201028196E1,2.077098522E0,1.093173336E1,-4.400072756E0,1.196569149E1
1.202024796E1,-1.585566372E0,9.742434838E0,-8.031252440E0,1.272517478E1
1.203021296E1,-3.889427811E0,7.967623624E0,-1.030572577E1,1.359480263E1
1.204017896E1,-1.547760030E0,7.808154851E0,-7.449781927E0,1.090238937E1
1.205014396E1,7.197463462E-1,8.520733387E0,-5.109589983E0,9.961367479E0
1.206010996E1,1.847766924E0,8.934331509E0,-4.131526513E0,1.001528998E1
1.207007496E1,2.761313386E0,9.487971615E0,-2.981895795E0,1.032173239E1
1.208004096E1,3.105523476E0,9.871047270E0,-2.429230567E0,1.062934671E1
1.209000596E1,2.744552342E0,9.675003578E0,-2.310693034E0,1.031879664E1
1.209997196E1,2.564367760E0,9.714507367E0,-2.462131534E0,1.034455060E1
1.210993696E1,3.023454588E0,9.717747309E0,-2.490961815E0,1.047763242E1
1.211990296E1,3.631185240E0,9.638878895E0,-2.512910509E0,1.060227390E1
1.212986796E1,4.182172756E0,9.521784893E0,-2.355839678E0,1.066325171E1
1.213983396E1,4.643116075E0,9.266634037E0,-2.021499395E0,1.056008963E1
1.214979896E1,4.900257908E0,8.833880437E0,-1.725672968E0,1.024831295E1
1.215976496E1,5.064409132E0,8.342714322E0,-1.426814759E0,9.863311943E0
1.216972996E1,5.234156726E0,7.980346581E0,-1.234924344E0,9.623272121E0
1.217969596E1,5.403665754E0,7.771308036E0,-1.338325483E0,9.559495137E0
1.218966096E1,5.538853379E0,7.697434899E0,-1.499403264E0,9.600917192E0
1.219962696E1,5.635637078E0,7.753102731E0,-1.482479668E0,9.698904742E0
1.220959196E1,5.716744391E0,7.835755463E0,-1.316786825E0,9.788470649E0
1.221955796E1,5.861767033E0,7.912151674E0,-1.102798028E0,9.908512520E0
1.222952254E1,5.887166169E0,7.853454984E0,-9.372753400E-1,9.859714284E0
1.223948854E1,5.971950211E0,7.705052651E0,-9.356179467E-1,9.793232695E0
1.224945354E1,6.346515244E0,7.322887407E0,-7.675911883E-1,9.720706350E0
1.225941954E1,7.062221457E0,6.755822094E0,1.760343741E-1,9.774819291E0
1.226938454E1,9.106784610E0,5.557462143E0,2.760414961E0,1.101992750E1
1.227935054E1,1.140342591E1,2.895579198E0,6.201424189E0,1.329963019E1
1.228931554E1,1.256684407E1,-3.599856443E0,8.281489881E0,1.547474106E1
1.229928154E1,-3.597115268E0,-2.107916331E1,1.306395797E1,2.505867838E1
1.230924654E1,-3.052828252E1,-5.402372116E1,2.901499270E1,6.850115534E1
1.231921254E1,-3.376060462E1,-5.909313083E1,2.271817762E1,7.174881274E1
1.232917754E1,-2.473961153E1,-4.914591773E1,1.500065520E1,5.702972263E1
1.233914354E1,-1.356213606E1,-3.381741850E1,7.551301285E0,3.720983042E1
1.234910854E1,-1.253712150E1,-2.542431112E1,6.153647760E0,2.900762645E1
1.235907454E1,-1.138641636E1,-1.824570084E1,2.105396707E0,2.160992299E1
1.236903954E1,-3.492632249E0,-9.683462160E0,-1.743932068E0,1.044074799E1
1.237900554E1,7.227663746E0,-3.014775274E0,-2.833632334E0,8.328112954E0
1.238897054E1,8.052701197E0,2.753977761E0,-3.936635891E0,9.376966045E0
1.239893654E1,-2.994445090E0,4.916739455E0,-5.027372868E0,7.643003743E0
1.240890154E1,-3.622460024E0,-1.653165740E-1,-7.623262968E0,8.441782068E0
1.241886754E1,-3.137830220E0,-5.657291656E0,-1.069560057E1,1.249987196E1
1.242883254E1,-8.725737938E0,-1.095743304E1,-1.621035991E1,2.142380942E1
1.243879854E1,-1.540615258E1,-1.771068528E1,-2.109086008E1,3.155696896E1
1.244876354E1,-1.385574113E1,-1.731470833E1,-1.251401096E1,2.546332966E1
1.245872954E1,-5.819777008E0,-7.611228229E0,-8.113488266E0,1.255505043E1
1.246869454E1,-2.062622863E-1,-2.707445034E0,-4.997932137E0,5.687893142E0
1.247866054E1,5.815961115E0,1.357307153E0,-2.686545331E0,6.548680189E0
1.248862554E1,9.031277760E0,3.874301357E0,-1.812186617E0,9.992907951E0
1.249859154E1,1.028256729E1,5.637723364E0,-1.449141183E0,1.181588444E1
1.250855654E1,9.982504556E0,6.906269783E0,-1.806002017E0,1.227226967E1
1.251852254E1,9.023097505E0,7.156911852E0,-8.674569538E-1,1.154946568E1
1.252848754E1,8.256578404E0,7.504086188E0,2.789297867E0,1.150054690E1
1.253845254E1,7.751058544E0,8.267067139E0,6.215866227E0,1.292518087E1
1.254841854E1,6.841325344E0,8.575018938E0,8.816016608E0,1.407326654E1
1.255838354E1,6.877730108E0,8.689416788E0,1.065950454E1,1.537641612E1
1.256834954E1,7.076293366E0,8.993908789E0,1.122791588E1,1.603216823E1
1.257831454E1,6.829497596E0,8.958185810E0,1.074546212E1,1.556779003E1
1.258828054E1,6.481298243E0,8.721122730E0,6.617838914E0,1.272246047E1
1.259824554E1,6.050768924E0,8.826504759E0,2.706824645E0,1.103838260E1
1.260821154E1,5.043267939E0,9.065617872E0,-1.029854013E-1,1.037451613E1
1.261817654E1,3.955308390E0,9.045163143E0,-1.994705407E0,1.007165778E1
1.262814254E1,2.797760250E0,8.258123238E0,-2.834885684E0,9.168458904E0
1.263810754E1,1.740524311E0,7.180035251E0,-2.523841293E0,7.807182972E0
1.264807354E1,9.163586801E-1,6.221349161E0,-1.110878734E0,6.385839818E0
1.265803854E1,-1.077635998E-1,4.670738906E0,1.287907720E-1,4.673756732E0
1.266800454E1,-8.816747510E-1,2.919174467E0,6.442035359E-1,3.116717525E0
1.267796954E1,-2.515637065E0,1.903888500E-1,8.463575685E-1,2.661014636E0
1.268793554E1,-5.388574675E0,-5.211542035E0,2.152056026E0,7.799246922E0
1.269790054E1,-9.663641853E0,-1.363225003E1,5.648461776E0,1.763885867E1
1.270786654E1,-1.105331218E1,-2.226436352E1,7.214351975E0,2.588289913E1
1.271783154E1,-3.020355856E0,-2.361306825E1,5.335980139E0,2.439615186E1
1.272779754E1,5.476329103E0,-1.894543480E1,-5.361555861E0,2.043687748E1
1.273776254E1,1.766365496E0,-9.045803998E0,-1.120784707E1,1.451077024E1
1.274772854E1,-7.413146782E-1,-2.031182969E0,-1.020207335E1,1.042868891E1
1.275769354E1,1.534397095E-2,2.502390783E0,-8.698119199E0,9.050937668E0
1.276765954E1,7.099794495E-1,4.613057293E0,-6.269436078E0,7.816021824E0
1.277762454E1,6.615601185E-1,4.724425701E0,-4.094911541E0,6.286983420E0
1.278759054E1,-4.808077723E-1,3.978203455E0,-2.420092538E0,4.681252689E0
1.279755554E1,-1.473277320E0,3.057427788E0,-8.493093891E-1,3.498533576E0
1.280752154E1,-1.657178976E0,2.385069324E0,4.658312988E-1,2.941393656E0
1.281748654E1,-9.725808281E-1,2.125292736E0,1.486102602E0,2.769708220E0
1.282745254E1,1.791209731E-1,2.053419930E0,1.988809513E0,2.864259243E0
1.283741754E1,9.189779404E-1,1.793828114E0,1.630372124E0,2.592383656E0
1.284738354E1,1.100759981E0,1.388229568E0,1.065475105E0,2.067387498E0
1.285734854E1,1.305327452E0,9.097419709E-1,9.073989916E-1,1.831634008E0
1.286731454E1,1.557583060E0,4.581006950E-1,9.299967259E-1,1.871046537E0
1.287727954E1,1.578663442E0,-5.757928669E-2,1.119967939E0,1.936445666E0
1.288724554E1,1.521768279E0,-5.425473529E-1,1.411582763E0,2.145390925E0
1.289721054E1,1.282648149E0,-9.004957688E-1,1.676083902E0,2.294632029E0
1.290717654E1,8.171267527E-1,-9.390821296E-1,1.743567056E0,2.142334580E0
1.291714154E1,2.059830818E-1,-6.683063436E-1,1.639694924E0,1.782599743E0
1.292710754E1,-5.154031160E-1,-2.929817569E-1,1.488053818E0,1.601806121E0
1.293707254E1,-1.044344290E0,6.552097499E-2,1.255517069E0,1.634402369E0
1.294703854E1,-1.155340231E0,4.663727510E-1,1.043925776E0,1.625452435E0
1.295700354E1,-7.651069987E-1,8.617392540E-1,1.087162866E0,1.584268399E0
1.296696954E1,-5.937701315E-2,1.052675403E0,1.268656347E0,1.649587846E0
1.297693454E1,3.663418016E-1,9.247517735E-1,1.300778611E0,1.637497222E0
1.298690054E1,4.975799257E-1,6.571995574E-1,1.174743047E0,1.435102180E0
1.299686554E1,3.316186962E-1,4.053740126E-1,1.011381782E0,1.138943439E0
1.300683154E1,3.048855186E-2,1.332235461E-1,8.246959734E-1,8.359434871E-1
1.301679654E1,-1.794621581E-1,-1.611299676E-1,5.668055503E-1,6.159854418E-1
1.302676254E1,-1.955937490E-1,-3.735470331E-1,2.308802336E-1,4.807285958E-1
1.303672754E1,-1.651242006E-1,-4.921817762E-1,-1.103831524E-1,5.307479088E-1
1.304669354E1,-1.432512286E-1,-5.585798335E-1,-4.681871420E-1,7.427863386E-1
1.305665854E1,-7.765102386E-2,-5.534950948E-1,-7.538148558E-1,9.384153336E-1
1.306662454E1,1.118692222E-1,-4.984955996E-1,-1.000003100E0,1.122950928E0
1.307658954E1,3.587339893E-1,-4.475932485E-1,-1.157043525E0,1.291425379E0
1.308655554E1,4.386198190E-1,-3.587605941E-1,-1.096994959E0,1.234704195E0
1.309652054E1,4.525861859E-1,-1.803070807E-1,-8.829133375E-1,1.008405107E0
1.310648554E1,4.466053614E-1,-1.312466025E-1,-6.688207524E-1,8.148639262E-1
1.311645154E1,4.051974267E-1,-1.258706725E-1,-4.964327019E-1,6.530496216E-1
1.312641754E1,4.261094087E-1,-3.093001664E-2,-2.290278357E-1,4.847469893E-1
1.313638254E1,4.114027843E-1,9.167147756E-2,1.634982361E-1,4.520924506E-1
1.314634754E1,2.413017261E-1,1.254058188E-1,6.054166156E-1,6.636884969E-1
1.315631354E1,-4.347697198E-3,6.575486362E-2,8.739752837E-1,8.764561603E-1
1.316627854E1,-2.250049514E-1,1.718964458E-2,8.367073238E-1,8.666036336E-1
1.317624454E1,-3.381652388E-1,8.158970833E-2,5.413140289E-1,6.434543396E-1
1.318620954E1,-3.542175999E-1,1.676759255E-1,2.860555838E-1,4.851939005E-1
1.319617554E1,-2.054056692E-1,1.938135642E-1,1.329803020E-1,3.121521221E-1
1.320614054E1,7.075189412E-2,1.807076150E-1,4.236424685E-2,1.986348460E-1
1.321610654E1,4.469205263E-1,1.403045243E-1,-1.191370189E-2,4.685779046E-1
1.322607121E1,7.269357902E-1,6.855041742E-2,-5.290575340E-2,7.320750109E-1
1.323603721E1,7.634639311E-1,-4.255895913E-2,-7.762719646E-2,7.685794824E-1
1.324600221E1,4.064911231E-1,-6.359373271E-2,-1.298274833E-1,4.314329281E-1
1.325596821E1,-5.046293288E-2,-4.519371450E-2,-2.182128257E-1,2.284859223E-1
1.326593321E1,-2.337474158E-1,-1.419060767E-2,-2.667729284E-1,3.549746795E-1
1.327589921E1,-2.348113167E-1,-3.247368157E-2,-1.862053134E-1,3.014354212E-1
1.328586421E1,-6.324173033E-2,-1.253514397E-1,-5.594396666E-2,1.511364526E-1
1.329583021E1,3.225090265E-2,-1.713649338E-1,-3.478684008E-2,1.778094078E-1
1.330579521E1,-6.892785519E-2,-1.439309675E-1,-8.120335355E-2,1.790562963E-1
1.331576121E1,-1.646868289E-1,-7.461865783E-2,-1.390407948E-1,2.280834021E-1
1.332572621E1,-1.392026165E-1,2.586808205E-2,-2.343549415E-2,1.435121894E-1
1.333569221E1,-1.311232263E-1,1.193779242E-1,1.716755672E-1,2.468134713E-1
1.334565721E1,-1.266843125E-1,1.751404810E-1,3.142837483E-1,3.814411849E-1
1.335562321E1,-5.353652179E-2,2.121363991E-1,3.294387080E-1,3.954717099E-1
1.336558821E1,7.883333087E-2,1.478421700E-1,2.971987689E-1,3.411731371E-1
1.337555421E1,2.105433252E-1,1.403273284E-2,3.190809502E-1,3.825415823E-1
1.338551921E1,2.916687647E-1,-4.174502671E-2,3.070981050E-1,4.255849640E-1
1.339548521E1,2.890114975E-1,-7.235578537E-2,2.255053268E-1,3.736517868E-1
1.340545021E1,2.243705285E-1,-7.227626324E-2,1.026478708E-1,2.571042155E-1
1.341541621E1,2.603215492E-1,-4.232507050E-2,1.496404812E-2,2.641640462E-1
1.342538121E1,4.568520221E-1,-4.159182966E-2,-2.215553865E-2,4.592760807E-1
1.343534721E1,6.705084050E-1,5.112396061E-2,-3.141358137E-2,6.731879333E-1
1.344531221E1,7.416584945E-1,2.173848599E-1,-1.807622865E-2,7.730719564E-1
1.345527821E1,5.184249571E-1,2.993061054E-1,4.015575349E-4,5.986223702E-1
1.346524321E1,1.106857458E-1,2.719469833E-1,-3.815498248E-2,2.960781970E-1
1.347520921E1,-2.027963492E-1,1.514586729E-1,-2.132220809E-1,3.309527831E-1
1.348517421E1,-3.936295876E-1,-4.288055599E-2,-3.863946815E-1,5.532484471E-1
1.349514021E1,-3.874496654E-1,-1.847509646E-1,-4.293902814E-1,6.071459264E-1
1.350510521E1,-2.972838458E-1,-1.818004596E-1,-3.453301245E-1,4.905935049E-1
1.351507121E1,-4.400819153E-1,-1.155205160E-1,-2.394228695E-1,5.141404402E-1
1.352503621E1,-5.716273105E-1,-6.625363111E-2,-1.972441256E-1,6.083194645E-1
1.353500221E1,-5.271738535E-1,9.195916057E-3,-1.582981610E-1,5.505044455E-1
1.354496721E1,-3.472050342E-1,1.136137390E-1,-5.622814134E-2,3.696228096E-1
1.355493321E1,-9.408111513E-2,1.990596861E-1,5.374862954E-2,2.266383242E-1
1.356489821E1,1.511560795E-1,2.604653907E-1,1.476935045E-1,3.354157888E-1
1.357486421E1,3.600434732E-1,3.168506759E-1,2.272725016E-1,5.307338725E-1
1.358482921E1,5.095211095E-1,4.243324399E-1,2.660366178E-1,7.144545210E-1
1.359479521E1,6.717906994E-1,5.727786273E-1,2.442341048E-1,9.159849330E-1
1.360476021E1,8.115698513E-1,6.623339975E-1,2.092174691E-1,1.068224647E0
1.361472621E1,8.948266008E-1,6.751388150E-1,1.990177323E-1,1.138479303E0
1.362469121E1,8.696157458E-1,7.170183277E-1,1.734254926E-1,1.140361008E0
1.363465721E1,8.631990114E-1,7.819189131E-1,1.615802032E-1,1.175847729E0
1.364462221E1,9.455497348E-1,9.378676629E-1,1.514855701E-1,1.340376041E0
1.365458821E1,1.295737434E0,1.271435528E0,1.396385264E-1,1.820709400E0
1.366455321E1,1.808822713E0,1.718207828E0,1.148007238E-1,2.497450091E0
1.367451921E1,2.423216267E0,2.166006898E0,9.929727003E-2,3.251680013E0
1.368448421E1,2.917615015E0,2.640859281E0,9.729357541E-2,3.936506212E0
1.369444921E1,3.278544926E0,3.110577809E0,5.010186732E-2,4.519630664E0
1.370441521E1,3.349171982E0,3.422289952E0,9.268231496E-2,4.789322655E0
1.371438021E1,3.256246569E0,3.574099458E0,2.762265605E-1,4.842894771E0
1.372434621E1,3.233865474E0,3.617061290E0,5.252407640E-1,4.880255746E0
1.373431121E1,3.478539290E0,3.419413707E0,6.795022997E-1,4.924870461E0
1.374427721E1,3.689585475E0,2.950201548E0,7.585803366E-1,4.784576708E0
1.375424221E1,3.540642275E0,2.479481392E0,8.607110211E-1,4.407357389E0
1.376420821E1,2.782921479E0,1.995669320E0,9.719309101E-1,3.559774949E0
1.377417321E1,1.775271975E0,1.584046973E0,9.547131988E-1,2.563644416E0
1.378413921E1,5.268493330E-1,1.260110641E0,1.273822947E0,1.867638602E0
1.379410421E1,-1.399859680E0,6.443649191E-1,1.656695119E0,2.262620602E0
1.380407021E1,-3.095680566E0,-1.779670250E-1,1.988618163E0,3.683681938E0
1.381403521E1,-3.844535521E0,-7.889940441E-1,1.850913311E0,4.339221711E0
1.382400121E1,-3.918127407E0,-1.018148764E0,1.037049889E0,4.178973769E0
1.383396621E1,-4.380700053E0,-1.106099074E0,4.647530723E-1,4.542024167E0
1.384393221E1,-5.385206094E0,-1.390912271E0,2.519144225E-1,5.567633473E0
1.385389721E1,-6.630329736E0,-2.195002071E0,1.320242822E-1,6.985466120E0
1.386386321E1,-7.873839548E0,-3.816431463E0,1.327317953E-2,8.750009972E0
1.387382821E1,-9.956042397E0,-6.714525549E0,2.689084777E-1,1.201165873E1
1.388379421E1,-1.312394923E1,-1.122663300E1,1.130220885E0,1.730759172E1
1.389375921E1,-1.726488889E1,-1.782976968E1,2.709748545E0,2.496637363E1
1.390372521E1,-2.137426293E1,-2.536736392E1,4.641219823E0,3.349482332E1
1.391369021E1,-1.910930886E1,-2.914032192E1,6.697359293E0,3.548490761E1
1.392365621E1,-1.315485761E1,-2.957482852E1,6.697318947E0,3.305411989E1
1.393362121E1,-9.128151505E0,-2.952887174E1,4.993402884E0,3.130832938E1
1.394358721E1,-7.508309047E0,-2.784976424E1,2.101843647E0,2.892061237E1
1.395355221E1,-9.470611231E0,-2.506079674E1,-3.674482117E0,2.704140953E1
1.396351821E1,-7.483917972E0,-1.919807661E1,-7.901219720E0,2.206817724E1
1.397348321E1,-3.510930233E0,-1.395044849E1,-8.310946984E0,1.661365354E1
1.398344921E1,-3.165703019E0,-9.244544426E0,-5.795958960E0,1.136118029E1
1.399341421E1,-2.473151196E0,-4.647356476E0,-2.666285899E0,5.901142224E0
1.400338021E1,-1.251447406E0,-1.047183698E0,7.544194579E-2,1.633525573E0
1.401334521E1,9.208043182E-1,9.054243869E-1,2.337154316E0,2.670199282E0
1.402331121E1,2.818798532E0,2.491709674E0,5.881711886E0,6.982032439E0
1.403327621E1,3.684649841E0,4.321177152E0,1.090626523E1,1.229617167E1
1.404324221E1,4.875161074E0,6.368499021E0,1.520550772E1,1.719105698E1
1.405320721E1,6.302807892E0,7.404039159E0,1.615151120E1,1.885249313E1
1.406317321E1,1.012824056E1,7.627979917E0,1.964168381E1,2.337868853E1
1.407313821E1,1.278062061E1,8.730415125E0,2.198719614E1,2.688868174E1
1.408310421E1,1.259890084E1,1.024919255E1,1.705141874E1,2.354844223E1
1.409306921E1,9.280674956E0,1.162471612E1,1.033396198E1,1.811230860E1
1.410303521E1,7.215426693E0,1.323103280E1,5.907308072E0,1.618699787E1
1.411300021E1,7.044099766E0,1.469050017E1,1.916499628E0,1.640436245E1
1.412296621E1,6.312471001E0,1.609667601E1,-1.682135331E0,1.737181188E1
1.413293121E1,5.109015786E0,1.662742543E1,-3.558343551E0,1.775486209E1
1.414289721E1,4.324658584E0,1.603967267E1,-4.580347384E0,1.723233453E1
1.415286221E1,3.687306231E0,1.473001448E1,-5.203248929E0,1.605127264E1
1.416282821E1,3.546630993E0,1.290984291E1,-5.173493618E0,1.435296734E1
1.417279321E1,3.861900582E0,1.189709814E1,-4.675014683E0,1.335331354E1
1.418275921E1,3.895783150E0,1.103608979E1,-4.364699440E0,1.249091691E1
1.419272421E1,4.702699787E0,9.611215133E0,-1.130499037E1,1.556578456E1
1.420269021E1,4.872168176E0,7.139843829E0,-2.028204047E1,2.204714399E1
1.421265521E1,4.768551130E0,7.383257570E0,-1.292918666E1,1.563379161E1
1.422262021E1,4.299839492E0,8.857399693E0,-7.616481952E0,1.244800973E1
1.423258642E1,3.121867613E0,9.296647795E0,-5.069762843E0,1.103975602E1
1.424255142E1,2.304441775E0,8.945728902E0,-3.438325941E0,9.856906348E0
1.425251742E1,2.043729632E0,9.310074171E0,-2.645710716E0,9.892122981E0
1.426248242E1,2.419005395E0,1.015374261E1,-2.332504025E0,1.069535652E1
1.427244842E1,2.758094201E0,1.086048036E1,-2.540923934E0,1.148970895E1
1.428241342E1,2.865019018E0,1.145705657E1,-2.411298764E0,1.205349912E1
1.429237942E1,2.717685556E0,1.170857455E1,-1.984223688E0,1.218251519E1
1.430234442E1,2.375043688E0,1.143635509E1,-1.688706286E0,1.180181253E1
1.431231042E1,1.960016800E0,1.077213010E1,-1.720136240E0,1.108329019E1
1.432227542E1,1.906648678E0,9.996357780E0,-1.762176697E0,1.032800778E1
1.433224142E1,2.548060753E0,9.303145806E0,-1.672208221E0,9.789658616E0
1.434220642E1,3.400054160E0,8.911770027E0,-1.408160387E0,9.641728527E0
1.435217242E1,4.130427821E0,8.760076881E0,-8.348291981E-1,9.720921805E0
1.436213742E1,4.594564012E0,8.587467075E0,6.371425845E-2,9.739541505E0
1.437210342E1,4.969848545E0,8.379279885E0,1.552845061E0,9.865244738E0
1.438206842E1,5.313922103E0,8.281589869E0,4.212015483E0,1.070343745E1
1.439203442E1,6.457356234E0,8.182512308E0,8.284649717E0,1.331489309E1
1.440199942E1,8.451879500E0,7.937145597E0,1.268831763E1,1.718795950E1
1.441196542E1,9.616289932E0,7.252982190E0,1.342380498E1,1.803544629E1
1.442193042E1,8.550012735E0,5.758457258E0,1.019410827E1,1.449766848E1
1.443189642E1,8.137797480E0,3.154858773E0,7.834604146E0,1.172850817E1
1.444186142E1,7.452836512E0,-1.177994683E0,8.427412410E0,1.131166316E1
1.445182742E1,1.594195693E0,-1.069533394E1,9.870443838E0,1.464094565E1
1.446179242E1,-2.188791510E1,-4.208801034E1,2.388670624E1,5.311361574E1
1.447175842E1,-4.073612941E1,-7.070361950E1,2.447387662E1,8.519040255E1
1.448172342E1,-2.077898129E1,-5.532578382E1,2.470893937E1,6.405653833E1
1.449168942E1,-1.411911961E1,-4.004654154E1,1.698333142E1,4.573301405E1
1.450165442E1,-1.246687656E1,-3.055174388E1,8.148717740E0,3.398872852E1
1.451162042E1,-6.746991629E0,-2.265406875E1,1.654123221E0,2.369524953E1
1.452158542E1,4.407612740E0,-1.445131630E1,-1.496472055E-1,1.510926826E1
1.453155142E1,1.189382370E1,-3.263615815E0,1.362297459E0,1.240846827E1
1.454151642E1,1.064310661E1,2.814790558E0,-5.388175310E0,1.225688367E1
1.455148242E1,8.110733643E0,1.319833517E-1,-1.272106204E1,1.508730722E1
1.456144742E1,4.273025623E0,-3.809301953E0,-1.558215261E1,1.660039184E1
1.457141342E1,-3.175734795E0,-8.010967280E0,-1.904866037E1,2.090723201E1
1.458137842E1,-3.896963118E0,-9.304576035E0,-2.348785597E1,2.556248882E1
1.459134442E1,-3.495308227E0,-1.326303110E1,-2.711299168E1,3.038485629E1
1.460130942E1,-7.895565462E0,-1.506179368E1,-2.566276058E1,3.078595237E1
1.461127542E1,-5.408414862E0,-9.568853225E0,-1.757915100E1,2.073259398E1
1.462124042E1,2.598480124E0,-2.765835915E0,-1.518155986E1,1.564869666E1
1.463120642E1,7.497144374E0,5.916230339E-1,-9.017593521E0,1.174198384E1
1.464117142E1,9.515782142E0,2.902685319E0,-4.137454128E0,1.077470271E1
1.465113742E1,8.860254303E0,4.384990155E0,-2.148854091E0,1.011680873E1
1.466110242E1,7.846079307E0,6.090774989E0,8.510733479E-1,9.969093554E0
1.467106842E1,6.414632968E0,8.158487853E0,2.901489564E0,1.077622763E1
1.468103342E1,4.055398689E0,7.133559827E0,2.896057500E0,8.701786217E0
1.469099942E1,4.351038005E0,5.649595551E0,8.311559772E0,1.095132355E1
1.470096442E1,6.774624401E0,5.437914065E0,1.590385939E1,1.812178768E1
1.471093042E1,6.796308800E0,5.589522427E0,1.921626964E1,2.113522162E1
1.472089542E1,6.161294163E0,5.230185882E0,1.773994241E1,1.949415161E1
1.473086142E1,6.036768351E0,4.239015586E0,1.114283071E1,1.336317707E1
1.474082642E1,5.740376498E0,3.072038811E0,4.971834260E0,8.191976605E0
1.475079242E1,4.631010000E0,2.570880389E0,8.581391233E-1,5.365825411E0
1.476075742E1,3.021777899E0,3.231826842E0,-2.166239910E-1,4.429759854E0
1.477072342E1,8.816230032E-1,3.770975209E0,1.067964630E0,4.017220631E0
1.478068842E1,-1.413105378E0,4.002786904E0,2.469789047E0,4.911112679E0
1.479065442E1,-2.528186359E0,3.789857622E0,3.799258191E0,5.932040953E0
1.480061942E1,-2.748582535E0,3.087680697E0,4.037156838E0,5.778158303E0
1.481058542E1,-2.371797607E0,2.262033967E0,2.508245015E0,4.127167868E0
1.482055042E1,-2.179872693E0,1.273059300E0,5.307196051E-1,2.579571329E0
1.483051642E1,-2.008639614E0,2.987962282E-1,-1.562083662E-1,2.036740862E0
1.484048142E1,-1.470302549E0,-6.199025077E-1,1.785581785E-1,1.605600114E0
1.485044642E1,-1.863224623E0,-2.262094778E0,4.754971848E-1,2.968968904E0
1.486041242E1,-2.435743634E0,-4.682085428E0,1.253160641E0,5.424498373E0
1.487037742E1,-2.996121779E0,-7.455887589E0,9.499963962E-1,8.091322427E0
1.488034342E1,-2.470124093E0,-9.846184909E0,-7.301337494E0,1.250433523E1
1.489030842E1,-2.579679572E0,-7.122430236E0,-1.302999617E1,1.507197928E1
1.490027442E1,-7.460161319E-1,-3.776692032E0,-1.057459361E1,1.125353157E1
1.491023942E1,1.228371370E0,-5.537243056E-1,-8.552227076E0,8.657718798E0
1.492020542E1,2.716991491E0,1.752653190E0,-5.442438056E0,6.330400300E0
1.493017042E1,3.549868596E0,2.615401089E0,-2.872735296E0,5.262556222E0
1.494013642E1,3.455696849E0,3.049808282E0,-1.204277333E0,4.763764810E0
1.495010142E1,2.703986991E0,2.723371680E0,8.619088233E-2,3.838714345E0
1.496006742E1,1.643145074E0,1.456791680E0,9.619236928E-1,2.397387103E0
1.497003242E1,5.617133564E-1,1.646049678E-1,1.632247910E0,1.734027085E0
1.497999842E1,-2.828763065E-1,-6.702452803E-1,2.440327851E0,2.546457885E0
1.498996342E1,-1.085888173E0,-1.058441343E0,3.347102945E0,3.674581517E0
1.499992942E1,-1.575464430E0,-9.508122289E-1,3.957099684E0,4.364031391E0
1.500989442E1,-1.113554566E0,-3.098737782E-1,3.871796994E0,4.040648153E0
1.501986042E1,4.525923255E-1,7.708969116E-2,2.758257923E0,2.796206252E0
1.502982542E1,8.551854023E-1,8.039670092E-1,1.455270234E0,1.869630038E0
1.503979142E1,5.210120577E-1,1.354189417E0,8.166696467E-1,1.665002058E0
1.504975642E1,1.272187480E-1,9.196705431E-1,4.597443473E-1,1.036022868E0
1.505972242E1,-5.524960980E-1,-2.350837970E-1,1.739738884E-1,6.251265822E-1
1.506968742E1,-1.412371260E0,-1.535748387E0,1.071274227E-1,2.089208455E0
1.507965342E1,-1.933060551E0,-2.192195408E0,-2.868838419E-1,2.936791811E0
1.508961842E1,-1.846206302E0,-2.010836413E0,-1.390277117E0,3.063463930E0
1.509958442E1,-1.148155757E0,-1.200029916E0,-2.507957917E0,3.008020338E0
1.510954942E1,2.842109334E-1,-3.347583586E-1,-2.661425108E0,2.697410354E0
1.511951542E1,1.490285701E0,-3.134283006E-2,-1.801101465E0,2.337926502E0
1.512948042E1,2.234718406E0,-1.959507215E-1,-9.059890817E-1,2.419334466E0
1.513944642E1,2.832052708E0,-3.754105407E-1,-2.419180226E-1,2.867050740E0
1.514941142E1,2.834166184E0,-5.932017821E-1,1.469652338E-1,2.899307692E0
1.515937742E1,2.096080339E0,-8.552786654E-1,9.708534144E-2,2.265939087E0
1.516934242E1,1.217778554E0,-9.370332652E-1,1.432328099E-1,1.543221172E0
1.517930842E1,3.419486797E-1,-6.552249527E-1,7.113973993E-1,1.025833757E0
1.518927342E1,-3.225979042E-1,-4.031777984E-1,1.320810587E0,1.418154558E0
1.519923942E1,-7.982563260E-1,-1.131623340E-1,1.896787056E0,2.061024020E0
1.520920442E1,-1.020310188E0,3.455423784E-1,2.329673388E0,2.566673043E0
1.521917042E1,-8.177597138E-1,8.541595083E-1,2.382956579E0,2.660225831E0
1.522913579E1,-3.917128703E-1,1.276126165E0,2.093425995E0,2.482814805E0
1.523910179E1,5.549183071E-2,1.497412287E0,1.530437507E0,2.141859441E0
1.524906679E1,4.454496592E-1,1.284464294E0,8.174021566E-1,1.586322857E0
1.525903279E1,4.825414717E-1,4.735683346E-1,3.723793441E-1,7.718676152E-1
1.526899779E1,2.866439599E-1,-3.893456250E-1,1.278967327E-1,5.001123371E-1
1.527896379E1,1.287796623E-1,-9.654770458E-1,-2.320246799E-1,1.001281968E0
1.528892879E1,1.477758041E-1,-1.104699250E0,-8.028829354E-1,1.373615350E0
1.529889479E1,5.569823742E-2,-7.775685847E-1,-1.436363263E0,1.634274952E0
1.530885979E1,-4.265111125E-1,-2.528990936E-1,-1.693723197E0,1.764813857E0
1.531882579E1,-6.115760726E-1,1.294135004E-1,-1.511547931E0,1.635710944E0
1.532879079E1,-4.725383475E-1,2.569360113E-1,-1.084583659E0,1.210632197E0
1.533875679E1,-2.368619353E-1,-1.992374414E-1,-6.112591535E-1,6.851546447E-1
1.534872179E1,-1.947605208E-1,-5.065179795E-1,-1.618328760E-1,5.662879160E-1
1.535868779E1,1.317898089E-1,-3.544424254E-1,-6.525609612E-2,3.837399441E-1
1.536865279E1,5.405654392E-1,-1.087447625E-1,-1.839312581E-1,5.812633870E-1
1.537861879E1,4.862576696E-1,-1.717140126E-1,-2.098378587E-1,5.567442414E-1
1.538858379E1,2.660211226E-1,9.290056229E-3,-1.933089495E-1,3.289709604E-1
1.539854979E1,2.336722791E-1,-9.788180530E-2,-1.636302370E-1,3.015931635E-1
1.540851479E1,-8.416540682E-2,-1.099387640E-1,-1.394696881E-1,1.965251674E-1
1.541848079E1,-3.585193965E-1,-1.125752735E-1,-3.692633629E-2,3.775882734E-1
1.542844579E1,-5.683151552E-1,-8.078454673E-2,9.674744546E-2,5.821239789E-1
1.543841179E1,-5.828817388E-1,1.788546324E-2,2.317369969E-1,6.275133839E-1
1.544837679E1,-2.916623327E-1,2.042999607E-1,2.356256877E-1,4.269951463E-1
1.545834279E1,1.192510396E-2,3.810735691E-1,1.544812448E-1,4.113681176E-1
1.546830779E1,5.626570970E-2,4.118556511E-1,1.607598388E-1,4.456844548E-1
1.547827379E1,4.458852768E-2,2.274128348E-1,2.135106410E-1,3.151055824E-1
1.548823879E1,-4.707447141E-2,-1.453208506E-2,3.223948596E-1,3.261374448E-1
1.549820479E1,-1.079925182E-1,-1.549664176E-1,3.759962855E-1,4.207733134E-1
1.550816979E1,-1.035366476E-1,-2.557045877E-1,3.651214877E-1,4.576225238E-1
1.551813579E1,-1.209835696E-1,-2.705804890E-1,2.981267220E-1,4.203931107E-1
1.552810079E1,-1.735398057E-1,-1.349467206E-1,1.794102640E-1,2.837511664E-1
1.553806679E1,-1.575111258E-1,4.225958169E-2,6.011522412E-2,1.738087085E-1
1.554803179E1,-8.165227354E-2,2.796530288E-1,-4.399971306E-2,2.946334758E-1
1.555799779E1,1.616550475E-2,5.696924669E-1,-7.405571714E-2,5.747130411E-1
1.556796279E1,6.387995392E-2,8.595944953E-1,4.475312680E-3,8.619764343E-1
1.557792879E1,1.618635008E-1,1.058084078E0,2.116795854E-1,1.091123254E0
1.558789379E1,3.600224233E-1,1.199751588E0,4.108696644E-1,1.318269282E0
1.559785979E1,5.506954479E-1,1.351378661E0,5.342619945E-1,1.554003102E0
1.560782479E1,6.535146421E-1,1.559954690E0,5.877046685E-1,1.790512999E0
1.561778979E1,6.766047120E-1,1.830000744E0,5.884595440E-1,2.037886477E0
1.562775579E1,7.636893412E-1,2.108876093E0,5.458099531E-1,2.308351856E0
1.563772079E1,9.235080707E-1,2.323414528E0,5.225019282E-1,2.554237752E0
1.564768679E1,1.097031504E0,2.500948275E0,5.269409882E-1,2.781346293E0
1.565765179E1,1.346141310E0,2.635427803E0,5.185958420E-1,3.004416379E0
1.566761779E1,1.632474490E0,2.686041301E0,4.866491407E-1,3.180663173E0
1.567758279E1,1.775525452E0,2.640420740E0,6.121618174E-1,3.240224438E0
1.568754879E1,1.687430716E0,2.434993436E0,8.822745292E-1,3.091120153E0
1.569751379E1,1.622730398E0,2.414778442E0,1.155771025E0,3.130529593E0
1.570747979E1,2.059485832E0,2.599153431E0,1.242446787E0,3.541292768E0
1.571744479E1,2.710608670E0,2.797260021E0,1.109104543E0,4.049959984E0
1.572741079E1,3.249432516E0,2.896690169E0,1.036673328E0,4.474853875E0
1.573737579E1,3.230420879E0,2.801705074E0,9.802061820E-1,4.387023426E0
1.574734179E1,2.680552813E0,2.327729189E0,1.132550416E0,3.726440259E0
1.575730679E1,2.113957616E0,1.808587071E0,1.221966622E0,3.038586253E0
1.576727279E1,1.913238490E0,1.322878747E0,4.834705943E-1,2.375759566E0
1.577723779E1,2.103294341E0,6.166818613E-1,-3.913611603E-1,2.226501103E0
1.578720379E1,2.550723575E0,-2.435780472E-1,-8.196726304E-1,2.690238696E0
1.579716879E1,2.825757304E0,-1.020767732E0,-1.227184970E0,3.245435880E0
1.580713479E1,2.628485696E0,-1.756579596E0,-1.638039870E0,3.560573486E0
1.581709979E1,1.874250133E0,-2.531766610E0,-1.781764723E0,3.619024904E0
1.582706579E1,7.141903219E-1,-3.333409935E0,-1.335839100E0,3.661441754E0
1.583703079E1,-4.690045828E-1,-4.209106493E0,-7.765140393E-1,4.305753920E0
1.584699679E1,-1.134227982E0,-5.013904392E0,-1.055448738E-1,5.141677750E0
1.585696179E1,-1.768148604E0,-5.273412593E0,4.655570644E-1,5.581395277E0
1.586692779E1,-3.501977561E0,-5.234570124E0,5.237652192E-1,6.319723192E0
1.587689279E1,-6.209336057E0,-5.656117535E0,4.742074353E-1,8.412632913E0
1.588685879E1,-8.167629390E0,-7.165679167E0,5.080867875E-1,1.087728275E1
1.589682379E1,-9.973446050E0,-9.883962600E0,6.688761547E-1,1.405737309E1
1.590678979E1,-1.158848794E1,-1.400379614E1,8.909893656E-1,1.819871483E1
1.591675479E1,-1.273811369E1,-2.060597621E1,1.319437953E0,2.426121828E1
1.592672079E1,-1.351843397E1,-2.824465946E1,2.675200564E0,3.142714660E1
1.593668579E1,-1.233705434E1,-3.443549726E1,4.807469905E0,3.689333474E1
1.594665179E1,-1.202904875E1,-3.685241345E1,7.065844392E0,3.940462597E1
1.595661679E1,-1.028786253E1,-3.232471556E1,7.002495657E0,3.463758504E1
1.596658279E1,-7.098136225E0,-2.440649097E1,3.645890402E0,2.567786705E1
1.597654779E1,-5.618160335E0,-1.588423263E1,2.311662502E0,1.700636220E1
1.598651379E1,-3.909843657E0,-9.704810929E0,2.608383553E0,1.078303748E1
1.599647879E1,-2.447452683E0,-5.807375649E0,4.114236004E0,7.526126125E0
1.600644479E1,-2.211859009E0,-3.245096514E0,6.588184760E0,7.669885924E0
1.601640979E1,-1.588887006E0,-8.512318075E-1,9.092216856E0,9.269172826E0
1.602637579E1,-8.832687020E-1,1.420183432E0,1.056192621E1,1.069351999E1
1.603634079E1,7.762108612E-1,3.059134006E0,1.060840572E1,1.106793007E1
1.604630679E1,3.103119101E0,3.961682147E0,1.050539299E1,1.164850013E1
1.605627179E1,6.884668999E0,4.928096502E0,7.794326186E0,1.150809815E1
1.606623779E1,9.428584954E0,5.879964738E0,4.455245036E0,1.197169194E1
1.607620279E1,1.151901484E1,6.440647815E0,2.983787954E0,1.353043376E1
1.608616879E1,1.481459796E1,5.358845676E0,3.970658793E0,1.624671262E1
1.609613379E1,2.002520269E1,4.874992089E0,7.238029690E0,2.184406932E1
1.610609979E1,2.269727031E1,7.346182129E0,9.930349731E0,2.584074916E1
1.611606479E1,1.954551583E1,8.685004479E0,9.397920985E0,2.336187943E1
1.612603079E1,1.399650584E1,9.824168973E0,5.494802211E0,1.796132854E1
1.613599579E1,1.055140823E1,1.018251441E1,1.626019456E0,1.475329640E1
1.614596179E1,6.944244525E0,1.310507442E1,-6.238236505E-1,1.484434786E1
1.615592679E1,4.336797404E0,1.610654377E1,-8.258700943E-1,1.670061751E1
1.616589279E1,3.267093154E0,1.374792433E1,-2.321299590E0,1.432018690E1
1.617585779E1,1.920957399E0,1.138367050E1,-6.635251923E0,1.331557733E1
1.618582379E1,-4.951598216E0,1.019427550E1,-1.657459233E1,2.007881194E1
1.619578879E1,-2.197758449E0,9.473805565E0,-1.480081608E1,1.771009008E1
1.620575479E1,3.531802746E0,9.971497757E0,-7.685711231E0,1.307572389E1
1.621571979E1,4.487634810E0,1.048811563E1,-6.638856146E0,1.319900931E1
1.622568579E1,4.384466829E0,1.057407204E1,-6.466414740E0,1.314720763E1
1.623565067E1,4.128917485E0,1.038582210E1,-5.232541140E0,1.234069476E1
1.624561667E1,3.878863354E0,1.040700306E1,-4.015694048E0,1.181004201E1
1.625558167E1,3.899746977E0,1.059590788E1,-3.424813610E0,1.179875581E1
1.626554767E1,3.127287105E0,1.001238851E1,-2.485068699E0,1.077976877E1
1.627551267E1,2.931367666E0,9.918124373E0,-2.046479870E0,1.054277892E1
1.628547867E1,2.696234460E0,9.848788090E0,-1.837344554E0,1.037516950E1
1.629544367E1,2.061634684E0,9.950529642E0,-1.395343291E0,1.025721018E1
1.630540967E1,2.080529376E0,9.941364716E0,-1.327394552E0,1.024311043E1
1.631537467E1,2.050334355E0,9.875472443E0,-1.499971029E0,1.019699662E1
1.632534067E1,1.737153537E0,9.909963999E0,-1.586082096E0,1.018532009E1
1.633530567E1,1.467490623E0,9.954218066E0,-1.706222498E0,1.020544861E1
1.634527167E1,1.320900926E0,9.988914274E0,-1.804412743E0,1.023616593E1
1.635523667E1,1.191255145E0,1.003899217E1,-1.877735658E0,1.028233163E1
1.636520267E1,1.026935229E0,1.013888717E1,-1.791673999E0,1.034706358E1
1.637516767E1,8.959451732E-1,1.023488559E1,-1.524217678E0,1.038647391E1
