"Time (s)","Linear Acceleration x (m/s^2)","Linear Acceleration y (m/s^2)","Linear Acceleration z (m/s^2)","Absolute acceleration (m/s^2)"
-1.468250004E-3,3.734496769E-1,-9.075141817E-2,-2.282355380E-1,4.469809190E-1
8.496750001E-3,6.996836722E-1,1.618772417E-1,-3.538237900E-1,8.005952516E-1
1.846275001E-2,8.093717368E-1,3.330135494E-1,-2.582276613E-1,9.125032370E-1
2.842775002E-2,5.638415967E-1,2.994367906E-1,-7.580096483E-2,6.429039773E-1
3.839375000E-2,4.595611833E-1,3.870301276E-1,2.265375066E-1,6.421121731E-1
4.835875001E-2,6.209965217E-1,5.639101553E-1,4.961023343E-1,9.745505986E-1
5.832375001E-2,6.836336499E-1,6.789465219E-1,8.848041809E-1,1.308129116E0
6.828974999E-2,6.435112256E-1,5.924919301E-1,9.172059417E-1,1.267446300E0
7.825475000E-2,6.969362117E-1,4.349150231E-1,6.381370497E-1,1.040235577E0
8.821975000E-2,7.308272584E-1,2.426366454E-1,4.527996093E-1,8.933132203E-1
9.818575002E-2,3.724353312E-1,1.886101270E-1,4.531890339E-1,6.161673120E-1
1.081507500E-1,2.232569262E-2,3.170638070E-1,5.236719561E-1,6.125848609E-1
1.181167500E-1,-1.550298598E-1,4.849829766E-1,2.106190467E-1,5.510019309E-1
1.280817500E-1,-1.732603088E-1,6.399920788E-1,-3.923470008E-1,7.704188242E-1
1.380467500E-1,-2.167694405E-2,6.800671408E-1,-7.774949098E-1,1.033179336E0
1.480127500E-1,6.480552430E-1,3.442723632E-1,-7.701332653E-1,1.063768915E0
1.579777500E-1,1.247210514E0,3.042317998E-1,-3.554522395E-1,1.332080083E0
1.679427500E-1,1.098772513E0,7.156614813E-1,8.745487493E-1,1.576168743E0
1.779087500E-1,1.121068823E0,7.821472469E-1,1.513609659E0,2.039500876E0
1.878737500E-1,1.385838349E0,5.739740905E-1,2.194181122E0,2.657898603E0
1.978397500E-1,1.404484243E0,2.790773705E-1,2.988040634E0,3.313434321E0
2.078047500E-1,1.130699260E0,2.762221751E-1,8.389374518E-1,1.434780665E0
2.177697500E-1,7.858562820E-1,4.985032010E-1,6.704610425E-1,1.146993264E0
2.277357500E-1,4.119641535E-1,7.867069057E-1,3.418603867E-1,9.515727735E-1
2.377007500E-1,1.669119137E-1,1.156288357E0,2.174784154E-1,1.188343053E0
2.476667500E-1,1.656368187E-2,8.532926586E-1,5.611122626E-1,1.021386160E0
2.576317500E-1,2.688477580E-1,3.567345339E-1,6.932084656E-1,8.246675824E-1
2.675967500E-1,7.458573069E-1,7.481711233E-1,6.956835920E-1,1.264926406E0
2.775627500E-1,8.128668369E-1,1.167191660E0,8.018696129E-1,1.632814669E0
2.875277500E-1,5.072206686E-1,9.594216692E-1,2.762493646E-1,1.119855552E0
2.974927500E-1,-3.354332735E-1,3.197973803E-1,-5.222253549E-1,6.982157021E-1
3.074587500E-1,-8.318455102E-1,2.182347527E-1,-1.289323331E0,1.549821929E0
3.174237500E-1,-8.535528597E-1,3.824774855E-1,-2.198662428E0,2.389342584E0
3.273897500E-1,5.143459395E-1,2.730369043E-1,-2.368347457E0,2.438887159E0
3.373547500E-1,1.394391364E0,1.380141992E0,-6.581684411E-1,2.069373067E0
3.473197500E-1,2.224983962E0,2.030965745E0,6.602465415E-1,3.084039718E0
3.572857500E-1,3.145009139E0,2.412519663E0,1.274305342E0,4.163554696E0
3.672507500E-1,2.755536629E0,1.880014903E0,5.056274486E-1,3.373884596E0
3.772167500E-1,1.534420484E-1,-2.329244202E-1,-2.368197768E0,2.384566820E0
3.871817500E-1,-1.672546921E0,-1.434336033E0,-4.695507127E0,5.186763947E0
3.971467500E-1,-1.578128421E0,-1.456967096E0,-1.668264420E0,2.719622880E0
4.071127500E-1,-4.168333858E-1,-2.562240543E0,-1.192434382E-1,2.598662285E0
4.170777500E-1,6.554176185E-1,-3.444005926E0,-3.721779075E0,5.112962797E0
4.270427500E-1,1.607073893E0,-2.491375213E0,-2.283866301E0,3.742416630E0
4.370087500E-1,1.405545659E0,-1.112373136E0,-6.006289154E-1,1.890419976E0
4.469737500E-1,1.284137581E0,-3.117086345E-1,-8.486590326E-2,1.324150226E0
4.569397500E-1,1.301929635E0,-1.832722038E-1,-2.324794471E-1,1.335161477E0
4.669047500E-1,1.163774255E0,-4.040545884E-1,-4.551063359E-1,1.313298292E0
4.768697500E-1,1.077985076E0,-6.403692243E-1,-6.241358918E-1,1.400596366E0
4.868357500E-1,7.202049141E-1,-1.115140331E0,-8.848299086E-1,1.595354833E0
4.968005000E-1,1.346150373E-1,-1.186678676E0,-9.284051138E-1,1.512700745E0
5.067655000E-1,-1.668257403E-1,-8.574576303E-1,-2.912521505E-1,9.208106378E-1
5.167315000E-1,-7.915114166E-1,-3.214325541E-1,7.390412807E-2,8.574794631E-1
5.266965000E-1,-8.536021225E-1,1.161365202E-1,-1.321745557E-1,8.715471233E-1
5.366625000E-1,-9.014517885E-1,1.913703051E-1,-9.680808109E-1,1.336569631E0
5.466275000E-1,-1.237643592E0,-3.857998735E-1,-1.946390156E0,2.338597409E0
5.565925000E-1,-8.598946036E-1,-1.130995349E0,-2.072993485E0,2.513139709E0
5.665585000E-1,-6.114097193E-2,-1.957890752E0,-1.446583611E-1,1.964179334E0
5.765235000E-1,2.088116723E-1,-2.684785904E0,1.837505060E0,3.260077072E0
5.864885000E-1,-2.772426604E-1,-3.131535107E0,8.371862108E-1,3.253345412E0
5.964545000E-1,-2.932730944E-1,-3.234661280E0,4.738221037E-1,3.282308653E0
6.064195000E-1,9.173740491E-2,-2.806124692E0,4.169626093E-1,2.838416699E0
6.163855000E-1,1.041514530E0,-2.329920725E0,-6.152042699E-1,2.625216067E0
6.263505000E-1,2.092263569E0,-1.980299622E0,-1.317637303E0,3.167857556E0
6.363155000E-1,2.369790258E0,-1.628711807E0,-6.335224271E-1,2.944479356E0
6.462815000E-1,2.261536223E0,-1.790988706E0,-7.022108388E-1,2.969054848E0
6.562465000E-1,2.148685691E0,-2.404683809E0,-8.473632896E-1,3.334273379E0
6.662125000E-1,1.553825931E0,-2.997183633E0,-1.045228974E0,3.534117763E0
6.761775000E-1,7.029168901E-1,-3.804689670E0,-1.598594261E0,4.186318102E0
6.861425000E-1,-3.021080911E-2,-4.434595886E0,-2.157115622E0,4.931500905E0
6.961085000E-1,-4.536883861E-2,-4.684899693E0,-2.677396778E0,5.396183556E0
7.060735000E-1,2.666657782E-1,-4.764974388E0,-3.208857225E0,5.750900473E0
7.160385000E-1,1.835443917E-1,-5.212861751E0,-3.612095250E0,6.344670856E0
7.260045000E-1,-5.352336556E-1,-5.792788600E0,-3.654698648E0,6.870203566E0
7.359695000E-1,-9.277031556E-1,-6.280079765E0,-3.557778710E0,7.277212677E0
7.459355000E-1,-8.056363893E-1,-6.882608441E0,-3.197077425E0,7.631556394E0
7.559005000E-1,-1.264821158E0,-7.393249876E0,-2.668979711E0,7.961367282E0
7.658655000E-1,-2.378483605E0,-7.896513880E0,-2.248628055E0,8.548008181E0
7.758315000E-1,-2.616870494E0,-8.525172594E0,-1.927918217E0,9.123784718E0
7.857965000E-1,-8.336761272E-1,-8.641189538E0,-2.022542539E0,8.913801144E0
7.957615000E-1,-1.290848869E-1,-7.775382961E0,-2.023014994E0,8.035286726E0
8.057275000E-1,-1.015406420E0,-7.143217088E0,-1.544826189E0,7.378555991E0
8.156925000E-1,-2.004806764E0,-7.581353050E0,-1.197309206E0,7.932825068E0
8.256585000E-1,-2.646479040E0,-8.313603959E0,-6.644357792E-1,8.749933543E0
8.356235000E-1,-2.354845651E0,-8.321418178E0,9.659670424E-1,8.701976262E0
8.455885000E-1,-1.298434462E0,-7.638300253E0,3.301446131E0,8.421942137E0
8.555545000E-1,2.680088836E-1,-6.701480995E0,5.300922573E0,8.548769293E0
8.655195000E-1,1.526015112E0,-5.357381533E0,6.141736397E0,8.291633433E0
8.754855000E-1,2.915914060E0,-3.707651033E0,5.529274471E0,7.267881889E0
8.854505000E-1,7.995381526E0,-2.685205442E0,1.977773917E0,8.663027397E0
8.954155000E-1,9.288779197E0,-2.924891582E0,1.414305226E0,9.840562434E0
9.053815000E-1,6.124756082E0,-1.239074113E0,3.323648009E0,7.077752314E0
9.153465000E-1,5.361352378E0,2.277570896E0,6.908444363E0,9.036483388E0
9.253115000E-1,5.426358798E0,4.605811424E0,9.783133214E0,1.209828765E1
9.352775000E-1,5.890609594E0,1.449356799E0,8.186347497E0,1.018902360E1
9.452425000E-1,5.342260634E0,8.988222957E-2,8.700021299E0,1.020971097E1
9.552085000E-1,4.328633521E0,1.495904582E0,8.638426729E0,9.777382831E0
9.651735000E-1,3.208038030E0,1.735979563E0,6.677823746E0,7.609103957E0
9.751385000E-1,1.935938258E0,1.456924119E0,4.961239105E0,5.521266004E0
9.851045000E-1,1.394331138E0,1.057171035E0,5.179720902E0,5.467291701E0
9.950695000E-1,7.986782026E-1,1.359995118E-1,6.510753007E0,6.560966960E0
1.005034500E0,2.210452169E-1,1.075328102E0,7.495315949E0,7.575285651E0
1.015000500E0,1.728165636E0,1.953580477E0,8.536833111E0,8.926396401E0
1.024965500E0,2.821209632E0,9.225502968E-1,8.143369292E0,8.667455582E0
1.034931500E0,4.195454999E0,1.255134661E0,7.942102282E0,9.069409811E0
1.044896500E0,6.851063297E0,2.413007905E0,8.685550609E0,1.132247609E1
1.054861500E0,8.614568335E0,3.359283864E0,8.847911416E0,1.279769948E1
1.064827500E0,8.414766637E0,3.842004846E0,7.342636963E0,1.181031822E1
1.074792500E0,8.258534882E0,4.336217360E0,4.138160764E0,1.020443795E1
1.084758500E0,9.175524477E0,5.944726160E0,9.943079120E-1,1.097809941E1
1.094723500E0,1.068429790E1,7.271274034E0,-8.274979591E-1,1.295030504E1
1.104688500E0,1.201715902E1,8.081179476E0,-1.725671214E0,1.458408426E1
1.114654500E0,1.247019076E1,8.858918214E0,-2.469013706E0,1.549458351E1
1.124619500E0,1.206718429E1,8.474773103E0,-2.938911159E0,1.503582105E1
1.134584500E0,1.141088345E1,7.484995029E0,-2.845563869E0,1.394025270E1
1.144550500E0,1.113023113E1,6.650264064E0,-2.011950307E0,1.312082319E1
1.154515500E0,1.067982478E1,5.422003791E0,-1.028076167E0,1.202138607E1
1.164481500E0,9.018098720E0,4.000667873E0,-6.115111685E-1,9.884603880E0
1.174446500E0,6.747567580E0,3.191917841E0,-1.072892736E0,7.541160824E0
1.184411500E0,4.691925123E0,2.571707186E0,-2.366744151E0,5.850582627E0
1.194377500E0,2.535977190E0,1.657755219E0,-3.563992546E0,4.677753258E0
1.204342500E0,7.611039948E-1,1.186937415E0,-3.832700171E0,4.083832798E0
1.214307500E0,-3.762420148E-1,1.084163829E0,-3.020977123E0,3.231605180E0
1.224273500E0,-1.525350283E0,7.115084964E-1,-2.051447080E0,2.653558544E0
1.234238500E0,-2.099591884E0,4.565804189E-1,-1.702618274E0,2.741470544E0
1.244204500E0,-2.917262428E0,5.194958746E-2,-2.076113559E0,3.580972821E0
1.254169500E0,-3.795055212E0,-7.761903960E-1,-2.137516632E0,4.424239251E0
1.264134500E0,-3.838991191E0,-1.021320294E0,-1.562891454E0,4.268908315E0
1.274100500E0,-3.960649529E0,-1.169907692E0,-9.196138251E-1,4.230971317E0
1.284065500E0,-3.821439604E0,-1.516274820E0,-6.754937410E-1,4.166387136E0
1.294031500E0,-3.879584316E0,-1.838085981E0,-7.606727627E-1,4.359857520E0
1.303996500E0,-4.047801694E0,-2.544503892E0,-1.921959904E0,5.152972781E0
1.313961500E0,-3.030235312E0,-2.407898316E0,-2.673977034E0,4.704301598E0
1.323927500E0,-2.491745342E0,-3.203687409E0,-3.883449910E0,5.617258323E0
1.333892500E0,-1.916067665E0,-2.439295525E0,-3.042208655E0,4.344710745E0
1.343857500E0,1.302239245E-1,1.067704502E-1,-1.569779767E0,1.578786469E0
1.353823500E0,9.066984951E-1,6.544501966E-1,-1.675171151E0,2.014101687E0
1.363788500E0,2.592339671E-1,-1.001887365E0,-2.341027658E0,2.559568525E0
1.373754500E0,5.519233632E-1,-2.546736651E0,-4.278771682E-1,2.640750999E0
1.383719500E0,7.165575671E-1,-3.455309764E0,1.173690548E0,3.718893627E0
1.393684500E0,5.110220897E-1,-4.276347719E0,1.951131663E0,4.728129456E0
1.403650500E0,1.376376092E-1,-5.556775095E0,2.712084069E-1,5.565091875E0
1.413615500E0,1.461336136E-1,-3.882716669E0,-1.072386367E0,4.030738926E0
1.423580500E0,1.231489690E0,4.513945234E-1,-1.573512629E0,2.048478915E0
1.433546500E0,9.316479796E-1,4.378188966E0,-2.839641809E-2,4.476305724E0
1.443511500E0,-1.334388406E0,5.324952875E0,2.475101827E0,6.021780850E0
1.453477500E0,-3.176902192E0,4.440776685E0,1.715942616E0,5.723431153E0
1.463442500E0,-3.744674433E0,3.259124276E0,-3.423895597E-1,4.976113772E0
1.473407500E0,-3.600753406E0,2.776722845E0,-1.831800517E0,4.902153403E0
1.483373500E0,-3.653542653E0,2.204364925E0,-2.298251621E0,4.846602847E0
1.493338042E0,-3.801098894E0,6.629318753E-1,-3.714177110E0,5.355645907E0
1.503303042E0,-3.673648889E0,-1.302506171E0,-5.689868249E0,6.896870245E0
1.513269042E0,-1.982721831E0,-1.254277751E0,-4.781879858E0,5.326422205E0
1.523234042E0,1.737377340E-1,3.038669336E-1,-1.855527349E0,1.888253599E0
1.533200042E0,4.918671960E-1,8.573599818E-1,-9.844208550E-1,1.395021110E0
1.543165042E0,7.320392400E-1,2.840831718E-1,-2.840766814E0,2.947293807E0
1.553130042E0,6.538637209E-1,-5.922644734E-3,-2.637374926E0,2.717226406E0
1.563096042E0,2.257491265E0,-7.083065611E-1,-9.666744094E-1,2.555860796E0
1.573061042E0,6.781811798E0,-1.879453570E0,-2.035883546E-1,7.040366838E0
1.583027042E0,9.616571183E0,-2.888489449E0,2.527469198E-1,1.004418706E1
1.592992042E0,1.004393306E1,-3.453884212E0,5.132777993E-1,1.063359590E1
1.602957042E0,7.759121854E0,-2.561094489E0,1.090230900E0,8.243286987E0
1.612923042E0,5.334535292E0,-1.713722429E0,1.842903210E0,5.898339053E0
1.622888042E0,2.855804683E0,-2.053223464E0,1.333459868E0,3.761577090E0
1.632853042E0,1.402320773E0,-2.039600621E0,1.467918639E0,2.877717737E0
1.642819042E0,1.639746380E-1,-1.933176618E0,2.193638062E0,2.928499183E0
1.652784042E0,-1.398670356E0,-1.014178505E0,2.645093250E0,3.159328268E0
1.662750042E0,-2.371019050E0,-1.991228360E-1,2.963810942E0,3.800731053E0
1.672715042E0,-2.244107573E0,1.140061457E0,2.785213587E0,3.754087592E0
1.682680042E0,-2.801886338E0,1.485316737E0,3.140654132E0,4.463232152E0
1.692646042E0,-2.765365798E0,2.939253221E0,2.802351776E0,4.913210048E0
1.702611042E0,-2.812777362E0,5.233705321E0,1.813884794E0,6.212372004E0
1.712576042E0,-3.476524631E0,5.884153098E0,7.570333095E-1,6.876233026E0
1.722542042E0,-3.651218970E0,5.428580155E0,-7.565441899E-1,6.585836437E0
1.732507042E0,-3.900415606E0,4.755375014E0,-1.382862847E0,6.303899038E0
1.742473042E0,-4.037142804E0,4.122122144E0,-3.944576995E-1,5.783252533E0
1.752438042E0,-3.316926050E0,2.680765359E0,8.910843828E-1,4.356894847E0
1.762403042E0,-2.434562497E0,5.264394432E-1,1.131823314E0,2.735919782E0
1.772369042E0,-2.730311156E0,-1.207515521E0,1.182356999E0,3.211021771E0
1.782334042E0,-3.363574551E0,-8.107351613E-1,2.063401420E0,4.028467535E0
1.792299042E0,-3.858015692E0,1.675548881E-1,2.851937042E0,4.800615024E0
1.802265042E0,-4.542757389E0,-5.960031831E-1,2.765442982E0,5.351592228E0
1.812230042E0,-4.708874447E0,2.603238881E-2,2.921125098E0,5.541403079E0
1.822196042E0,-4.782575676E0,1.202754133E0,2.372627034E0,5.472568561E0
1.832161042E0,-4.610764015E0,1.193202707E0,1.672198134E0,5.047685024E0
1.842126042E0,-4.003418988E0,1.376005379E0,1.954480656E0,4.662697613E0
1.852092042E0,-3.090429766E0,5.876223689E-1,2.290148841E0,3.891122962E0
1.862057042E0,-2.176407341E0,-3.583355016E-1,2.560451003E0,3.379506263E0
1.872022042E0,-8.404998279E-1,-1.209196596E0,3.008318778E0,3.349414611E0
1.881988042E0,9.889559555E-1,-2.109208800E0,2.331345692E0,3.295750048E0
1.891953042E0,3.724419970E0,-4.258127795E0,-3.022791222E-1,5.665185707E0
1.901919042E0,2.968134373E0,-5.605262547E0,-8.092591779E-1,6.394035525E0
1.911884042E0,8.524506596E-1,-7.056981182E0,-7.982595420E-1,7.152962591E0
1.921849042E0,5.586919173E-1,-8.966987039E0,-1.262022096E0,9.072579180E0
1.931815042E0,-2.782734149E-1,-1.135674875E1,-1.357313146E0,1.144095614E1
1.941780042E0,-8.214615130E-1,-1.020422980E1,-3.997355425E-1,1.024504238E1
1.951745042E0,9.400919437E-1,-8.960339924E0,-5.526974980E-1,9.026457718E0
1.961711042E0,2.267735733E0,-7.707790902E0,-2.719979711E0,8.482390911E0
1.971676042E0,2.395206788E0,-5.917453576E0,-5.472791537E0,8.408609849E0
1.981642042E0,3.148579448E0,-3.611010007E0,-6.020462805E0,7.694083324E0
1.991607042E0,3.266700221E0,-2.342388158E0,-6.023336127E0,7.241456395E0
2.001572042E0,3.528960122E0,4.119281566E-1,-5.592558886E0,6.625704434E0
2.011538042E0,3.033357725E0,2.687969128E0,-4.289320936E0,5.901246582E0
2.021503042E0,2.053012087E0,3.414076953E0,-2.811566988E0,4.876032096E0
2.031468042E0,9.348198017E-1,3.077923449E0,-1.446929766E0,3.527195283E0
2.041434042E0,-4.471215244E-1,2.435124999E0,-4.172619867E-1,2.510748690E0
2.051399042E0,-1.585039976E0,1.935158240E0,4.761832094E-1,2.546358103E0
2.061365042E0,-2.545877110E0,1.288496534E0,1.304740684E0,3.137524794E0
2.071330042E0,-3.447096180E0,6.804656285E-1,1.792143531E0,3.944272300E0
2.081295042E0,-3.786829642E0,6.033279902E-1,2.039987122E0,4.343458398E0
2.091261042E0,-3.394453112E0,6.913543135E-1,1.974847970E0,3.987518931E0
2.101226042E0,-2.825700878E0,5.156829053E-1,1.356803123E0,3.176700965E0
2.111191042E0,-1.968122356E0,4.217356914E-1,8.393641524E-1,2.180802326E0
2.121157042E0,-1.136171158E0,7.401276934E-1,4.010638838E-1,1.414046018E0
2.131122042E0,-7.584351064E-1,1.226140072E0,2.435803860E-2,1.441955825E0
2.141087042E0,-3.237777261E-1,1.436524061E0,-9.915942192E-2,1.475894978E0
2.151053042E0,-4.200845108E-1,7.456626678E-1,-2.390401693E-1,8.886079073E-1
2.161018042E0,-7.639442798E-1,-4.638356441E-1,-4.359625518E-1,9.943931386E-1
2.170984042E0,-4.825090928E-1,-1.410387007E0,-5.487689365E-1,1.588443855E0
2.180949042E0,1.724514927E-1,-1.876667957E0,-8.812373793E-1,2.080432997E0
2.190914042E0,9.750170705E-1,-2.099698303E0,-1.676433857E0,2.858290001E0
2.200880042E0,1.484088529E0,-1.814496267E0,-2.449520990E0,3.390437810E0
2.210845042E0,1.537886129E0,-1.057903984E0,-2.266983927E0,2.936574656E0
2.220810042E0,1.151512571E0,-5.011578369E-1,-1.426121572E0,1.900253435E0
2.230776042E0,6.973086063E-1,-1.336550707E-1,-8.226146570E-1,1.086645225E0
2.240741042E0,4.344134782E-1,3.576110315E-1,-4.724386525E-1,7.347101472E-1
2.250707042E0,2.761564670E-1,7.747677684E-1,-2.952421443E-1,8.738966832E-1
2.260672042E0,7.290761635E-2,9.621716148E-1,-4.385060906E-2,9.659257801E-1
2.270637042E0,-2.545175298E-1,1.231199083E0,3.293783355E-1,1.299661665E0
2.280603042E0,-3.603998610E-1,1.438014516E0,6.690175112E-1,1.626455729E0
2.290568042E0,6.141739905E-2,1.066090670E0,1.070877055E0,1.512315801E0
2.300533042E0,5.262888774E-2,5.266698235E-1,1.048831736E0,1.174818673E0
2.310499042E0,1.890428209E-1,1.922587895E-1,8.466255172E-1,8.885242803E-1
2.320464042E0,8.477581228E-1,-3.162753099E-1,7.182611534E-1,1.155258842E0
2.330430042E0,1.486719191E0,-2.988096768E-1,1.603568195E-1,1.524905075E0
2.340395042E0,1.898941609E0,-1.648528898E-1,-4.981909597E-1,1.970114195E0
2.350360042E0,1.856694014E0,-7.524922156E-1,-6.186611438E-1,2.096735274E0
2.360326042E0,1.964889431E0,-1.623981117E0,-6.141669738E-1,2.622080513E0
2.370291042E0,2.255780954E0,-2.585652210E0,-9.272676842E-1,3.554429690E0
2.380256042E0,2.239674945E0,-3.290437578E0,-1.668343942E0,4.315842308E0
2.390222042E0,1.803924647E0,-3.369578472E0,-2.476971767E0,4.554513404E0
2.400187042E0,9.926665986E-1,-2.174654346E0,-2.903445457E0,3.760917976E0
2.410153042E0,6.899699852E-1,-1.094142687E-1,-1.653682926E0,1.795187256E0
2.420118042E0,1.020360620E0,2.041473484E-1,4.578945222E0,4.695694973E0
2.430083042E0,-3.822510521E-1,-1.275242651E-1,3.287899886E0,3.312501165E0
2.440049042E0,-6.572635844E-1,-6.314548516E-1,5.575596113E0,5.649601992E0
2.450014042E0,-2.127021173E-1,-6.484287339E-1,4.724215786E0,4.773250131E0
2.459979042E0,-4.485711953E-1,-1.776626775E0,4.060163877E0,4.454497673E0
2.469945042E0,-4.360107914E-1,-2.304837924E0,3.210510818E0,3.976149265E0
2.479910042E0,-7.170724145E-1,-2.915437512E0,3.058732302E0,4.286001870E0
2.489875500E0,-1.447110153E0,-3.704356127E0,3.180201191E0,5.092156883E0
2.499841500E0,-9.744665551E-1,-2.750955335E0,1.764479001E-1,2.923777383E0
2.509806500E0,-1.068734781E0,-2.033107288E0,-8.999964166E-1,2.466923758E0
2.519772500E0,-9.378802344E-1,-6.517938066E-1,-3.013763705E0,3.222921993E0
2.529737500E0,-1.063348326E-1,5.263891572E-1,-3.342034578E0,3.384905872E0
2.539702500E0,8.547544625E-1,1.719552687E0,-2.360517451E0,3.042944178E0
2.549668500E0,1.025595194E0,3.161409994E0,-1.805102130E0,3.782162391E0
2.559633500E0,1.471938892E0,4.981289792E0,-1.808693490E0,5.500111293E0
2.569598500E0,1.668728104E0,5.785468470E0,-1.421242948E0,6.186778679E0
2.579564500E0,1.606266977E0,6.353024949E0,-8.303303504E-1,6.605336335E0
2.589529500E0,1.675402409E0,6.368277411E0,-5.426414931E-1,6.607298253E0
2.599495500E0,1.199905955E0,4.852549306E0,1.046651602E-1,4.999796382E0
2.609460500E0,5.595156804E-1,3.463416343E0,3.835444562E-1,3.529223273E0
2.619425500E0,-2.053743866E-1,2.100545565E0,5.310920727E-1,2.176356841E0
2.629391500E0,-9.245246091E-1,8.720718688E-1,5.667438622E-1,1.391565199E0
2.639356500E0,-1.382452519E0,4.223034561E-2,2.253775652E-1,1.401339865E0
2.649321500E0,-1.770667877E0,-5.339455140E-1,-1.681774704E-1,1.857053097E0
2.659287500E0,-2.018485740E0,-9.784122562E-1,-3.684004600E-1,2.273168301E0
2.669252500E0,-1.681996021E0,-8.260630524E-1,-1.922775006E-1,1.883736027E0
2.679217500E0,-1.016425590E0,-1.739996892E-1,2.761020148E-1,1.067534165E0
2.689183500E0,-3.046010515E-1,3.678571075E-1,5.828589347E-1,7.535417639E-1
2.699148500E0,9.577142823E-1,2.664773224E0,7.231064487E-1,2.922518763E0
2.709114500E0,1.169300751E0,6.177914874E0,6.504009998E-1,6.321148463E0
2.719079500E0,-2.548023623E-1,4.468585458E0,2.677687092E-1,4.483846599E0
2.729044500E0,-1.093045165E0,2.295046177E0,-6.070330784E-1,2.613517523E0
2.739010500E0,-2.110677328E0,-5.794637489E-1,-1.723641938E0,2.785978921E0
2.748975500E0,-1.899388775E0,-3.238132480E0,-2.426635280E0,4.470093786E0
2.758940500E0,-4.919315153E-1,-2.839007387E0,-1.802366657E0,3.398600465E0
2.768906500E0,1.821039301E-1,-2.456635151E0,-6.943814170E-1,2.559371731E0
2.778871500E0,7.689556360E-1,-2.439182382E0,-3.338456082E-1,2.579216228E0
2.788837500E0,7.559265777E-1,-3.783223372E0,-3.963748553E-1,3.878313692E0
2.798802500E0,9.702337557E-1,-5.338980930E0,-7.186005843E-1,5.473797376E0
2.808767500E0,8.242746815E-1,-7.697476999E0,-1.049889790E0,7.812352364E0
2.818733500E0,1.161430106E0,-9.405107798E0,-1.033750598E0,9.532765227E0
2.828698500E0,3.197602504E0,-8.396635591E0,-7.598670164E-1,9.016958961E0
2.838663500E0,5.149527050E0,-6.052357028E0,-4.768228948E-1,7.960905382E0
2.848629500E0,5.062628070E0,-4.227857929E0,-3.435809299E-1,6.604773539E0
2.858594500E0,3.782865814E0,-2.975828725E0,-4.348980662E-1,4.832676970E0
2.868559500E0,2.291564452E0,-1.873619218E0,-4.344054383E-1,2.991726040E0
2.878525500E0,1.295612303E0,-8.719443995E-1,1.332469350E-1,1.567371373E0
2.888490500E0,4.071746626E-1,-5.381344593E-1,1.336132046E0,1.496872989E0
2.898456500E0,-1.595102888E-1,-1.992625844E-1,4.278563814E0,4.286170484E0
2.908421500E0,-9.317786649E-1,-1.227207774E-1,6.237778083E0,6.308180981E0
2.918386500E0,-1.814423761E0,-3.336035335E-1,7.526027865E0,7.748839934E0
2.928352500E0,-2.898105488E0,-1.046078575E0,8.294218100E0,8.848013884E0
2.938317500E0,-3.826987149E0,-1.434927771E0,8.583903197E0,9.507273134E0
2.948282500E0,-3.856386950E0,-9.551841921E-1,8.457425584E0,9.344096781E0
2.958248500E0,-3.345628277E0,2.221941948E-2,7.628961080E0,8.330352299E0
2.968213500E0,-4.163905469E0,3.235147476E-2,5.466522152E0,6.871827982E0
2.978178500E0,-4.151572230E0,9.299552107E-1,3.005853592E0,5.209176949E0
2.988144500E0,-2.594436482E0,2.036298698E0,7.181298834E-1,3.375399766E0
2.998109500E0,-4.754102075E-1,2.493592477E0,-1.634852845E0,3.019397644E0
3.008075500E0,2.214130653E0,3.330535444E0,-4.673288877E0,6.150973079E0
3.018040500E0,2.260898145E0,3.266999014E0,-5.393502123E0,6.698866183E0
3.028005500E0,8.422852752E-1,2.692694848E0,-3.433536194E0,4.444009544E0
3.037971500E0,-1.311702379E0,1.490893226E0,-2.183368597E0,2.951342775E0
3.047936500E0,-4.109742711E0,1.227300160E0,-3.693891365E0,5.660484453E0
3.057901500E0,-5.565945284E0,1.664366081E0,-6.181064769E0,8.482654245E0
3.067867500E0,-5.025412881E0,1.182289463E0,-7.008105476E0,8.704373921E0
3.077832500E0,-4.281668685E0,4.758399779E-1,-5.624806280E0,7.085023366E0
3.087798500E0,-2.560880481E0,4.152487904E-1,-1.942203257E0,3.240785999E0
3.097763500E0,-4.250238732E-1,5.931245989E-1,-3.744439960E-2,7.306464026E-1
3.107728500E0,-3.266921246E-1,1.104398704E-1,8.842650676E-1,9.491308756E-1
3.117694500E0,-1.663992152E0,-8.175284564E-2,6.355990657E-1,1.783126350E0
3.127659500E0,-7.489619592E-1,7.502287585E-1,-3.999580291E-1,1.133028522E0
3.137624500E0,-1.016517976E-1,1.384379176E0,1.656675531E-1,1.397957271E0
3.147590500E0,-3.947586849E-1,9.824561906E-1,6.480700073E-1,1.241390076E0
3.157555500E0,-1.361028613E0,5.487202585E-2,-7.714159982E-1,1.565404889E0
3.167521500E0,-1.170502646E0,1.665737253E-1,-1.128158572E0,1.634186346E0
3.177486500E0,-1.195491599E0,5.087293965E-1,-5.738752726E-1,1.420330451E0
3.187451500E0,-1.619321178E0,7.121481818E-1,-2.376802531E-1,1.784894399E0
3.197417500E0,-2.055990074E0,7.683983964E-1,-4.264052778E-2,2.195301686E0
3.207382500E0,-2.248289502E0,8.490081114E-1,1.394878145E-1,2.407296680E0
3.217347500E0,-2.171216767E0,1.071849008E0,3.888503659E-1,2.452396207E0
3.227313500E0,-1.872657351E0,1.137148374E0,6.525004426E-1,2.285980929E0
3.237278500E0,-1.373639303E0,8.857830048E-1,8.218071565E-1,1.829443486E0
3.247243500E0,-9.611723256E-1,4.925700313E-1,8.597091007E-1,1.380426461E0
3.257209500E0,-5.066015947E-1,2.085964948E-1,8.987486207E-1,1.052571497E0
3.267174500E0,-2.840732315E-1,1.020532089E-1,9.566731855E-1,1.003163019E0
3.277140500E0,-1.932446301E-1,-1.305905449E-1,8.445227122E-1,8.761369693E-1
3.287105500E0,2.235180044E-1,-1.798895895E-1,9.771735236E-1,1.018424596E0
3.297070500E0,9.185642499E-1,-1.306998879E-1,1.971671470E0,2.179066573E0
3.307036500E0,3.272957619E0,-6.775496221E-1,1.405795072E1,1.444982019E1
3.317001500E0,9.108882006E0,-1.002181773E0,1.298786114E1,1.589530234E1
3.326966500E0,3.942601806E0,-1.390818130E0,-5.691700181E-1,4.219293611E0
3.336932500E0,5.450093231E-1,-6.229968542E-1,-3.410822100E0,3.509824446E0
3.346897500E0,2.960451717E0,1.869445476E0,-3.057594434E0,4.648438929E0
3.356863500E0,3.802191154E0,2.336073750E0,1.736418396E0,4.788428447E0
3.366828500E0,1.911116243E0,2.591866046E0,1.446428075E0,3.530196747E0
3.376793500E0,1.902347758E-1,2.656709329E0,2.142990211E0,3.418581690E0
3.386759500E0,1.044002813E-1,2.300834336E0,2.865120759E0,3.676092358E0
3.396724500E0,5.593306160E-1,1.956124601E0,2.641013356E0,3.333800494E0
3.406689500E0,1.929139701E-1,2.318799906E0,1.122822111E0,2.583559230E0
3.416655500E0,-1.508081701E-1,2.676948296E0,-6.348789811E-2,2.681944444E0
3.426620500E0,6.051610923E-1,2.310972823E0,-1.659299469E-1,2.394649887E0
3.436585500E0,9.652858418E-1,1.788064513E0,7.369506088E-1,2.161491999E0
3.446551500E0,6.388425162E-1,1.418533348E0,1.172195123E0,1.947921463E0
3.456516500E0,8.033121210E-1,8.398238897E-1,7.979139715E-1,1.409709628E0
3.466482500E0,8.686421844E-1,2.061114281E-1,7.949774998E-1,1.195412226E0
3.476447500E0,6.109548059E-1,-1.423352623E-1,3.478780487E-1,7.173173904E-1
3.486412500E0,1.203765117E0,8.084184945E-1,-1.313846261E0,1.956727604E0
3.496378125E0,2.294238384E0,2.114916267E0,-2.998891605E0,4.327788285E0
3.506343125E0,2.543907183E0,1.515138706E0,-3.547283250E0,4.620641461E0
3.516309125E0,1.734350236E0,-3.040826958E-1,-3.151282616E0,3.609850295E0
3.526274125E0,-7.263993081E-1,-2.328940147E0,-2.080878455E0,3.206504843E0
3.536239125E0,-2.718473760E0,-3.824482495E0,-2.563046290E0,5.346585099E0
3.546205125E0,-3.505530037E0,-4.382622617E0,-4.681181156E0,7.308185744E0
3.556170125E0,-2.947024463E0,-5.024957968E0,-7.064190799E0,9.156306428E0
3.566135125E0,-2.215199524E0,-5.367027100E0,-6.467888823E0,8.691701482E0
3.576101125E0,-2.629640229E0,-6.501265900E0,-4.819868633E0,8.509559311E0
3.586066125E0,-4.022298186E0,-9.119388868E0,-7.068709527E0,1.221919762E1
3.596031125E0,-4.765729848E0,-1.210336920E1,-7.053163535E0,1.479698762E1
3.605997125E0,-7.562885789E0,-1.856394841E1,-6.274476378E0,2.100443944E1
3.615962125E0,-1.135535127E1,-2.697486641E1,-8.618109409E0,3.050998575E1
3.625928125E0,-1.190144379E1,-3.351321126E1,-9.910643445E0,3.691883729E1
3.635893125E0,-1.011517320E1,-3.445306932E1,-1.172345454E1,3.777261046E1
3.645858125E0,-6.998472773E0,-3.007740839E1,-7.113875175E0,3.168968818E1
3.655824125E0,-3.648441250E0,-2.238739361E1,3.795413354E0,2.299807990E1
3.665789125E0,-1.843458257E0,-1.525023541E1,1.497428952E0,1.543406336E1
3.675754125E0,-6.082354121E-1,-1.022816714E1,4.439582976E0,1.116670275E1
3.685720125E0,5.912893040E-1,-5.659615340E0,3.996309358E0,6.953514027E0
3.695685125E0,1.861667071E0,-9.213919634E-1,3.715271124E0,4.256525221E0
3.705651125E0,3.796775171E0,4.160861117E0,2.098114293E0,6.010852728E0
3.715616125E0,5.263158916E0,9.394644206E0,1.852070475E-1,1.077007350E1
3.725581125E0,5.725386575E0,1.266888383E1,-1.823601843E0,1.402163302E1
3.735547125E0,4.845154917E0,1.615098027E1,1.102575542E0,1.689808754E1
3.745512125E0,1.937398600E0,1.520563285E1,3.612952452E0,1.574859388E1
3.755477125E0,-7.840190137E-1,1.216128587E1,1.466932214E0,1.227450406E1
3.765443125E0,-1.434187221E0,1.155200716E1,-4.869083185E-1,1.165087302E1
3.775408125E0,-2.193608534E0,1.193390519E1,-2.433877788E0,1.237553120E1
3.785374125E0,-3.160855678E0,1.194298475E1,-3.559234082E0,1.285667300E1
3.795339125E0,-4.029302565E0,1.197860131E1,-4.954411311E0,1.357454824E1
3.805304125E0,-8.069499663E-1,1.209114851E1,-1.901043245E0,1.226625477E1
3.815270125E0,3.796751343E-1,1.168944246E1,3.076148526E-1,1.169965150E1
3.825235125E0,-3.752149513E-1,1.169127849E1,7.242045557E-1,1.171969501E1
3.835200125E0,-1.861481568E-1,1.177694838E1,7.957488938E-1,1.180526919E1
3.845166125E0,-1.640843464E-1,1.196068310E1,1.083758179E0,1.201080329E1
3.855131125E0,-5.789803304E-2,1.188551130E1,1.574356967E0,1.198946749E1
3.865097125E0,2.851973587E-1,1.157769047E1,1.729084818E0,1.170956825E1
3.875062125E0,5.486562315E-1,1.114890246E1,1.668195423E0,1.128636016E1
3.885027125E0,6.253728703E-1,1.080789635E1,1.363815104E0,1.091154005E1
3.894993125E0,6.887565418E-1,1.046693819E1,8.577514529E-1,1.052458636E1
3.904958125E0,8.123739897E-1,1.017851258E1,3.388718748E-1,1.021650155E1
3.914923125E0,9.049930816E-1,9.946272869E0,-1.171121281E-1,9.988046441E0
3.924889125E0,8.833924437E-1,9.805795852E0,-5.506398994E-1,9.860893408E0
3.934854125E0,8.937636501E-1,9.725434059E0,-9.697350613E-1,9.814441766E0
3.944820125E0,8.505128192E-1,9.696972737E0,-1.349537957E0,9.827304056E0
3.954785125E0,7.980439990E-1,9.643432122E0,-1.330746176E0,9.767473711E0
3.964750125E0,1.369654280E0,9.302662826E0,3.481632759E0,1.002682677E1
3.974716125E0,1.411159717E0,9.658129098E0,1.352345790E0,9.853916407E0
3.984681125E0,1.404437173E0,9.659885602E0,3.212915631E-1,9.766732406E0
3.994646125E0,1.629639175E0,9.668496212E0,2.305592215E-1,9.807583820E0
4.004612125E0,1.801073691E0,9.708946665E0,-2.999358505E-1,9.879143348E0
4.014577125E0,2.027151460E0,9.604408974E0,-1.555179269E0,9.938440388E0
4.024543125E0,2.451230569E0,9.589074066E0,-7.030459966E0,1.214027348E1
4.034508125E0,1.938287085E0,9.504690558E0,-6.262231139E0,1.154606592E1
4.044473125E0,1.201879828E0,9.212604010E0,-7.793285966E-1,9.323300962E0
4.054439125E0,9.198062716E-1,9.057073921E0,1.753298138E0,9.270959279E0
4.064404125E0,6.639519951E-1,8.944543086E0,3.403419818E0,9.593172037E0
4.074369125E0,2.097708350E-1,8.808287759E0,4.992250983E0,1.012682117E1
4.084335125E0,4.575187509E-1,8.680962299E0,1.239376999E0,8.780915965E0
4.094300125E0,6.766634765E-1,6.312639400E0,-6.686624390E0,9.220533357E0
4.104266125E0,1.063662395E0,5.592985148E0,-7.779909291E0,9.640531579E0
4.114231125E0,-2.082163381E0,2.746853514E0,-2.511533489E0,4.264787103E0
4.124196125E0,-6.758458604E0,-5.656040937E0,-5.840124149E0,1.057235129E1
4.134162125E0,-1.085472202E1,-1.795551756E1,-5.760183356E0,2.175787934E1
4.144127125E0,-8.155206395E0,-3.148134826E1,-3.910108244E0,3.275471914E1
4.154092125E0,-4.763671921E0,-3.801608889E1,-2.272137663E0,3.838070080E1
4.164058125E0,-6.425918094E0,-4.367910321E1,-1.820651631E0,4.418677690E1
4.174023125E0,-5.146581808E0,-4.400358158E1,-7.906355914E0,4.500347720E1
4.183989125E0,-1.190491060E0,-3.414376798E1,-1.098040090E1,3.588569861E1
4.193954125E0,1.860318411E0,-2.003847353E1,-5.292061118E0,2.080882305E1
4.203919125E0,3.589056635E0,-8.230761192E0,1.571119072E0,9.115655351E0
4.213885125E0,4.286130111E0,-1.629266415E0,-9.679688367E-1,4.686404170E0
4.223850125E0,3.103492153E0,1.692112874E0,-8.693117491E0,9.384306114E0
4.233815125E0,-2.026237979E0,3.060640249E0,-7.994496843E0,8.796882337E0
4.243781125E0,-5.284422315E0,3.835142553E0,-2.988644359E0,7.180907514E0
4.253746125E0,-4.005730392E0,4.689548230E0,2.968080287E0,6.844504304E0
4.263712125E0,-1.440584368E0,4.477725241E0,5.910674314E0,7.553898166E0
4.273677125E0,1.513659945E-1,2.784711311E0,6.469306773E0,7.044817874E0
4.283642125E0,-2.942061639E-1,1.022765726E-1,4.418358168E0,4.429323500E0
4.293608125E0,-8.728398275E-1,-2.565218530E0,2.112245259E-1,2.717868884E0
4.303573125E0,5.385080963E-2,-3.386154744E0,-3.264436179E0,4.703773743E0
4.313538125E0,3.469284901E0,-2.052886080E0,5.325459829E-1,4.066187921E0
4.323504125E0,5.127112918E0,-6.960490429E-1,2.525647206E0,5.757661414E0
4.333469125E0,4.254947494E0,7.360632938E-1,1.550721352E0,4.588148217E0
4.343435125E0,2.866792771E0,2.136994184E0,1.609568608E0,3.921218692E0
4.353400125E0,1.751100316E0,3.527304191E0,1.664443557E0,4.275347884E0
4.363365125E0,5.674532025E-1,4.406585677E0,1.688470058E0,4.752991858E0
4.373331125E0,-4.181049725E-1,5.113014112E0,2.273760850E0,5.611391403E0
4.383296125E0,-9.797549231E-1,5.681033691E0,1.807917272E0,6.041740508E0
4.393262125E0,-1.546347927E0,5.957629210E0,-5.973851725E-2,6.155331543E0
4.403227125E0,-2.537971090E0,5.554292368E0,-3.474532485E0,7.025940289E0
4.413192125E0,-3.218323867E0,4.367524522E0,-5.845950315E0,7.975463250E0
4.423158125E0,-2.149375078E0,3.461837595E0,-3.786781987E0,5.562719711E0
4.433123125E0,-7.275566183E-1,2.837408173E0,-7.349856520E-1,3.020004583E0
4.443088125E0,1.594659962E-2,2.150546275E0,1.713383583E0,2.749688506E0
4.453054125E0,1.005899432E-1,1.339209436E0,3.095402238E0,3.374183644E0
4.463019125E0,2.491614803E-1,5.123932618E-1,1.821988889E0,1.908997593E0
4.472985125E0,1.273243195E0,-5.946735263E-2,-2.397845198E-1,1.296989289E0
4.482950125E0,2.479187862E0,-2.165107012E-1,-8.009001446E-1,2.614324077E0
4.492915500E0,2.569125640E0,-4.492795855E-1,-7.251401103E-1,2.707043937E0
4.502881500E0,2.235805550E0,-1.063550055E0,-7.070301139E-1,2.574850823E0
4.512846500E0,1.761404718E0,-1.938389411E0,-9.217962983E-1,2.776618178E0
4.522811500E0,1.027520535E0,-2.916361372E0,-1.083989290E0,3.276582806E0
4.532777500E0,1.387598361E-1,-3.707883167E0,-9.287357739E-1,3.824944707E0
4.542742500E0,-5.433755379E-1,-3.705187016E0,-6.945791991E-1,3.808688497E0
4.552707500E0,-9.929177365E-1,-3.342759048E0,-7.567266230E-1,3.568271132E0
4.562673500E0,-1.148562870E0,-3.016415418E0,-1.069350347E0,3.400215993E0
4.572638500E0,-1.252438509E0,-2.353608965E0,-1.300631115E0,2.966431978E0
4.582604500E0,-1.488576267E0,-1.987652788E0,-1.202332403E0,2.759026298E0
4.592569500E0,-1.756181400E0,-1.768592116E0,-7.214448161E-1,2.594720371E0
4.602534500E0,-1.827632475E0,-1.138706072E0,-1.793209478E-1,2.160797997E0
4.612500500E0,-1.665656562E0,-1.259993112E-1,-3.585980415E-2,1.670800268E0
4.622465500E0,-1.479332696E0,7.881274867E-1,1.315427640E-1,1.681330919E0
4.632431500E0,-1.069852257E0,1.601633059E0,1.544683810E-1,1.932271406E0
4.642396500E0,-7.086576133E-1,2.095418141E0,8.604791790E-2,2.213679526E0
4.652361500E0,-5.107044397E-1,2.248469596E0,6.158170581E-2,2.306561695E0
4.662327500E0,-2.866665448E-1,2.131748646E0,1.033355033E-1,2.153417801E0
4.672292500E0,-7.616203040E-2,1.870200351E0,1.336702734E-2,1.871798250E0
4.682257500E0,-2.896235548E-2,1.728525825E0,-4.064998940E-2,1.729246300E0
4.692223500E0,-7.177939609E-2,1.822332705E0,2.066522956E-2,1.823862885E0
4.702188500E0,-2.749536216E-2,1.862392564E0,6.745815754E-2,1.863816692E0
4.712154500E0,-6.548004448E-3,1.653627670E0,2.332717448E-2,1.653805159E0
4.722119500E0,-8.259579487E-2,1.143650478E0,6.045757860E-2,1.148221929E0
4.732084500E0,-1.307230575E-1,4.870999610E-1,1.348066798E-1,5.220418860E-1
4.742050500E0,-1.409016712E-1,-2.664552784E-1,1.393357868E-1,3.320634846E-1
4.752015500E0,-5.474631071E-2,-9.662693435E-1,2.211300015E-2,9.680715818E-1
4.761980500E0,4.391171247E-2,-1.494366472E0,-9.423343509E-2,1.497978415E0
4.771946500E0,1.207899537E-1,-1.713010823E0,-1.579786107E-2,1.717336852E0
4.781911500E0,3.084349246E-1,-1.701050928E0,3.201939677E-1,1.758189563E0
4.791877500E0,4.149882969E-1,-1.595211647E0,9.306975147E-1,1.892911342E0
4.801842500E0,4.805196507E-1,-1.517514430E0,1.346887122E0,2.085150858E0
4.811807500E0,7.376861154E-1,-1.329716481E0,1.426161918E0,2.084769661E0
4.821773500E0,1.266857012E0,-9.913650084E-1,7.636238524E-1,1.780688815E0
4.831738500E0,1.652799119E0,-6.320670551E-1,-1.835967243E-1,1.779033852E0
4.841703500E0,1.704634101E0,-2.991798055E-1,-5.935648942E-1,1.829646212E0
4.851669500E0,1.779518223E0,-3.532244503E-2,-9.037513523E-1,1.996171157E0
4.861634500E0,1.744055298E0,1.788651574E-1,-8.868416432E-1,1.964741644E0
4.871600500E0,1.432641510E0,3.119846231E-1,-1.964415953E-1,1.479319236E0
4.881565500E0,1.112322850E0,4.645168447E-1,2.521012411E-1,1.231500328E0
4.891530500E0,7.743582440E-1,6.720526546E-1,5.506007230E-1,1.163806950E0
4.901496500E0,6.897868942E-1,8.987989068E-1,6.207746199E-1,1.291900369E0
4.911461500E0,5.489685459E-1,9.434815747E-1,5.925998113E-1,1.242054138E0
4.921427500E0,4.056851576E-1,8.435608453E-1,3.600446427E-1,1.002899542E0
4.931392500E0,2.124883284E-1,7.186122787E-1,2.021335673E-1,7.761526112E-1
4.941357500E0,8.023622409E-3,6.259426814E-1,1.978741631E-1,6.565232695E-1
4.951323500E0,-1.040788306E-1,5.844157559E-1,1.666855533E-1,6.165697466E-1
4.961288500E0,-1.524863210E-1,5.199238908E-1,1.552099541E-1,5.636160574E-1
4.971253500E0,-1.798992375E-1,4.508267587E-1,1.773191535E-1,5.167693724E-1
4.981219500E0,-2.020954143E-1,3.855554599E-1,1.487978974E-1,4.600395454E-1
4.991184500E0,-2.307078139E-1,2.821024275E-1,1.207393022E-1,3.839086533E-1
5.001150500E0,-2.167272674E-1,2.463151288E-1,1.036275718E-1,3.440647101E-1
5.011115500E0,-2.101856218E-1,3.037763017E-1,1.238250241E-1,3.896032260E-1
5.021080500E0,-1.333768163E-1,3.521672738E-1,1.947286534E-1,4.239462375E-1
5.031046500E0,-4.727028005E-2,2.979080361E-1,1.238104060E-1,3.260562743E-1
5.041011500E0,1.111380279E-2,2.851248533E-1,1.129869175E-1,3.068969568E-1
5.050976500E0,1.272047147E-2,2.847406912E-1,1.588561316E-1,3.263040640E-1
5.060942500E0,-4.885845691E-2,3.199783516E-1,2.617763364E-1,4.162933396E-1
5.070907500E0,-1.120016617E-1,4.156586802E-1,3.334352799E-1,5.445140921E-1
5.080873500E0,-1.281265283E-1,6.013802826E-1,2.883498850E-1,6.791320253E-1
5.090838500E0,-6.966314256E-2,8.465476030E-1,2.527912125E-1,8.862275073E-1
5.100803500E0,-3.356740326E-3,1.041104348E0,2.443621588E-1,1.069402822E0
5.110769500E0,2.490226820E-2,1.222601337E0,2.537738371E-1,1.248909650E0
5.120734500E0,1.751416504E-2,1.415415028E0,3.144945404E-1,1.450039056E0
5.130699500E0,1.503041402E-2,1.681710677E0,3.832010785E-1,1.724882541E0
5.140665500E0,4.988376617E-2,1.959549315E0,4.908164513E-1,2.020698567E0
5.150630500E0,1.463558078E-1,2.221230927E0,4.219631481E-1,2.265687478E0
5.160596500E0,3.124693573E-1,2.379961197E0,-4.977018401E-2,2.400901803E0
5.170561500E0,5.450262800E-1,2.598520762E0,-6.412957156E-1,2.731414284E0
5.180526500E0,8.261865748E-1,2.629962410E0,-1.557367151E0,3.166177345E0
5.190492500E0,1.058713969E0,2.408822469E0,-2.500873723E0,3.630106105E0
5.200457500E0,1.155769855E0,2.608058156E0,-2.326838950E0,3.681297435E0
5.210423500E0,1.386840123E0,3.879756809E0,-1.977870396E-1,4.124919167E0
5.220388500E0,1.355076879E0,4.892530813E0,1.674028313E0,5.345602107E0
5.230353500E0,1.275156989E0,5.126034692E0,1.901639661E0,5.614133095E0
5.240319500E0,1.754774999E0,4.693495685E0,9.334623706E-1,5.097007851E0
5.250284500E0,2.408007074E0,3.651037706E0,-5.014133602E-1,4.402270977E0
5.260249500E0,2.391320875E0,2.677148271E0,-1.788006333E0,4.010299869E0
5.270215500E0,2.035880622E0,1.939450681E0,-2.354386060E0,3.667344076E0
5.280180500E0,1.746323726E0,1.745685064E0,-1.648835584E0,2.969128101E0
5.290146500E0,9.373668489E-1,1.866690853E0,3.810624593E-1,2.123299307E0
5.300111500E0,5.788617781E-1,1.514431193E0,1.105660533E0,1.962413822E0
5.310076500E0,1.416907822E0,4.188442433E-1,-3.661076206E-1,1.522200074E0
5.320042500E0,2.849297317E0,-1.235887381E0,-1.198946719E0,3.329171977E0
5.330007500E0,4.522345929E0,-3.503149343E0,1.724010605E-1,5.723057762E0
5.339973500E0,6.298257004E0,-5.977650077E0,2.770176303E0,9.114505937E0
5.349938500E0,5.483300153E0,-7.134156243E0,2.519335721E0,9.343972300E0
5.359903500E0,2.594468057E0,-7.622344370E0,-1.893626052E0,8.271470113E0
5.369869500E0,1.208654412E0,-9.278007456E0,-7.126411021E0,1.176129253E1
5.379834500E0,4.258445299E-1,-1.020574774E1,-9.100135156E0,1.368031763E1
5.389799500E0,-9.730266783E-1,-1.088520239E1,-4.645949343E0,1.187515293E1
5.399765500E0,-2.089863871E0,-1.281408189E1,-2.052402807E0,1.314460280E1
5.409730500E0,-3.839237943E0,-1.729975466E1,-2.833164849E0,1.794569816E1
5.419696500E0,-3.815903460E0,-2.330835347E1,-6.128752069E0,2.440086192E1
5.429661500E0,-3.157988203E0,-2.909400729E1,-9.761387419E0,3.084994059E1
5.439626500E0,-2.409259694E0,-3.231078048E1,-1.113371373E1,3.426004450E1
5.449592500E0,-1.305727109E0,-2.980468256E1,-9.318714602E0,3.125479912E1
5.459557500E0,-3.916674082E-1,-2.288694463E1,-7.502214494E0,2.408835529E1
5.469523500E0,-5.218756914E-2,-1.700022870E1,-5.318184139E0,1.781273651E1
5.479488500E0,-3.126448468E-1,-1.304986735E1,-3.054873725E0,1.340630591E1
5.489453500E0,-6.633991409E-1,-1.043910193E1,-6.216742140E-1,1.047861758E1
5.499419417E0,-9.199105713E-1,-8.467353571E0,2.684244452E0,8.930144469E0
5.509384417E0,-1.053838853E0,-6.732163090E0,3.498295862E0,7.659678201E0
5.519349417E0,-1.439539762E0,-4.473218207E0,3.882358820E0,6.095462728E0
5.529315417E0,-1.237531910E0,-1.358759601E0,4.538792392E0,4.896769268E0
5.539280417E0,-7.737332498E-1,1.913810640E0,4.606131559E0,5.047552104E0
5.549246417E0,-2.740541737E-1,4.632188798E0,4.003847297E0,6.128871995E0
5.559211417E0,3.817028026E-1,6.701645302E0,3.174765327E0,7.425421312E0
5.569176417E0,6.962420741E-1,8.193937182E0,2.249013095E0,8.525457142E0
5.579142417E0,5.352568983E-1,8.915663103E0,2.386929470E0,9.245159859E0
5.589107417E0,5.204118044E-1,9.180524431E0,2.226240675E0,9.460919871E0
5.599073417E0,5.615140394E-1,9.452856746E0,1.225016384E0,9.548427295E0
5.609038417E0,4.787344592E-1,9.586329968E0,7.870456056E-1,9.630490627E0
5.619003417E0,3.864221634E-1,9.624400020E0,4.522575724E-1,9.642765928E0
5.628969417E0,3.372030795E-1,9.664857489E0,1.095581102E-1,9.671358704E0
5.638934417E0,2.784902735E-1,9.714586889E0,-2.570821917E-1,9.721977500E0
5.648899417E0,1.721230071E-1,9.776149299E0,-6.104803044E-1,9.796703918E0
5.658865417E0,8.603755737E-2,9.894826727E0,-1.036112580E0,9.949297849E0
5.668830417E0,4.081800548E-2,9.885424404E0,-1.605914975E0,1.001510083E1
5.678796417E0,-7.280022858E-2,9.975698397E0,-2.419462647E0,1.026516721E1
5.688761417E0,-1.619557771E-1,1.005456330E1,-3.184197178E0,1.054796590E1
5.698726417E0,-2.478718038E-1,1.018997312E1,-3.803478127E0,1.087949624E1
5.708692417E0,-4.589413784E-1,1.034205219E1,-4.236990695E0,1.118573917E1
5.718657417E0,-7.034204084E-1,1.049880434E1,-4.478190387E0,1.143564087E1
5.728623417E0,-7.924730643E-1,1.037007555E1,-4.458213960E0,1.131557123E1
5.738588417E0,-9.929591055E-1,1.004058612E1,-3.980711326E0,1.084644643E1
5.748553417E0,-1.331057248E0,9.866804531E0,-3.813231867E0,1.066143904E1
5.758519417E0,-1.617148061E0,9.835875099E0,-3.657704409E0,1.061783445E1
5.768484417E0,-2.054471991E0,9.929104275E0,-3.704208192E0,1.079486569E1
5.778449417E0,-2.412870496E0,1.010457220E1,-3.807042004E0,1.106426194E1
5.788415417E0,-2.462332093E0,9.852656608E0,-3.814690163E0,1.084849218E1
5.798380417E0,-2.783417323E0,9.685066636E0,-3.939518569E0,1.081978439E1
5.808346417E0,-3.191647992E0,9.689031048E0,-4.019309966E0,1.096443305E1
5.818311417E0,-3.488143049E0,9.585097960E0,-4.040134532E0,1.097104972E1
5.828276417E0,-4.520163163E0,9.659935303E0,-4.401567596E0,1.153776505E1
5.838242417E0,-5.383959467E0,9.949872415E0,-4.817329480E0,1.229608246E1
5.848207417E0,-5.409642193E0,1.014590383E1,-4.940545224E0,1.251449481E1
5.858173417E0,-5.043243966E0,1.027220135E1,-4.711531129E0,1.237541740E1
5.868138417E0,-4.652091551E0,1.040078864E1,-4.486856253E0,1.224541706E1
5.878103417E0,-4.360816596E0,1.050929776E1,-4.379806891E0,1.219199611E1
5.888069417E0,-4.218792990E0,1.052419997E1,-4.258493831E0,1.211163775E1
5.898034417E0,-4.022901326E0,1.048065926E1,-4.064776745E0,1.193944570E1
5.908000417E0,-3.228881892E0,1.009364492E1,-3.610812955E0,1.119577225E1
5.917965417E0,-2.583881966E0,9.535576136E0,-3.281682250E0,1.041023999E1
5.927930417E0,-2.425321557E0,9.192486080E0,-3.185236813E0,1.002645094E1
5.937896417E0,-2.366986810E0,8.934501663E0,-3.144917337E0,9.763116899E0
5.947861417E0,-2.513109899E0,8.710892442E0,-3.182764025E0,9.608608398E0
5.957826417E0,-3.153015731E0,8.384792055E0,-3.370136589E0,9.571001340E0
5.967792417E0,-3.428954316E0,7.769461486E0,-5.769428388E0,1.026686726E1
5.977757417E0,-3.558345305E0,6.822160510E0,-9.252472665E0,1.203378352E1
5.987723417E0,-4.125569369E0,5.144687310E0,-6.731477212E0,9.423423772E0
5.997688417E0,-4.524525478E0,2.940050197E0,-2.134315574E0,5.802631208E0
6.007653417E0,-5.879749560E0,-1.685006519E1,5.435203881E0,1.865576568E1
6.017619417E0,-5.878654377E0,-6.893818605E1,1.212800235E1,7.024329516E1
6.027584417E0,-5.004288645E0,-8.820568783E1,2.568280951E1,9.200485299E1
6.037550417E0,1.626830231E1,-8.674119887E1,2.007520340E1,9.050804955E1
6.047515417E0,1.207446641E1,-6.117631601E1,1.043668118E1,6.322387756E1
6.057480417E0,5.875840697E0,-2.636420426E1,4.951847892E0,2.746120113E1
6.067446417E0,4.468861739E0,-7.844304092E0,3.007308379E0,9.515657393E0
6.077411417E0,4.404397064E0,9.879245067E-1,1.467654345E0,4.746442626E0
6.087377417E0,5.370245408E0,6.017181348E0,3.706795585E-1,8.073624369E0
6.097342417E0,6.346195986E0,8.720543271E0,4.506846714E-1,1.079468365E1
6.107307417E0,5.805843678E0,9.576158736E0,2.403588333E0,1.145372751E1
6.117273417E0,5.501107848E0,1.001692361E1,4.325583906E0,1.221931349E1
6.127238417E0,3.708695930E0,1.194999439E1,5.454723641E0,1.364957147E1
6.137204417E0,-8.231962357E-1,1.912669380E1,-8.616487391E0,2.099409257E1
6.147169417E0,3.274706521E0,1.745609751E1,-3.172494327E1,3.635809495E1
6.157134417E0,1.782526323E0,1.216989648E1,-2.779782927E1,3.039741918E1
6.167100417E0,-1.869796674E-1,8.485959996E0,-6.998969786E0,1.100145702E1
6.177065417E0,4.069490698E-1,7.491552681E0,2.250720774E0,7.832924941E0
6.187030417E0,3.656563252E-1,6.508931015E0,3.873728914E0,7.583248855E0
6.196996417E0,7.153821306E-1,5.551979794E0,3.299556895E0,6.497947902E0
6.206961417E0,8.619563319E-1,4.519739240E0,2.250365117E0,5.122026423E0
6.216927417E0,7.886556365E-1,3.462385479E0,1.151801058E0,3.733193887E0
6.226892417E0,4.421124340E-1,2.411878223E0,6.985434651E-2,2.453059233E0
6.236857417E0,1.736093145E-1,1.564785660E0,-5.341314554E-1,1.662525419E0
6.246823417E0,-1.881662502E-1,9.385172886E-1,-6.671813393E-1,1.166769977E0
6.256788417E0,-4.849592588E-1,5.607368714E-1,-8.500025766E-1,1.127881067E0
6.266754417E0,-3.922986151E-1,3.896216136E-1,-1.084040891E0,1.216900924E0
6.276719417E0,1.636568784E-1,1.758041400E-1,-8.988049002E-1,9.303445158E-1
6.286684417E0,6.060525734E-1,-2.450901371E-1,-6.274742134E-1,9.061417028E-1
6.296650417E0,8.282447217E-1,-1.092586743E0,-3.119736595E-1,1.406080607E0
6.306615417E0,1.016981148E0,-2.451817045E0,-1.232154518E-2,2.654394338E0
6.316581417E0,9.667363168E-1,-4.259805361E0,-2.275689554E-1,4.374049434E0
6.326546417E0,9.057160898E-1,-5.985995808E0,-5.930374753E-1,6.083104544E0
6.336511417E0,4.064562957E-1,-7.634308943E0,-1.046625874E0,7.716430877E0
6.346477417E0,-7.313623517E-1,-8.085338016E0,-9.310952716E-1,8.171567788E0
6.356442417E0,-1.815973858E0,-7.019914513E0,-4.054611361E-1,7.262324666E0
6.366408417E0,-2.115589135E0,-4.777795578E0,3.808711092E-1,5.239094461E0
6.376373417E0,-1.574153630E0,-2.161084712E0,1.170207946E0,2.918498488E0
6.386338417E0,-8.881162631E-1,-2.256937534E-1,1.736260521E0,1.963234261E0
6.396304417E0,-3.726634092E-1,1.118015115E0,2.585374467E0,2.841301981E0
6.406269417E0,1.645020705E-2,1.952754266E0,5.927551718E0,6.240944576E0
6.416235417E0,-1.274926992E-1,1.594066762E0,5.273344181E0,5.510486555E0
6.426200417E0,-3.972689677E-1,1.516717454E0,1.588321141E0,2.231819553E0
6.436165417E0,-3.625153837E-1,1.229204013E0,6.691847415E-1,1.445741377E0
6.446131417E0,-3.726386681E-1,8.362962645E-1,3.225886948E-1,9.707288422E-1
6.456096417E0,-3.147299639E-1,4.629620701E-1,1.238535292E-1,5.733485199E-1
6.466062417E0,-3.133257185E-1,1.248842472E-1,-1.379171062E-1,3.644039095E-1
6.476027417E0,-4.783024962E-1,-1.082325464E-1,-3.960166403E-1,6.303306603E-1
6.485992417E0,-5.838390742E-1,-1.957051384E-1,-5.844981285E-1,8.490033145E-1
6.495958792E0,-6.260933203E-1,-1.945544064E-1,-8.811028934E-1,1.098265256E0
6.505923792E0,-6.638080806E-1,-9.564115226E-2,-1.270927405E0,1.437026398E0
6.515888792E0,-6.953258155E-1,8.591313958E-3,-1.401089934E0,1.564162653E0
6.525854792E0,-7.138951837E-1,1.729208779E-1,-1.249293877E0,1.449235369E0
6.535819792E0,-3.681328403E-1,5.721442044E-1,-8.002872102E-1,1.050395353E0
6.545785792E0,-5.777663022E-2,9.118569088E-1,-4.388206708E-1,1.013599893E0
6.555750792E0,2.312706267E-2,1.087586789E0,-1.196354941E-2,1.087898438E0
6.565715792E0,2.030119014E-3,1.170954051E0,4.429910512E-1,1.251949912E0
6.575681792E0,-2.545509869E-1,1.060976111E0,7.618302190E-1,1.330733555E0
6.585646792E0,-4.377838499E-1,8.934422725E-1,8.802633794E-1,1.328441723E0
6.595612792E0,-3.622447307E-1,7.971433085E-1,9.070295937E-1,1.260698768E0
6.605577792E0,-2.166991094E-1,5.731458324E-1,7.540452361E-1,9.716166257E-1
6.615542792E0,-2.932055226E-2,2.932589149E-1,4.792834032E-1,5.626482618E-1
6.625508792E0,1.633642618E-2,2.683871984E-4,6.565721512E-2,6.765959466E-2
6.635473792E0,6.667505091E-2,-1.877944404E-1,-3.748556399E-1,4.245339386E-1
6.645439792E0,1.315253137E-1,-2.140279734E-1,-6.669918895E-1,7.127307080E-1
6.655404792E0,1.348143360E-1,-1.517545420E-1,-8.161473441E-1,8.410117915E-1
6.665369792E0,3.086199525E-1,1.985363603E-2,-1.292691911E0,1.329169974E0
6.675335792E0,5.953802719E-1,1.258040142E-1,-2.439885217E0,2.514626054E0
6.685300792E0,9.001512947E-1,2.362731206E-1,-3.057309090E0,3.195815422E0
6.695266792E0,8.167980661E-1,2.723603815E-1,-2.705523055E0,2.839224235E0
6.705231792E0,5.195030009E-1,2.948078424E-1,-1.805986375E0,1.902204463E0
6.715196792E0,1.691846716E-1,3.908840275E-1,-9.515489781E-1,1.042525412E0
6.725162792E0,-1.951897612E-1,5.147186995E-1,-6.006857796E-1,8.147746856E-1
6.735127792E0,-5.871311663E-1,4.596870446E-1,-6.668445396E-1,1.000358349E0
6.745093792E0,-7.962599404E-1,4.881758487E-1,-7.931270023E-1,1.225314651E0
6.755058792E0,-7.713435658E-1,6.284698480E-1,-9.118615866E-1,1.349606165E0
6.765023792E0,-8.582113364E-1,6.390714347E-1,-1.031831249E0,1.486477286E0
6.774989792E0,-8.780547398E-1,5.411381739E-1,-1.019575485E0,1.450291288E0
6.784954792E0,-7.054491730E-1,2.915801793E-1,-9.685467609E-1,1.233191131E0
6.794920792E0,-5.688760128E-1,3.231405258E-2,-8.418292654E-1,1.016533634E0
6.804885792E0,-4.321361339E-1,5.529711843E-3,-5.994191265E-1,7.389692180E-1
6.814850792E0,-3.780974459E-1,7.176872492E-2,-5.855600560E-1,7.007060779E-1
6.824816792E0,-5.235688989E-1,2.787554812E-1,-5.969482394E-1,8.415320616E-1
6.834781792E0,-5.807013121E-1,5.715524662E-1,-1.938211656E-1,8.375278382E-1
6.844747792E0,-5.927701480E-1,8.712064809E-1,1.844678132E-1,1.069768926E0
6.854712792E0,-5.345301259E-1,1.265266716E0,3.113817751E-1,1.408396580E0
6.864677792E0,-4.607937398E-1,1.597073400E0,3.097233586E-1,1.690829049E0
6.874643792E0,-5.168046571E-1,1.933514003E0,2.640449099E-1,2.018733060E0
6.884608792E0,-5.300617202E-1,2.143057162E0,4.164677887E-1,2.246576249E0
6.894574792E0,-4.531777414E-1,2.288219553E0,5.403283346E-1,2.394425504E0
6.904539792E0,-4.686456734E-1,2.323747235E0,3.991427810E-1,2.403902024E0
6.914504792E0,-3.846740652E-1,2.350557303E0,3.211852169E-1,2.403383806E0
6.924470792E0,-3.179282812E-1,2.178860832E0,8.247146845E-2,2.203477811E0
6.934435792E0,-4.050239106E-1,1.936776164E0,8.770940423E-2,1.980615868E0
6.944401792E0,-4.296269475E-1,1.774319463E0,3.669187756E-1,1.862100497E0
6.954366792E0,-6.062367607E-1,1.414863635E0,5.970205986E-1,1.650998398E0
6.964331792E0,-6.636353684E-1,6.207024068E-1,4.608038628E-1,1.018834422E0
6.974297792E0,-6.224255812E-1,-1.581858945E-1,-1.359943955E-1,6.564532405E-1
6.984262792E0,-4.859671726E-1,-1.146613846E0,-1.748838906E0,2.146933842E0
6.994228792E0,-5.052818050E-1,-2.121983796E0,-3.364344045E0,4.009605440E0
7.004193792E0,-4.086412174E-1,-2.917636065E0,-2.616578718E0,3.940313698E0
7.014159792E0,-9.863613997E-1,-3.512309591E0,7.690059221E-1,3.728350518E0
7.024124792E0,-5.048453835E-1,-4.914781807E0,4.718960309E0,6.832169163E0
7.034089792E0,1.255910586E0,-6.748369233E0,2.282509747E0,7.233785278E0
7.044055792E0,3.975777153E0,-9.295265513E0,-6.190586083E-1,1.012877083E1
7.054020792E0,3.489639936E0,-1.021779651E1,-4.104584590E-1,1.080506495E1
7.063986792E0,4.090330905E-1,-9.669978481E0,-1.234812078E-1,9.679413180E0
7.073951792E0,-1.328109958E0,-1.003628023E1,-6.816011578E-2,1.012400329E1
7.083916792E0,-2.211211869E0,-1.174777545E1,-1.077825740E0,1.200255783E1
7.093882792E0,-3.078935309E0,-1.305297222E1,-2.109540044E0,1.357608506E1
7.103847792E0,-3.071124306E0,-1.333900515E1,-2.006874632E0,1.383431995E1
7.113813792E0,-2.659150541E0,-1.301765153E1,-1.617777221E0,1.338460071E1
7.123778792E0,-2.507928096E0,-1.265793082E1,-1.287489936E0,1.296805870E1
7.133743792E0,-2.891407794E0,-1.257430628E1,-1.578469606E0,1.299865315E1
7.143709792E0,-3.473205752E0,-1.217361297E1,-1.813667132E0,1.278864337E1
7.153674792E0,-3.383263881E0,-1.081491652E1,-1.257689017E0,1.140134533E1
7.163640792E0,-2.526099488E0,-8.533618897E0,-3.533773550E-1,8.906666360E0
7.173605792E0,-1.339516268E0,-5.985371910E0,1.985889852E-1,6.136645526E0
7.183570792E0,-4.180148523E-1,-3.123829939E0,7.636451948E-1,3.242869699E0
7.193536792E0,6.418538323E-1,2.700635952E-1,2.226463307E0,2.332820085E0
7.203501792E0,1.763599178E0,3.707929945E0,5.128570629E0,6.569723224E0
7.213467792E0,1.392871380E0,5.719634085E0,3.267382007E0,6.732762429E0
7.223432792E0,5.173259729E-1,7.079080149E0,4.756932858E-1,7.113879815E0
7.233397792E0,-9.203691392E-1,8.250379770E0,-2.775424179E0,8.753217984E0
7.243363792E0,-2.225604936E0,9.440171211E0,-5.703350759E0,1.125159365E1
7.253328792E0,-2.108846857E0,1.058793579E1,-6.494042834E0,1.259857975E1
7.263294792E0,-1.368568013E0,1.145636309E1,-4.745825926E0,1.247574035E1
7.273259792E0,-7.529788502E-1,1.203667819E1,-3.155839351E0,1.246627134E1
7.283224792E0,-5.861841001E-2,1.220563700E1,-2.323951303E0,1.242504569E1
7.293190792E0,-4.126089918E-1,1.201644215E1,-1.762941366E0,1.215208173E1
7.303155792E0,-2.479952093E0,1.027595760E1,5.366504359E-1,1.058458599E1
7.313121792E0,-1.729197670E0,1.007127231E1,7.001445059E-1,1.024259990E1
7.323086792E0,-1.599890150E0,1.019379252E1,6.308152393E-1,1.033784225E1
7.333051792E0,-1.447990158E0,1.016280228E1,7.246127645E-1,1.029098097E1
7.343017792E0,-9.651034818E-1,1.011338629E1,7.172873727E-1,1.018462116E1
7.352982792E0,-3.883334720E-1,1.006495030E1,7.829375712E-1,1.010282231E1
7.362948792E0,2.639090078E-2,1.006127591E1,9.325151217E-1,1.010443238E1
7.372913792E0,2.771125233E-1,1.003928453E1,1.079842737E0,1.010099428E1
7.382878792E0,4.629469404E-1,1.001494491E1,1.203438988E0,1.009760896E1
7.392844792E0,6.225995359E-1,9.993457561E0,1.308230302E0,1.009793497E1
7.402809792E0,7.236405918E-1,9.987444284E0,1.362967257E0,1.010595759E1
7.412775792E0,7.947216842E-1,9.951688560E0,1.424282476E0,1.008445677E1
7.422740792E0,9.333291272E-1,9.909290400E0,1.527150203E0,1.006962399E1
7.432706792E0,1.026198407E0,9.849461689E0,1.609604129E0,1.003273662E1
7.442671792E0,1.081139284E0,9.820293438E0,1.660087820E0,1.001812941E1
7.452636792E0,1.110476373E0,9.755320348E0,1.734492470E0,9.970350896E0
7.462602792E0,1.157640745E0,9.719979776E0,1.846028839E0,9.961222888E0
7.472567792E0,1.271537562E0,9.634174810E0,1.979989719E0,9.917383291E0
7.482533792E0,1.338227250E0,9.492951688E0,2.118909623E0,9.818185266E0
7.492498792E0,1.333370552E0,9.389671149E0,2.263493578E0,9.750241253E0
7.502463500E0,1.376397435E0,9.330711919E0,2.412398626E0,9.735313141E0
7.512429500E0,1.411500317E0,9.285355067E0,2.459917778E0,9.708828320E0
7.522394500E0,1.332407808E0,9.023898574E0,2.622043526E0,9.491109961E0
7.532360500E0,-2.641922598E-1,5.309012781E0,4.335327998E0,6.859335471E0
7.542325500E0,-7.098713930E0,-1.920591890E1,8.511909939E0,2.217457262E1
7.552290500E0,-5.176484469E0,-4.988076772E1,-1.363899304E0,5.016719248E1
7.562256500E0,-1.233892896E0,-4.606740078E1,-5.250604359E0,4.638207362E1
7.572221500E0,5.421162962E0,-3.385848233E1,-2.744562282E0,3.439939615E1
7.582187500E0,7.988804578E0,-1.934549428E1,-1.467632418E0,2.098149404E1
7.592152500E0,7.600292181E0,-1.005262437E1,-2.028942609E0,1.276465064E1
7.602117500E0,4.924546657E0,-6.390018529E0,-2.212220075E0,8.365250399E0
7.612083500E0,9.140186244E-1,-4.843280885E0,-2.765791476E-1,4.936526694E0
7.622048500E0,-2.199574594E0,-5.467068282E0,2.322394482E0,6.334072949E0
7.632014500E0,-2.690156280E0,-6.729489743E0,3.718231570E0,8.145441610E0
7.641979500E0,-1.423380251E0,-5.998235784E0,2.829110389E0,6.782972022E0
7.651944500E0,2.389961690E-2,-4.534925628E0,8.073230186E-1,4.606288322E0
7.661910500E0,6.532753448E-1,-3.255984029E0,-1.479259021E0,3.635437790E0
7.671875500E0,1.086764524E0,-1.817402333E0,-3.911341421E0,4.447763493E0
7.681841500E0,1.523764080E0,-8.394192624E-1,-5.494725612E0,5.763548492E0
7.691806500E0,1.417187757E0,1.613357896E-1,-5.158772668E0,5.352325272E0
7.701772500E0,5.453775515E-1,1.182433305E0,-3.324113447E0,3.570058179E0
7.711737500E0,-9.251433907E-1,2.657740778E0,-2.878047784E0,4.025249729E0
7.721702500E0,-1.964687556E0,2.944105825E0,-4.849127808E0,6.003482056E0
7.731668500E0,-1.692652279E0,2.046275802E0,-4.787193515E0,5.474444095E0
7.741633500E0,-7.102593850E-1,1.935841194E0,-2.365310998E0,3.137936526E0
7.751599500E0,9.217404574E-3,2.123971265E0,1.092929390E-1,2.126801317E0
7.761564500E0,5.255742746E-1,2.479492502E0,1.515414695E0,2.953065031E0
7.771529500E0,8.068742448E-1,2.928535275E0,1.914492133E0,3.590632957E0
7.781495500E0,8.812631071E-1,3.395886850E0,1.361850439E0,3.763417168E0
7.791460500E0,7.828223810E-1,3.735447527E0,9.403386962E-1,3.930727155E0
7.801426500E0,6.086727107E-1,3.898522278E0,7.070466323E-1,4.008599925E0
7.811391500E0,5.308064362E-1,3.795569767E0,5.659473252E-1,3.874067850E0
7.821357500E0,3.476202596E-1,3.333833274E0,2.272356641E-1,3.359601195E0
7.831322500E0,2.413715272E-1,2.654961596E0,-2.411527683E-1,2.676795836E0
7.841287500E0,2.399258763E-2,1.793949736E0,-4.534983516E-1,1.850538315E0
7.851253500E0,-1.829507531E-1,7.894957352E-1,-5.442895308E-1,9.762302942E-1
7.861218500E0,-6.339444499E-1,-7.953031898E-2,-5.426838854E-1,8.382818360E-1
7.871184500E0,-9.946277547E-1,-7.884730572E-1,-4.172934155E-1,1.336079312E0
7.881149500E0,-1.188479033E0,-1.310770918E0,-2.751040412E-1,1.790610244E0
7.891114500E0,-1.238700769E0,-1.710694156E0,-1.488104689E-1,2.117309293E0
7.901080500E0,-1.180628196E0,-2.042759287E0,-1.360120833E-1,2.363312871E0
7.911045500E0,-1.144103564E0,-2.320984426E0,-1.544404605E-1,2.592256454E0
7.921011500E0,-8.846683062E-1,-2.210402468E0,-1.861436252E-1,2.388130342E0
7.930976500E0,-4.719631277E-1,-1.770934510E0,-2.340760294E-1,1.847633573E0
7.940942500E0,-2.034470712E-1,-1.209629290E0,-1.530733815E-1,1.236133160E0
7.950907500E0,-7.883362323E-3,-6.310952479E-1,5.084270954E-2,6.331890242E-1
7.960872500E0,1.581808513E-1,-7.669208050E-2,1.752068469E-1,2.481940695E-1
7.970838500E0,3.252334636E-1,4.035321397E-1,2.349443409E-1,5.690464277E-1
7.980803500E0,4.830062523E-1,7.536201435E-1,1.989775327E-1,9.169680578E-1
7.990769500E0,6.038972897E-1,8.969839311E-1,1.174710010E-1,1.087690924E0
8.000734500E0,6.441728380E-1,8.988106012E-1,1.037000772E-1,1.110663247E0
8.010699500E0,6.140395045E-1,7.743648952E-1,1.258297420E-1,9.962522914E-1
8.020665500E0,6.288532792E-1,5.057256818E-1,5.881831169E-2,8.091195868E-1
8.030630500E0,7.383157875E-1,2.105588204E-1,-1.165103035E-1,7.765435401E-1
8.040596500E0,9.011705375E-1,-6.577649832E-2,-3.958436358E-1,9.864720317E-1
8.050561500E0,1.160917013E0,-2.790981281E-1,-7.644977188E-1,1.417773197E0
8.060526500E0,1.561631087E0,-3.944362110E-1,-1.409523666E0,2.140333745E0
8.070492500E0,1.848546065E0,-4.338604778E-1,-2.014377048E0,2.768225490E0
8.080457500E0,1.700797743E0,-2.925730366E-1,-1.973270391E0,2.621470576E0
8.090423500E0,1.055855119E0,-8.526877642E-2,-1.541371947E0,1.870274920E0
8.100388500E0,4.742530435E-1,-6.882757545E-2,-1.133654662E0,1.230782709E0
8.110354500E0,1.996698430E-1,-1.564884478E-1,-1.034122480E0,1.064784478E0
8.120319500E0,8.072548985E-2,-2.624856037E-1,-9.061371624E-1,9.468367621E-1
8.130284500E0,6.360542715E-2,-3.249210030E-1,-8.010428166E-1,8.667692326E-1
8.140250500E0,2.889737830E-2,-3.293350661E-1,-5.657429650E-1,6.552570081E-1
8.150215500E0,3.793644279E-2,-2.538662231E-1,-2.657313931E-1,3.694596138E-1
8.160181500E0,6.108995497E-2,-1.472095013E-1,4.099336714E-3,1.594347027E-1
8.170146500E0,8.202985749E-2,-2.236326098E-2,1.556272991E-1,1.773382902E-1
8.180111500E0,8.528675660E-2,4.372255504E-2,2.286597535E-1,2.479330062E-1
8.190077500E0,4.234992117E-2,7.962562859E-2,3.208507562E-1,3.332851096E-1
8.200042500E0,8.991555870E-3,1.060532892E-1,4.072087227E-1,4.208884556E-1
8.210008500E0,-1.802623495E-2,1.166080981E-1,4.518748721E-1,4.670260097E-1
8.219973500E0,-5.639200956E-3,1.697844315E-1,4.706248462E-1,5.003461798E-1
8.229939500E0,-3.597499430E-4,2.077866554E-1,4.269812286E-1,4.748561816E-1
8.239904500E0,3.178356394E-2,2.427430648E-1,4.084511098E-1,4.762002725E-1
8.249869500E0,3.514249697E-2,2.537089330E-1,3.883241165E-1,4.651868842E-1
8.259835500E0,2.640149429E-2,1.733272594E-1,3.543462387E-1,3.953487506E-1
8.269800500E0,2.742373377E-2,4.381201744E-2,3.068177310E-1,3.111409232E-1
8.279766500E0,1.439292133E-2,-1.403758603E-1,2.468978038E-1,2.843783815E-1
8.289731500E0,-2.155795321E-2,-3.178885567E-1,1.865916681E-1,3.692347904E-1
8.299696500E0,-1.953788638E-2,-4.398070961E-1,1.737117139E-1,4.732734625E-1
8.309662500E0,-5.928784311E-3,-4.656178755E-1,1.961679456E-1,5.052890453E-1
8.319627500E0,-9.846272618E-3,-4.310701865E-1,2.072484192E-1,4.784039737E-1
8.329593500E0,2.214720637E-2,-3.036675435E-1,2.355891426E-1,3.849762588E-1
8.339558500E0,2.398235500E-2,-2.075977904E-1,2.746551213E-1,3.451194453E-1
8.349524500E0,7.961715013E-3,-1.640290171E-1,2.858189178E-1,3.296382276E-1
8.359489500E0,2.967958957E-2,-1.376194829E-1,2.861966479E-1,3.189490890E-1
8.369454500E0,4.478207052E-2,-1.302929217E-1,2.809315225E-1,3.128964679E-1
8.379420500E0,4.586015090E-2,-1.102398956E-1,2.607983896E-1,2.868305912E-1
8.389385500E0,4.468719944E-2,-7.282005429E-2,2.175994527E-1,2.337717432E-1
8.399351500E0,6.107986853E-2,1.287615359E-2,1.797118342E-1,1.902442877E-1
8.409316500E0,7.828325406E-2,1.180254632E-1,1.746887836E-1,2.248876363E-1
8.419281500E0,1.011389968E-1,2.386196083E-1,1.950674996E-1,3.243759293E-1
8.429247500E0,1.478839776E-1,3.274060696E-1,2.152129117E-1,4.187851509E-1
8.439212500E0,1.610109767E-1,4.183372897E-1,2.148946770E-1,4.971019460E-1
8.449178500E0,1.781867342E-1,5.083218455E-1,2.152712376E-1,5.800718202E-1
8.459143500E0,1.922196132E-1,5.389133084E-1,1.915173626E-1,6.033695665E-1
8.469109500E0,1.901444364E-1,5.099935645E-1,1.680983868E-1,5.696537634E-1
8.479074500E0,2.211449119E-1,4.448555821E-1,1.285568833E-1,5.131553695E-1
8.489039500E0,2.435109504E-1,3.668145490E-1,7.594480634E-2,4.467864254E-1
8.499005250E0,2.666630007E-1,3.385929626E-1,1.486142948E-2,4.312484346E-1
8.508970250E0,3.187694398E-1,4.006588179E-1,-1.530450225E-2,5.122261921E-1
8.518936250E0,3.955764180E-1,5.358470285E-1,-3.595759884E-2,6.670125107E-1
8.528901250E0,4.624690036E-1,6.720134783E-1,-1.831932664E-2,8.159750560E-1
8.538866250E0,5.159587477E-1,7.826907456E-1,-3.566538423E-2,9.381312553E-1
8.548832250E0,5.511325273E-1,8.770846868E-1,-3.231551439E-2,1.036372955E0
8.558797250E0,5.603187954E-1,1.043701681E0,-4.018879026E-2,1.185278656E0
8.568763250E0,5.768170068E-1,1.343382593E0,-1.352095529E-2,1.462045645E0
8.578728250E0,6.115363115E-1,1.628021543E0,8.767797545E-2,1.741297859E0
8.588694250E0,6.493571256E-1,1.771623312E0,1.990003368E-1,1.897344189E0
8.598659250E0,6.859145026E-1,1.777888604E0,2.335589893E-1,1.919874057E0
8.608624250E0,7.075635262E-1,1.732541692E0,2.858621871E-1,1.893162447E0
8.618590250E0,7.256789312E-1,1.762583517E0,3.239664450E-1,1.933459289E0
8.628555250E0,7.393843661E-1,1.854929763E0,3.664879820E-1,2.030213562E0
8.638521250E0,7.511327380E-1,1.990994471E0,4.310204852E-1,2.171183556E0
8.648486250E0,7.886936434E-1,2.155965475E0,5.130943429E-1,2.352337263E0
8.658452250E0,8.293358852E-1,2.306888543E0,6.163314669E-1,2.527725704E0
8.668417250E0,8.665835260E-1,2.562993080E0,7.187056880E-1,2.799363928E0
8.678382250E0,9.415088703E-1,2.894418526E0,7.924591041E-1,3.145169151E0
8.688348250E0,1.067117441E0,3.278794017E0,8.343731153E-1,3.547591907E0
8.698313250E0,1.471716698E0,3.678508510E0,9.924910359E-1,4.084411017E0
8.708279250E0,1.862253401E0,3.978160186E0,1.154124595E0,4.541558078E0
8.718244250E0,1.999307750E0,4.352888941E0,1.401564728E0,4.990917481E0
8.728209250E0,2.082651477E0,4.449513595E0,1.714843194E0,5.203488790E0
8.738175250E0,2.172982042E0,4.095958192E0,1.732631739E0,4.949821937E0
8.748140250E0,2.014921570E0,3.490383702E0,6.378540444E-1,4.080385411E0
8.758106250E0,1.416645867E0,1.977751113E0,-2.931693356E0,3.809620835E0
8.768071250E0,1.334932782E0,-4.747266680E-1,-8.420896858E0,8.539257277E0
8.778037250E0,2.150842729E0,-2.398976927E0,-1.123668787E1,1.168949824E1
8.788002250E0,3.767508395E0,-3.005591052E0,-1.039346675E1,1.145651990E1
8.797967250E0,4.515985035E0,-2.705366934E0,-5.584426578E0,7.674565218E0
8.807933250E0,3.841801947E0,-2.190772195E0,-5.230215995E-1,4.453366885E0
8.817898250E0,3.181684045E0,-1.729697022E0,2.545575979E0,4.426615209E0
8.827864250E0,2.258071601E0,-1.830711181E0,3.656008132E0,4.670844275E0
8.837829250E0,1.320409760E0,-6.644974673E-1,3.712542521E0,3.995999348E0
8.847795250E0,1.410088799E0,8.182301223E-2,4.034771758E0,4.274860064E0
8.857760250E0,1.741966527E0,2.168936938E-1,3.343544914E0,3.776345171E0
8.867725250E0,1.596558260E0,-1.057993446E0,1.275002915E0,2.300865238E0
8.877691250E0,8.898877501E-1,-4.216384522E0,-2.014181020E0,4.756755599E0
8.887656250E0,-7.435369125E-1,-9.493811814E0,-6.184325761E0,1.135478732E1
8.897622250E0,-2.082900422E0,-1.413163733E1,-6.538703867E0,1.570975162E1
8.907587250E0,-3.202953584E0,-1.427271778E1,-2.476781148E0,1.483589665E1
8.917553250E0,-3.730340861E0,-1.564310281E1,-4.452131686E0,1.668662893E1
8.927518250E0,-4.583229769E0,-2.211557995E1,-1.102129165E1,2.513113092E1
8.937483250E0,-5.014554602E0,-2.920517456E1,-1.475437281E1,3.310256026E1
8.947449250E0,-4.203591984E0,-3.299520877E1,-1.383543025E1,3.602461821E1
8.957414250E0,-3.869803094E0,-3.516073912E1,-1.431585269E1,3.816014399E1
8.967380250E0,-2.778319428E0,-3.271101537E1,-1.427421350E1,3.579780380E1
8.977345250E0,-1.097412158E0,-2.474106164E1,-9.540531651E0,2.653952126E1
8.987310250E0,3.627649136E-1,-1.818197554E1,6.510162438E0,1.931574612E1
8.997276250E0,3.900155698E-1,-1.505802574E1,2.677612891E1,3.072226116E1
9.007241250E0,-1.409325737E0,-1.665376129E1,7.198396093E-1,1.672878159E1
9.017207250E0,-8.373790227E-1,-1.441636632E1,-6.056568777E0,1.565933737E1
9.027172250E0,-1.479749018E-1,-1.034358416E1,-3.739502863E0,1.099979597E1
9.037138250E0,6.519184984E-1,-6.474369292E0,-2.354280226E0,6.919905407E0
9.047103250E0,1.506594316E0,-2.835432984E0,-1.657095069E-1,3.215115282E0
9.057068250E0,1.340803825E0,2.272251391E-1,-1.811247846E0,2.264951417E0
9.067034250E0,1.213779058E0,3.714851879E0,-7.405352443E-1,3.977659680E0
9.076999250E0,1.557923806E0,6.672900975E0,1.135569041E0,6.945808164E0
9.086965250E0,1.470498284E0,8.604625729E0,2.303586620E0,9.028203612E0
9.096930250E0,1.077096153E0,9.437175098E0,2.793970377E0,9.900842410E0
9.106896250E0,1.039554178E0,9.562432982E0,2.902953414E0,1.004728500E1
9.116861250E0,1.021014119E0,9.569078928E0,3.055263734E0,1.009675086E1
9.126826250E0,8.065835651E-1,9.682153553E0,3.576351221E0,1.035301707E1
9.136792250E0,7.108036876E-1,9.770450018E0,4.257100439E0,1.068128455E1
9.146757250E0,5.657133270E-1,9.752903693E0,3.320437010E0,1.031816185E1
9.156723250E0,4.324583520E-1,9.769536098E0,2.694820603E0,1.014361444E1
9.166688250E0,2.499582731E-1,9.849983261E0,2.729401914E0,1.022420091E1
9.176654250E0,9.168251418E-4,9.941149539E0,2.694318035E0,1.029979634E1
9.186619250E0,-2.055256102E-1,1.015821923E1,2.554707283E0,1.047655421E1
9.196584250E0,-3.991854657E-1,1.034587860E1,2.559097080E0,1.066515499E1
9.206550250E0,-6.168095499E-1,1.044800139E1,2.680463058E0,1.080398396E1
9.216515250E0,-8.796777807E-1,1.046935543E1,2.676415323E0,1.084179113E1
9.226481250E0,-1.160304444E0,1.043025509E1,2.402833604E0,1.076615702E1
9.236446250E0,-1.625810418E0,1.042786943E1,2.260567485E0,1.079323333E1
9.246412250E0,-2.408648806E0,1.056406044E1,2.161394030E0,1.104864635E1
9.256377250E0,-3.243303465E0,1.072198087E1,2.082388791E0,1.139369274E1
9.266342250E0,-3.928278759E0,1.083091918E1,1.874302758E0,1.167275439E1
9.276308250E0,-4.562034197E0,1.088756466E1,1.877623976E0,1.195310387E1
9.286273250E0,-5.535338618E0,1.104907177E1,2.188590599E0,1.255037408E1
9.296239250E0,-6.365691773E0,1.121145129E1,2.387716359E0,1.311182143E1
9.306204250E0,-7.179872698E0,1.143212287E1,2.485630324E0,1.372670257E1
9.316170250E0,-7.892327274E0,1.164395697E1,2.396432219E0,1.426931852E1
9.326135250E0,-8.110948235E0,1.182822495E1,2.008774685E0,1.448204276E1
9.336100250E0,-7.811955541E0,1.208496333E1,1.588868587E0,1.447748222E1
9.346066250E0,-7.015199903E0,1.232219773E1,1.116333455E0,1.422307235E1
9.356031250E0,-5.986046678E0,1.254491116E1,6.447350478E-1,1.391485660E1
9.365997250E0,-4.731355821E0,1.259792436E1,6.367910206E-2,1.345724641E1
9.375962250E0,-3.658355497E0,1.242564316E1,-5.785603541E-1,1.296591320E1
9.385928250E0,-2.907410454E0,1.195619010E1,-1.051465761E0,1.234945738E1
9.395893250E0,-2.396059605E0,1.122617926E1,-1.376827059E0,1.156130854E1
9.405858250E0,-2.233583608E0,1.062484342E1,-1.618809986E0,1.097710067E1
9.415824250E0,-2.177151107E0,1.013080398E1,-1.829535890E0,1.052237510E1
9.425789250E0,-2.221558955E0,9.755847766E0,-2.034732814E0,1.021038821E1
9.435755250E0,-2.361066943E0,9.527327469E0,-2.184549589E0,1.005568808E1
9.445720250E0,-2.505509395E0,9.291974115E0,-2.343225772E0,9.905002136E0
9.455685250E0,-2.698813667E0,9.147775930E0,-2.578663910E0,9.880025670E0
9.465651250E0,-3.057264943E0,9.197671975E0,-2.829248091E0,1.009696407E1
9.475616250E0,-3.419264603E0,9.270265743E0,-3.001582493E0,1.032660132E1
9.485582250E0,-3.610935747E0,9.070726585E0,-3.240850266E0,1.028688720E1
9.495547250E0,-3.776796112E0,8.702433275E0,-3.353011849E0,1.006177033E1
9.505513292E0,-3.763478786E0,8.292781439E0,-3.244536643E0,9.667523706E0
9.515478292E0,-3.382096484E0,7.722426483E0,-2.727607111E0,8.860828853E0
9.525444292E0,2.274056310E1,2.175969969E0,4.809993972E1,5.324915264E1
9.535409292E0,1.304777521E1,-1.951199491E0,1.512907759E1,2.007338054E1
9.545374292E0,1.275648447E1,-9.301163599E0,2.183810384E1,2.694702803E1
9.555340292E0,1.804259546E1,-1.738835401E1,1.862668904E1,3.122248630E1
9.565305292E0,2.632134943E0,-1.742934299E1,-4.329596558E0,1.815091011E1
9.575271292E0,-7.478061985E0,-1.355027440E1,-1.923855338E1,2.469115800E1
9.585236292E0,-1.076219919E1,-1.506151068E1,-3.394226357E1,3.866201355E1
9.595201292E0,-2.053444372E1,-3.108409779E1,-2.683692124E1,4.591410301E1
9.605167292E0,-1.971137327E1,-4.025430013E1,7.717150540E0,4.548077976E1
9.615132292E0,-4.449605396E0,-2.977044127E1,2.150049028E1,3.699120495E1
9.625098292E0,1.164672387E0,-2.488858455E1,1.495275130E1,2.905826688E1
9.635063292E0,-8.038388821E-1,-2.211184942E1,1.155082135E1,2.495999831E1
9.645029292E0,-2.112556331E0,-1.844591184E1,8.270536877E0,2.032526354E1
9.654994292E0,-8.392476466E-1,-1.419341199E1,8.805243698E0,1.672392290E1
9.664960292E0,-4.064136475E-2,-1.067249354E1,6.895396886E0,1.270630821E1
9.674925292E0,-3.280834696E-1,-6.831661066E0,5.290090606E0,8.646634623E0
9.684890292E0,-1.798480158E0,-3.272576673E0,3.455580490E0,5.087762326E0
9.694856292E0,-2.382652963E0,3.178020179E-2,1.538419687E0,2.836332184E0
9.704821292E0,-2.155532781E0,2.953777705E0,1.715321350E0,4.038991413E0
9.714787292E0,-1.614439338E0,4.393025399E0,2.564311920E0,5.336738906E0
9.724752292E0,-1.178207887E0,5.722584590E0,3.493454952E0,6.807376566E0
9.734717292E0,-1.273445216E0,6.487979271E0,3.119202745E0,7.310606234E0
9.744683292E0,-1.279658760E0,6.916601813E0,2.222129351E0,7.376636499E0
9.754648292E0,-8.447124544E-1,7.145275308E0,2.383126879E0,7.579432174E0
9.764614292E0,-5.880089430E-1,7.061708656E0,2.548361592E0,7.530446897E0
9.774579292E0,-7.453035025E-1,6.766237155E0,1.845049138E0,7.052775969E0
9.784545292E0,-1.202116494E0,6.487262987E0,5.997684976E-1,6.624906595E0
9.794510292E0,-1.468775548E0,6.124442672E0,-2.380664617E-2,6.298147855E0
9.804475292E0,-1.403945568E0,5.749889333E0,3.992741972E-2,5.918942870E0
9.814441292E0,-1.676668038E0,5.395894804E0,-2.970088805E-1,5.658189704E0
9.824406292E0,-2.371145934E0,4.882063127E0,-6.810586824E-1,5.469983030E0
9.834372292E0,-3.247975098E0,4.004673800E0,-1.156898514E0,5.284426994E0
9.844337292E0,-4.461252173E0,2.457549655E0,-1.648205108E0,5.353400913E0
9.854303292E0,-5.161855320E0,6.257590789E-1,-2.242834927E0,5.662740792E0
9.864268292E0,-5.830753402E0,-1.401755347E0,-2.821260502E0,6.627376110E0
9.874233292E0,-6.716901857E0,-3.757466387E0,-3.712985448E0,8.545266827E0
9.884199292E0,-6.986504692E0,-5.868321762E0,-5.141225758E0,1.047285302E1
9.894164292E0,-6.408512102E0,-7.558803847E0,-6.002307200E0,1.158586357E1
9.904130292E0,-6.268304642E0,-9.798564016E0,-6.349852250E0,1.325232521E1
9.914095292E0,-5.559820325E0,-1.132526618E1,-6.935224026E0,1.439689509E1
9.924061292E0,-4.336607954E0,-1.211698853E1,-7.927230474E0,1.511517656E1
9.934026292E0,-2.422662389E0,-1.136049214E1,-9.378745626E0,1.492953262E1
9.943992292E0,-1.082433455E-1,-9.373584874E0,-9.549829309E0,1.338189261E1
9.953957292E0,1.599092590E0,-6.999178532E0,-9.980834591E0,1.229482234E1
9.963922292E0,2.644261484E0,-4.895121714E0,-1.754022608E1,1.840146370E1
9.973888292E0,1.703159580E0,-1.827506906E0,-1.241049537E1,1.265942058E1
9.983853292E0,-1.037206521E-1,-3.579776520E-1,-8.284586567E-1,9.084325615E-1
9.993819292E0,-1.390567577E0,7.888525414E-1,1.404651181E0,2.128147424E0
1.000378429E1,-8.506112717E-1,2.012448490E0,1.029532709E0,2.415248654E0
1.001375029E1,3.041028505E-1,3.014492269E0,6.874515894E-1,3.106804125E0
1.002371529E1,2.749980897E0,3.987589990E0,4.081736010E0,6.334337986E0
1.003368029E1,2.919707441E0,3.720979176E0,1.415726392E0,4.937069858E0
1.004364629E1,2.306875240E0,3.205464671E0,-3.979290453E-1,3.969259963E0
1.005361129E1,1.696114708E0,2.688370832E0,-1.321781809E0,3.442564449E0
1.006357729E1,7.111467730E-1,2.119687010E0,-2.189335535E0,3.129216010E0
1.007354229E1,2.975267977E-2,1.491397256E0,-2.675932635E0,3.063619830E0
1.008350829E1,-6.411209569E-1,8.836674821E-1,-2.807983230E0,3.012751918E0
1.009347329E1,-1.024018346E0,5.482355243E-1,-2.686946158E0,2.927260736E0
1.010343829E1,-1.426551342E0,4.637859428E-1,-2.294255049E0,2.741122464E0
1.011340429E1,-1.644756859E0,4.750365704E-1,-1.232891560E0,2.109717153E0
1.012336929E1,-1.692852547E0,7.197478080E-1,-7.015875256E-1,1.968758926E0
1.013333529E1,-1.453668974E0,9.920286673E-1,-7.400528491E-1,1.909175891E0
1.014330029E1,-1.207875125E0,1.049731915E0,-7.977797779E-1,1.788114086E0
1.015326629E1,-1.037647986E0,1.128106824E0,-8.218840474E-1,1.739204340E0
1.016323129E1,-1.026763394E0,1.078600203E0,-6.714059526E-1,1.633526069E0
1.017319629E1,-1.230078026E0,8.274628758E-1,-4.436713748E-1,1.547459547E0
1.018316229E1,-1.460003555E0,3.793901557E-1,-1.590882660E-1,1.516857392E0
1.019312729E1,-1.638740805E0,-2.101769972E-1,1.257108973E-1,1.656939657E0
1.020309329E1,-1.687605548E0,-8.427726406E-1,3.950836439E-1,1.927269907E0
1.021305829E1,-1.636580405E0,-1.294389358E0,5.256698035E-1,2.151782511E0
1.022302429E1,-1.560452873E0,-1.462995576E0,6.384403740E-1,2.232257901E0
1.023298929E1,-1.502812191E0,-1.386389449E0,6.735771699E-1,2.152725340E0
1.024295429E1,-1.398313091E0,-1.117437994E0,6.309478980E-1,1.897904746E0
1.025292029E1,-1.219264405E0,-7.547644436E-1,6.672612999E-1,1.581617114E0
1.026288529E1,-9.807234413E-1,-3.105052775E-1,6.997643638E-1,1.244147162E0
1.027285129E1,-7.331670217E-1,6.011697829E-2,5.161740714E-1,8.986565556E-1
1.028281629E1,-4.019008396E-1,4.990464073E-1,2.671148443E-1,6.942059792E-1
1.029278229E1,-2.215298780E-1,8.699668711E-1,-4.691952020E-3,8.977415319E-1
1.030274729E1,-2.721805796E-1,7.986244082E-1,-3.274338439E-2,8.443668294E-1
1.031271229E1,-5.563434928E-1,3.711245316E-1,2.540502642E-1,7.153971182E-1
1.032267829E1,-8.289818363E-1,-6.753417134E-2,7.103927015E-1,1.093814216E0
1.033264329E1,-8.974498080E-1,-3.270271701E-1,1.024619878E0,1.400788643E0
1.034260929E1,-7.089151832E-1,-3.844322097E-1,9.835981518E-1,1.271933247E0
1.035257429E1,-5.298874001E-1,-2.595111251E-1,8.751679695E-1,1.055483612E0
1.036254029E1,-3.248775874E-1,-4.991241753E-2,9.436793567E-1,9.992834555E-1
1.037250529E1,-3.300402403E-2,1.232335782E-1,1.054335866E0,1.062026318E0
1.038247129E1,1.828116625E-1,2.252236372E-1,1.136643759E0,1.173074945E0
1.039243629E1,2.687835666E-1,2.039614069E-1,1.258214389E0,1.302669686E0
1.040240129E1,3.290457020E-1,1.527281034E-1,1.348907335E0,1.396834975E0
1.041236729E1,4.505786906E-1,1.272716653E-1,1.409791760E0,1.485507335E0
1.042233229E1,5.286612390E-1,8.481737137E-2,1.395247542E0,1.494453879E0
1.043229829E1,4.222354091E-1,2.989564419E-2,1.398481491E0,1.461138930E0
1.044226329E1,3.137879775E-1,5.350085378E-2,1.403707002E0,1.439346582E0
1.045222929E1,2.605653050E-1,2.210370308E-1,1.332077440E0,1.375202514E0
1.046219429E1,2.535963741E-1,4.276764625E-1,1.109848893E0,1.216134385E0
1.047215929E1,3.761320140E-1,6.977523369E-1,9.808692563E-1,1.261125733E0
1.048212529E1,5.668198760E-1,9.312942231E-1,1.029485200E0,1.499477735E0
1.049209029E1,7.816717221E-1,1.068860496E0,1.161075765E0,1.761127586E0
1.050205612E1,9.446667322E-1,1.076976432E0,1.211251234E0,1.876007202E0
1.051202113E1,1.031311066E0,9.410286677E-1,1.182900497E0,1.829860939E0
1.052198713E1,1.107692002E0,8.400642103E-1,1.112462014E0,1.780522727E0
1.053195213E1,1.181634429E0,8.405284792E-1,1.012080451E0,1.768348067E0
1.054191813E1,1.199332927E0,9.726018780E-1,8.624169463E-1,1.768648318E0
1.055188313E1,1.175046810E0,1.239525518E0,7.205762853E-1,1.853749902E0
1.056184813E1,1.126815759E0,1.684177033E0,6.000324994E-1,2.113339782E0
1.057181412E1,9.183661754E-1,2.204956371E0,5.434583491E-1,2.449607317E0
1.058177913E1,5.917158584E-1,2.617262843E0,5.191280848E-1,2.733072705E0
1.059174513E1,2.565296298E-1,3.013668981E0,5.614993483E-1,3.076246039E0
1.060171013E1,1.271156909E-1,3.435298253E0,5.188004945E-1,3.476576827E0
1.061167613E1,1.854964846E-1,3.771558176E0,3.814359502E-1,3.795333109E0
1.062164113E1,3.562201251E-1,4.078382047E0,2.714517242E-1,4.102898845E0
1.063160613E1,4.637349258E-1,4.371960804E0,2.193028928E-1,4.401952421E0
1.064157212E1,4.999006855E-1,4.674689285E0,2.403293341E-1,4.707481152E0
1.065153712E1,5.476281448E-1,5.026046720E0,2.796177994E-1,5.063519362E0
1.066150313E1,6.132170936E-1,5.403238907E0,2.725691271E-1,5.444751585E0
1.067146813E1,6.760489342E-1,5.750891545E0,1.772671133E-1,5.793204585E0
1.068143412E1,5.907528220E-1,6.008500571E0,1.607545763E-3,6.037472202E0
1.069139913E1,2.772138628E-1,6.024548839E0,-3.993044566E-1,6.044127753E0
1.070136413E1,3.436101660E-2,5.889742452E0,-1.074573665E0,5.987065674E0
1.071133013E1,-1.188124985E-1,5.545442607E0,-1.750445428E0,5.816365645E0
1.072129512E1,-1.506982425E-1,4.894741645E0,-2.198391702E0,5.367879638E0
1.073126113E1,7.814587373E-1,3.195573521E0,-2.662498072E0,4.232170113E0
1.074122613E1,3.706466679E0,-2.148009753E0,-2.809684185E0,5.123101245E0
1.075119212E1,1.214052006E1,-1.213832268E1,-1.748335753E0,1.725652870E1
1.076115713E1,1.852896920E1,-2.037561697E1,-1.009579085E0,2.755916756E1
1.077112213E1,1.428518053E1,-1.765530747E1,-4.898943454E-1,2.271599131E1
1.078108813E1,5.260490831E0,-9.394215020E0,-1.313098548E0,1.084657860E1
1.079105312E1,-1.499459982E-1,-1.929726176E0,-9.284761575E-1,2.146717236E0
1.080101913E1,-1.237355909E0,3.095084442E0,-1.058995659E0,3.497437512E0
1.081098413E1,-1.037141398E0,5.226771108E0,-8.607066357E-1,5.397741602E0
1.082095012E1,-1.677931329E0,3.643148643E0,-2.742034239E-1,4.020344898E0
1.083091512E1,-3.566300149E0,-8.098569095E-2,1.106839916E0,3.734989965E0
1.084088013E1,-5.186934028E0,-4.524228732E0,2.847603963E0,7.448609169E0
1.085084613E1,-6.591546324E0,-1.011415345E1,4.222474982E0,1.278960038E1
1.086081113E1,-8.500700242E0,-1.789398848E1,5.683822228E0,2.060976864E1
1.087077713E1,-1.078055360E1,-2.824601367E1,9.501450031E0,3.169124764E1
1.088074213E1,-1.089092096E1,-3.536447014E1,1.027576464E1,3.840376605E1
1.089070813E1,-1.001306327E1,-4.018120993E1,8.779456308E0,4.233048453E1
1.090067312E1,-1.004987968E1,-4.260815058E1,9.200934137E0,4.473378775E1
1.091063913E1,-6.553751092E0,-3.807814422E1,7.958215454E0,3.944908001E1
1.092060413E1,-2.724939904E0,-2.965539145E1,5.824985123E0,3.034465342E1
1.093056913E1,-6.955741028E-1,-2.349668059E1,4.073007286E0,2.385722554E1
1.094053513E1,6.562052384E-2,-1.932233228E1,3.199168974E0,1.958549241E1
1.095050013E1,2.672314963E-1,-1.526585215E1,2.264026113E0,1.543513748E1
1.096046613E1,1.620748191E0,-1.077242480E1,9.528353655E-1,1.093525747E1
1.097043112E1,2.326298375E0,-5.991588669E0,3.642270099E-1,6.437659530E0
1.098039713E1,3.089892699E0,-1.077091622E0,6.165532225E-1,3.329819985E0
1.099036213E1,3.715581027E0,3.352233292E0,9.710652298E-1,5.097644367E0
1.100032812E1,3.557063887E0,6.219973896E0,-9.464902595E-2,7.165873094E0
1.101029313E1,3.512693753E0,8.288352758E0,-1.057283594E0,9.063865480E0
1.102025813E1,3.442933839E0,9.522875399E0,-1.581919171E0,1.024897154E1
1.103022413E1,3.089728977E0,1.015703927E1,-2.002571958E0,1.080380332E1
1.104018913E1,2.673552818E0,1.051307272E1,-1.840339352E0,1.100270110E1
1.105015513E1,9.957233767E-1,1.099473009E1,-2.222086959E0,1.126113783E1
1.106012013E1,-4.035113528E0,1.174800116E1,-2.988476252E0,1.277609732E1
1.107008613E1,-8.138406175E0,1.198569047E1,-6.464781613E0,1.586454640E1
1.108005112E1,-7.068865648E0,1.213079381E1,-9.103774463E0,1.673331197E1
1.109001613E1,-2.423990000E0,1.260535734E1,-6.782019374E0,1.451780107E1
1.109998213E1,9.083259214E-1,1.249579455E1,-3.516372821E0,1.301287114E1
1.110994713E1,2.291395175E0,1.257851160E1,-2.091307987E0,1.295542415E1
1.111991313E1,3.166554959E0,1.235040587E1,-1.608562594E0,1.285095596E1
1.112987813E1,3.780415831E0,1.233711047E1,-1.250454549E0,1.296377550E1
1.113984413E1,3.962225938E0,1.255509935E1,-7.913171428E-1,1.318923564E1
1.114980912E1,4.041948631E0,1.261094728E1,-4.949352300E-1,1.325210552E1
1.115977413E1,4.202155031E0,1.228065327E1,-3.385128192E-1,1.298411115E1
1.116974013E1,4.276586285E0,1.179051509E1,-1.748329175E-1,1.254336490E1
1.117970513E1,4.255303005E0,1.120199284E1,2.769826055E-2,1.198303027E1
1.118967113E1,4.013546365E0,1.068998140E1,3.411452723E-1,1.142368753E1
1.119963613E1,3.722943256E0,1.038814696E1,6.787564874E-1,1.105597639E1
1.120960213E1,3.558203217E0,1.025456381E1,9.661680405E-1,1.089726432E1
1.121956712E1,3.385591657E0,1.013260726E1,1.143487194E0,1.074427865E1
1.122953212E1,3.278397284E0,9.988199744E0,1.354958765E0,1.059943093E1
1.123949813E1,3.205844740E0,9.945592253E0,1.431900229E0,1.054716000E1
1.124946313E1,3.062107900E0,9.938013092E0,1.352813129E0,1.048669216E1
1.125942912E1,2.858492648E0,9.946406186E0,1.341312679E0,1.043556879E1
1.126939413E1,2.793984995E0,9.859055800E0,1.486204198E0,1.035452251E1
1.127936013E1,2.742380394E0,9.563524657E0,1.915551502E0,1.013168257E1
1.128932513E1,2.539241105E0,9.501536570E0,2.271146560E0,1.009381243E1
1.129929113E1,2.277457460E0,9.603522536E0,2.262428361E0,1.012585995E1
1.130925613E1,2.148591551E0,9.608853443E0,2.198218186E0,1.008854169E1
1.131922113E1,1.900009895E0,9.537230898E0,2.388625309E0,1.001370769E1
1.132918712E1,1.334492925E0,9.373802975E0,2.941977439E0,9.914851730E0
1.133915213E1,5.013404162E-1,9.223693839E0,3.881350175E0,1.001961823E1
1.134911813E1,-3.591074802E-1,9.229596019E0,4.098659606E0,1.010511808E1
1.135908313E1,-8.745696531E-1,9.554321725E0,3.360784260E0,1.016586477E1
1.136904913E1,-3.791314164E-1,9.883423487E0,2.614136921E0,1.023032318E1
1.137901413E1,8.434718214E-1,9.917726762E0,1.890086732E0,1.013139559E1
1.138897913E1,1.625910844E0,9.836345215E0,1.333766263E0,1.005863836E1
1.139894512E1,1.928135295E0,9.746546600E0,9.869819355E-1,9.984338220E0
1.140891012E1,2.090975427E0,9.656979536E0,7.711062419E-1,9.910804045E0
1.141887613E1,2.073434365E0,9.528202212E0,5.793906587E-1,9.768390912E0
1.142884113E1,1.846326901E0,9.337795821E0,4.990920156E-1,9.531654980E0
1.143880712E1,1.384689225E0,9.049715785E0,5.739627615E-1,9.173012225E0
1.144877213E1,9.152743140E-1,8.637556663E0,7.425887865E-1,8.717600030E0
1.145873813E1,5.832832964E-1,8.086120373E0,1.184382182E0,8.193187612E0
1.146870313E1,2.281393513E-2,6.969935437E0,1.640210064E0,7.160363784E0
1.147866812E1,-2.676682248E0,2.275780771E0,3.737811556E0,5.129818827E0
1.148863413E1,-6.793561193E0,-6.488278064E0,1.033229201E1,1.396447221E1
1.149859913E1,-5.516464391E0,-1.548802062E1,2.904373995E1,3.337437629E1
1.150856563E1,-2.417354433E0,-2.026834629E1,3.052494493E1,3.672086228E1
1.151853063E1,-3.316283148E0,-9.379180074E0,-8.075348340E-1,9.980925072E0
1.152849663E1,-5.283929395E0,-1.449221290E1,-5.298294250E0,1.630999897E1
1.153846162E1,-3.308862154E0,-1.102988589E1,3.267861478E0,1.197020761E1
1.154842662E1,-6.023222106E0,-1.348025283E1,1.259698997E0,1.481834209E1
1.155839263E1,-1.088954687E1,-1.736552999E1,-2.698501718E0,2.067427809E1
1.156835763E1,-1.958415306E1,-3.011585501E1,-6.778077182E0,3.655743569E1
1.157832362E1,-2.504875616E1,-4.501289052E1,-1.671606542E0,5.154022475E1
1.158828863E1,-1.900738722E1,-4.868584944E1,-2.895467516E0,5.234478424E1
1.159825463E1,-7.925403219E0,-3.946403256E1,-1.990722283E0,4.030117687E1
1.160821963E1,3.262018648E0,-1.958453547E1,-1.520885583E1,2.501007979E1
1.161818563E1,8.417344090E0,-8.362774950E0,-1.816549458E1,2.169730121E1
1.162815063E1,5.522047312E0,-9.169597739E-1,-1.012622912E1,1.157040785E1
1.163811563E1,1.848662717E0,2.838633749E0,-6.392219421E0,7.234353083E0
1.164808162E1,1.933453776E0,1.434942389E0,4.105461087E0,4.759423694E0
1.165804663E1,4.281231606E0,1.749017977E0,6.800187843E0,8.223780313E0
1.166801263E1,4.363161330E0,3.750690048E0,5.311701915E0,7.830646836E0
1.167797763E1,3.940183690E0,5.534288458E0,4.439937025E0,8.115814009E0
1.168794363E1,3.967470891E0,6.858290455E0,3.294151729E0,8.580699788E0
1.169790863E1,4.027104012E0,7.970738436E0,2.459901406E0,9.262901968E0
1.170787463E1,4.341417289E0,8.650415275E0,1.654019433E0,9.819030950E0
1.171783962E1,4.382036142E0,8.978565111E0,1.173644867E0,1.005953848E1
1.172780462E1,4.206072958E0,9.137139845E0,8.446630454E-1,1.009414830E1
1.173777063E1,4.027819419E0,9.254131520E0,6.196142399E-1,1.011168637E1
1.174773563E1,3.835121796E0,9.337361957E0,5.142251945E-1,1.010736934E1
1.175770162E1,3.638844507E0,9.383700557E0,3.631962919E-1,1.007109413E1
1.176766663E1,3.445850138E0,9.430289417E0,2.038456321E-1,1.004220069E1
1.177763263E1,3.267162444E0,9.449831981E0,1.232949740E-1,9.999443812E0
1.178759763E1,3.050683610E0,9.456730526E0,1.638442451E-1,9.937971004E0
1.179756262E1,2.836587809E0,9.409175121E0,2.079713909E-1,9.829652026E0
1.180752863E1,2.556388942E0,9.302244750E0,2.713756738E-1,9.650933974E0
1.181749363E1,2.237806613E0,9.086539210E0,3.442461238E-1,9.364372838E0
1.182745962E1,2.208224526E0,8.761153938E0,-5.727692717E-1,9.053294347E0
1.183742463E1,1.351500721E0,7.566074275E0,-1.559797400E0,7.842512485E0
1.184739063E1,3.063426447E-1,5.336792318E0,-3.395601506E0,6.332875148E0
1.185735563E1,-4.937912223E-1,1.726798557E0,-4.591957031E0,4.930692893E0
1.186732163E1,-2.001893681E-1,-1.786972253E0,-4.069181453E0,4.448773237E0
1.187728663E1,-5.407928959E-1,-7.115449830E0,-3.234753374E0,7.834903486E0
1.188725163E1,-2.665896766E0,-1.984358115E1,1.037705362E-2,2.002185871E1
1.189721762E1,-2.900210485E0,-2.158725127E1,2.855600030E0,2.196759180E1
1.190718263E1,-5.284839807E0,-2.223165653E1,2.262424561E0,2.296289722E1
1.191714863E1,-4.646273864E0,-1.866059821E1,5.385134758E0,1.997011424E1
1.192711363E1,-2.110475014E0,-1.135353746E1,6.833029314E0,1.341816706E1
1.193707963E1,-1.710494766E-1,-5.032914274E0,4.892884569E0,7.021381874E0
1.194704463E1,1.825602761E0,-1.653897226E0,1.065092551E0,2.683770411E0
1.195701063E1,2.310693618E0,-1.006972396E-1,-6.894942411E-1,2.413472030E0
1.196697563E1,1.193547692E0,4.352977234E-1,-1.684049563E0,2.109517275E0
1.197694062E1,1.787622464E-1,4.924583495E-1,-3.142922852E0,3.186288628E0
1.198690663E1,3.022630423E-2,8.350350201E-2,-4.020090569E0,4.021071331E0
1.199687163E1,8.832055521E-1,-1.883230287E-1,-3.373830568E0,3.492599363E0
1.200683762E1,1.565457797E0,2.421314460E-1,-2.257962989E0,2.758202787E0
1.201680263E1,1.486701942E0,8.434327912E-1,-1.730844684E0,2.432588099E0
1.202676863E1,6.569912504E-1,1.262736041E0,-9.976645061E-1,1.738238844E0
1.203673363E1,-1.464790379E-1,1.542835212E0,-4.007666990E-2,1.550291179E0
1.204669862E1,-3.841344403E-1,1.787816007E0,7.179047656E-1,1.964492961E0
1.205666463E1,-5.224741539E-1,1.985385237E0,1.318303593E0,2.439806989E0
1.206662963E1,-6.925136702E-1,2.163929967E0,1.718222446E0,2.848588503E0
1.207659562E1,-8.177351555E-1,2.399069313E0,1.944846784E0,3.194785339E0
1.208656063E1,-8.190662742E-1,2.596461373E0,1.798838593E0,3.263173533E0
1.209652663E1,-9.478592388E-1,2.651311179E0,1.631337207E0,3.254097292E0
1.210649163E1,-1.066324705E0,2.647058499E0,1.486916535E0,3.217901157E0
1.211645763E1,-1.033349186E0,2.575528341E0,1.325743883E0,3.075508676E0
1.212642263E1,-8.812951206E-1,2.358475018E0,1.306934267E0,2.836752136E0
1.213638763E1,-8.389674188E-1,2.116435958E0,1.015047694E0,2.492687167E0
1.214635362E1,-8.396933506E-1,1.681025383E0,6.802796870E-1,1.998427311E0
1.215631862E1,-9.126459906E-1,1.027016067E0,6.394035566E-1,1.515427865E0
1.216628463E1,-9.342590538E-1,2.157657659E-1,9.240202868E-1,1.331618690E0
1.217624963E1,-8.611396220E-1,-5.079441154E-1,8.365494490E-1,1.303604102E0
1.218621562E1,-9.282817376E-1,-1.159819198E0,6.151362960E-1,1.607880661E0
1.219618063E1,-1.044398085E0,-1.715501736E0,3.527930720E-1,2.039160739E0
1.220614563E1,-1.044893052E0,-2.060136627E0,1.733231664E-1,2.316463971E0
1.221611163E1,-9.642198944E-1,-2.157392780E0,1.913945711E-1,2.370800602E0
1.222607662E1,-8.537519574E-1,-2.131287886E0,3.253531122E-1,2.318865047E0
1.223604263E1,-7.315460274E-1,-1.949524848E0,4.102383844E-1,2.122287035E0
1.224600763E1,-4.944490340E-1,-1.505104884E0,4.736969733E-1,1.653544490E0
1.225597362E1,-4.360157615E-1,-9.407240278E-1,5.160694063E-1,1.158187840E0
1.226593863E1,-3.366712752E-1,-2.067785954E-1,4.944522865E-1,6.329202152E-1
1.227590463E1,-3.720562854E-1,4.425266361E-1,4.172572359E-1,7.129932006E-1
1.228586963E1,-3.999621221E-1,9.084631848E-1,2.893564832E-1,1.033925641E0
1.229583462E1,-4.576875892E-1,1.153175007E0,1.431316531E-1,1.248910404E0
1.230580063E1,-6.547750095E-1,1.201258416E0,-4.652402915E-2,1.368910727E0
1.231576563E1,-8.772112790E-1,1.120207821E0,-8.891276121E-2,1.425577311E0
1.232573162E1,-1.080041834E0,9.372443497E-1,1.492278870E-1,1.437771295E0
1.233569662E1,-1.186341876E0,7.941588897E-1,5.156800183E-1,1.517900283E0
1.234566263E1,-1.265984754E0,7.180263877E-1,7.769148660E-1,1.649810898E0
1.235562763E1,-1.377239726E0,7.335425591E-1,9.895546373E-1,1.847726259E0
1.236559362E1,-1.537461914E0,8.020660794E-1,1.191503506E0,2.103991382E0
1.237555863E1,-1.614862384E0,7.700326931E-1,1.263162449E0,2.190048000E0
1.238552363E1,-1.668187822E0,6.947304958E-1,1.161927193E0,2.148389134E0
1.239548963E1,-1.690291174E0,6.293317276E-1,9.430377710E-1,2.035304133E0
1.240545462E1,-1.542633776E0,6.132010138E-1,7.280987283E-1,1.812694736E0
1.241542063E1,-1.248388143E0,6.810193598E-1,6.046523845E-1,1.545271766E0
1.242538563E1,-1.212573070E0,7.529518068E-1,5.745309647E-1,1.538621365E0
1.243535162E1,-1.104259540E0,9.400901896E-1,4.886692806E-1,1.530345177E0
1.244531663E1,-8.735143769E-1,1.212359939E0,4.130776827E-1,1.550315181E0
1.245528263E1,-6.884798223E-1,1.507609831E0,3.980305310E-1,1.704499977E0
1.246524763E1,-5.929866046E-1,1.740209146E0,4.379283857E-1,1.889905357E0
1.247521262E1,-6.135252419E-1,1.828150100E0,5.091755390E-1,1.994443717E0
1.248517863E1,-5.749868283E-1,1.866860422E0,5.008140206E-1,2.016579374E0
1.249514363E1,-5.768231463E-1,1.840747926E0,4.544935477E-1,1.981828008E0
1.250511042E1,-5.208112058E-1,1.807080828E0,4.834396406E-1,1.941777360E0
1.251507542E1,-4.194918224E-1,1.813367169E0,5.221867633E-1,1.933119990E0
1.252504142E1,-3.400328395E-1,1.854132203E0,5.711677194E-1,1.969685539E0
1.253500642E1,-1.406568190E-1,2.013365918E0,6.224431229E-1,2.112075307E0
1.254497142E1,5.398471087E-2,2.236055957E0,5.907851279E-1,2.313414718E0
1.255493742E1,2.994528705E-1,2.515265182E0,5.225972378E-1,2.586375617E0
1.256490242E1,5.818289477E-1,2.805384142E0,3.877505046E-1,2.891203134E0
1.257486842E1,7.867984146E-1,3.026068586E0,2.872058773E-1,3.139845545E0
1.258483342E1,9.488727075E-1,3.185616297E0,1.728366780E-1,3.328420515E0
1.259479942E1,1.098880979E0,3.278903945E0,6.667172531E-2,3.458785279E0
1.260476442E1,1.161613124E0,3.204039704E0,4.052120447E-4,3.408110274E0
1.261473042E1,1.272691510E0,2.923660451E0,-1.568264351E-1,3.192511338E0
1.262469542E1,1.431301328E0,2.449148376E0,-3.010006650E-1,2.852639595E0
1.263466042E1,1.599945845E0,1.722503777E0,-4.238746760E-1,2.388831453E0
1.264462642E1,1.720106126E0,9.332857847E-1,-6.781483769E-1,2.071152496E0
1.265459142E1,1.507981714E0,5.907734334E-2,-1.440922337E0,2.086565638E0
1.266455742E1,9.950975785E-1,-1.162075639E0,-3.468547275E0,3.790970744E0
1.267452242E1,9.324142572E-1,-2.057697753E0,-4.764363939E0,5.272824682E0
1.268448842E1,1.477658638E0,-2.267036260E0,-4.183402718E0,4.982347514E0
1.269445342E1,2.170667422E0,-1.468925237E0,-1.946646849E0,3.264808166E0
1.270441942E1,2.197729505E0,-3.986555618E-1,1.832026402E-1,2.241094474E0
1.271438442E1,1.923069998E0,3.350074500E-1,1.820472121E0,2.669184698E0
1.272434942E1,1.382936376E0,2.876040727E-1,2.565702095E0,2.928831911E0
1.273431542E1,4.123231360E-1,-8.315717143E-1,2.577729818E0,2.739746867E0
1.274428042E1,-1.034554297E0,-2.596291219E0,2.070403168E0,3.478160429E0
1.275424642E1,-2.641949495E0,-4.382981637E0,1.575784857E0,5.354766389E0
1.276421142E1,-3.976931393E0,-6.011797231E0,1.338309549E0,7.331354698E0
1.277417742E1,-4.617914575E0,-7.092298365E0,1.059566859E0,8.529273887E0
1.278414242E1,-4.399618427E0,-7.599670622E0,6.769286478E-1,8.807375788E0
1.279410842E1,-3.801519309E0,-7.464967731E0,1.649722461E-1,8.378813050E0
1.280407342E1,-3.170937155E0,-6.550178443E0,-4.574789898E-1,7.291705363E0
1.281403842E1,-2.408109693E0,-5.025617534E0,-6.941031627E-1,5.615835031E0
1.282400442E1,-1.459263006E0,-3.318635191E0,-5.895829403E-1,3.672927455E0
1.283396942E1,-7.394929782E-1,-2.153780955E0,-2.567032921E-1,2.291619263E0
1.284393542E1,-3.269444320E-1,-1.639815377E0,2.216048320E-1,1.686711544E0
1.285390042E1,-4.577016225E-1,-1.762045573E0,1.234674760E-1,1.824702604E0
1.286386642E1,-6.469862258E-1,-1.718062232E0,-5.738809188E-2,1.836742334E0
1.287383142E1,-3.312383348E-1,-1.317759510E0,-2.395592558E-1,1.379709244E0
1.288379742E1,-2.559086555E-1,-7.951195872E-1,-5.089322583E-1,9.781188279E-1
1.289376242E1,-3.988733706E-1,-1.923505908E-1,-6.441930109E-1,7.817182043E-1
1.290372742E1,-3.682593960E-1,4.527013761E-1,-7.101939692E-1,9.192001918E-1
1.291369342E1,-2.312611797E-1,1.077337205E0,-6.902849308E-1,1.300242467E0
1.292365842E1,7.071037889E-2,1.580491281E0,-6.709913850E-1,1.718482495E0
1.293362442E1,3.135645407E-1,1.992703028E0,-6.328552598E-1,2.114165050E0
1.294358942E1,6.398730880E-1,2.379621474E0,-5.399908040E-1,2.522622840E0
1.295355542E1,8.080194220E-1,2.742714854E0,-4.608080290E-1,2.896156798E0
1.296352042E1,8.680217949E-1,2.979244083E0,-5.305273048E-1,3.148144908E0
1.297348542E1,8.943427438E-1,3.113016098E0,-6.020819485E-1,3.294422687E0
1.298345142E1,9.179114082E-1,3.137824665E0,-5.108273774E-1,3.308995254E0
1.299341642E1,7.523632845E-1,3.009757778E0,-5.382660947E-1,3.148717641E0
1.300338242E1,6.031432182E-1,2.777994615E0,-6.527504110E-1,2.916696577E0
1.301334742E1,4.110314861E-1,2.594822983E0,-6.066842920E-1,2.696315825E0
1.302331342E1,-1.063605604E-1,2.375166480E0,-8.763491070E-1,2.533913206E0
1.303327842E1,-6.839833134E-1,2.183378976E0,-1.672070373E0,2.833865956E0
1.304324442E1,-7.411211354E-1,2.109101211E0,-2.136232876E0,3.092096272E0
1.305320942E1,-3.741352630E-1,1.928081354E0,-2.292348272E0,3.018664523E0
1.306317442E1,7.011808518E-1,1.627775960E0,-2.318896970E0,2.918662762E0
1.307314042E1,1.660401084E0,1.334363848E0,-1.970307022E0,2.901649256E0
1.308310542E1,1.904887497E0,9.997206795E-1,-1.538285494E0,2.644685250E0
1.309307142E1,1.809549815E0,7.487096518E-1,-1.105956402E0,2.249038959E0
1.310303642E1,1.965392730E0,7.874848777E-1,-4.889441729E-3,2.117291884E0
1.311300242E1,1.361350795E0,4.530218035E-1,2.156913893E0,2.590517764E0
1.312296742E1,5.792041326E-1,-8.956115896E-1,3.055208770E0,3.236031238E0
1.313293342E1,1.100144854E-1,-3.205933617E0,2.001976712E0,3.781272841E0
1.314289842E1,-6.499235746E-1,-6.368254023E0,5.348717129E-1,6.423639755E0
1.315286342E1,-2.822546013E0,-1.037521408E1,-4.197482228E-1,1.076048428E1
1.316282942E1,-5.784425912E0,-1.549185639E1,-9.393225233E-1,1.656319789E1
1.317279442E1,-8.790654311E0,-2.187153821E1,-9.505069312E-1,2.359116891E1
1.318276042E1,-1.180537754E1,-2.794745952E1,-7.186660000E-1,3.034705774E1
1.319272542E1,-1.169598433E1,-3.060001850E1,-1.027845714E0,3.277519867E1
1.320269142E1,-1.008116346E1,-2.883973527E1,-6.476621640E-1,3.055780839E1
1.321265642E1,-8.162820640E0,-2.423223225E1,-5.902775896E-1,2.557696519E1
1.322262242E1,-6.753721189E0,-2.052256685E1,-7.740146470E-1,2.161914889E1
1.323258742E1,-6.609058151E0,-1.896697594E1,-7.127194548E-1,2.009810426E1
1.324255242E1,-6.952654576E0,-1.825789813E1,-2.680539072E-1,1.953873340E1
1.325251842E1,-6.960805594E0,-1.674009660E1,3.500798178E-1,1.813301422E1
1.326248342E1,-6.234469144E0,-1.349782020E1,1.070105953E0,1.490653824E1
1.327244942E1,-4.934858807E0,-8.774960968E0,1.395501165E0,1.016367035E1
1.328241442E1,-3.175845600E0,-3.564457984E0,9.559647954E-1,4.868801155E0
1.329238042E1,-1.499189841E0,1.119998490E0,7.686562586E-1,2.023066791E0
1.330234542E1,1.011907446E-1,5.197354935E0,2.945346605E0,5.974763971E0
1.331231042E1,1.360047012E0,8.139966797E0,3.385581717E0,8.920255091E0
1.332227642E1,1.794618073E0,9.299838620E0,1.543208849E-1,9.472669493E0
1.333224142E1,1.874663824E0,9.966667957E0,-1.156187493E-1,1.014210049E1
1.334220742E1,1.643395335E0,1.019175068E1,-5.636201334E-1,1.033877158E1
1.335217242E1,1.512347830E0,1.023411025E1,-8.440075725E-1,1.037962221E1
1.336213842E1,1.502022817E0,1.035908863E1,-8.065082091E-1,1.049844014E1
1.337210342E1,1.344830364E0,1.041826012E1,-9.408538359E-1,1.054674919E1
1.338206942E1,8.242651798E-1,1.030199408E1,-1.057936143E0,1.038892314E1
1.339203442E1,3.219835080E-1,1.017901427E1,-6.571334839E-1,1.020528438E1
1.340199942E1,1.075736018E-2,1.068185611E1,-9.927752837E-1,1.072789674E1
1.341196542E1,-4.523745898E-1,1.127056430E1,-1.611957926E0,1.139423849E1
1.342193042E1,-1.031597507E0,1.190710623E1,-2.398476259E0,1.218999838E1
1.343189642E1,-1.562045216E0,1.236771714E1,-2.810922625E0,1.277895530E1
1.344186142E1,-2.533208533E0,1.312798147E1,-3.065627924E0,1.371711039E1
1.345182742E1,-3.093723795E0,1.329472301E1,-3.419762785E0,1.407180033E1
1.346179242E1,-2.268918186E0,1.231458934E1,-3.522794818E0,1.300796616E1
1.347175842E1,-2.048035814E0,1.240003587E1,-3.936674775E0,1.317014611E1
1.348172342E1,-1.822387084E0,1.249101387E1,-4.962974558E0,1.356383569E1
1.349168942E1,-1.882273244E0,1.258463364E1,-5.705127143E0,1.394505045E1
1.350165642E1,-2.711608252E0,1.206538568E1,-4.765705290E0,1.325285999E1
1.351162142E1,-3.632699668E0,1.152565259E1,-3.416146283E0,1.255815393E1
1.352158742E1,-4.179289786E0,1.171340318E1,-2.887991266E0,1.276756714E1
1.353155242E1,-4.417551545E0,1.164535212E1,-2.557470970E0,1.271493788E1
1.354151842E1,-4.664535595E0,1.137134223E1,-2.334721289E0,1.251064507E1
1.355148342E1,-4.803920352E0,1.100053521E1,-2.147848516E0,1.219437078E1
1.356144942E1,-4.885065672E0,1.067060489E1,-2.047775028E0,1.191297855E1
1.357141442E1,-4.719991758E0,1.033179851E1,-2.055751215E0,1.154341785E1
1.358137942E1,-4.961000538E0,1.036031538E1,-2.060957576E0,1.167027023E1
1.359134542E1,-5.590631644E0,1.068641693E1,-2.039975427E0,1.223176883E1
1.360131042E1,-5.773767607E0,1.079485121E1,-1.930344812E0,1.239320121E1
1.361127642E1,-5.684285912E0,1.074103812E1,-1.800192516E0,1.228501930E1
1.362124142E1,-5.309333208E0,1.068841551E1,-1.732185158E0,1.205950707E1
1.363120742E1,-4.884843771E0,1.069876976E1,-1.891833295E0,1.191236359E1
1.364117242E1,-4.551602764E0,1.065985420E1,-2.114089471E0,1.178214555E1
1.365113842E1,-4.222248987E0,1.052710253E1,-2.325204361E0,1.157816261E1
1.366110342E1,-4.076293129E0,1.041038976E1,-2.591250042E0,1.147636517E1
1.367106942E1,-3.913384438E0,1.024653909E1,-2.913255916E0,1.134870922E1
1.368103442E1,-3.699257939E0,1.005213788E1,-3.097269546E0,1.115002529E1
1.369099942E1,-3.487789000E0,9.880571215E0,-3.190463347E0,1.095305510E1
1.370096542E1,-3.346043137E0,9.590875593E0,-3.243353166E0,1.066303142E1
1.371093042E1,-3.556356959E0,9.313579577E0,-3.281106007E0,1.049552743E1
1.372089642E1,-3.741412564E0,9.157754788E0,-3.148221014E0,1.038142265E1
1.373086142E1,-3.503254008E0,8.897988725E0,-3.118499032E0,1.005843070E1
1.374082742E1,-3.292496967E0,8.681954572E0,-3.182679241E0,9.815616059E0
1.375079242E1,-3.029031370E0,8.437365541E0,-3.098648612E0,9.485029865E0
1.376075842E1,-2.872627707E0,8.153496085E0,-3.097159619E0,9.182803823E0
1.377072342E1,-2.899686282E0,7.796597244E0,-3.167106059E0,8.900880289E0
1.378068842E1,-3.922576261E0,-6.061130775E0,2.684841921E1,2.780218561E1
1.379065442E1,-4.420762543E0,-2.761129140E1,5.059034839E1,5.780406478E1
1.380061942E1,-4.242127182E0,-3.107983634E1,1.497792473E1,3.476046747E1
1.381058542E1,-1.918568636E1,-4.824795380E1,-7.775108142E0,5.250150392E1
1.382055042E1,-1.717017218E1,-5.466879066E1,-1.833353537E1,6.016319477E1
1.383051642E1,-9.793198611E0,-5.811253873E1,-3.451418442E-1,5.893295359E1
1.384048142E1,-9.254104623E0,-4.438338397E1,3.041438811E1,5.459448900E1
1.385044742E1,-1.249784751E0,-2.691784203E1,2.759813049E1,3.857186783E1
1.386041242E1,3.194432437E0,-1.690842274E1,1.773240301E1,2.470905248E1
1.387037742E1,4.181063247E0,-9.152296997E0,1.247051002E1,1.602371525E1
1.388034342E1,3.886048121E0,-4.203686124E0,5.392883488E0,7.864829263E0
1.389030842E1,2.463876635E0,-1.275091792E0,3.626420490E-1,2.797866403E0
1.390027442E1,1.465444974E0,1.072160665E0,-3.970305475E-1,1.858679832E0
1.391023942E1,7.096661849E-1,1.904623495E0,8.333264637E-1,2.196736158E0
1.392020542E1,-4.857980785E-1,2.004726657E0,7.367433250E-1,2.190369711E0
1.393017042E1,-7.716424316E-1,3.408629102E0,1.014572607E0,3.639167758E0
1.394013642E1,-1.103640904E0,4.579560934E0,1.322018037E0,4.892661166E0
1.395010142E1,-5.691308418E-1,5.891531700E0,1.118068909E0,6.023631278E0
1.396006642E1,5.626633827E-1,7.085202768E0,8.197264248E-1,7.154623663E0
1.397003242E1,1.554492075E0,7.900246743E0,2.121580338E-1,8.054523899E0
1.397999742E1,2.001219351E0,8.087809049E0,-2.317970953E-1,8.334942351E0
1.398996342E1,1.966202277E0,7.825683634E0,-6.021193342E-1,8.091342498E0
1.399992842E1,1.670950485E0,7.420107892E0,-8.104656047E-1,7.648982360E0
1.400989442E1,1.538506080E0,7.042972423E0,-5.660350335E-1,7.231241744E0
1.401985942E1,1.439912084E0,6.759502332E0,1.227745718E-1,6.912256663E0
1.402982542E1,1.107666128E0,6.431156614E0,7.195045638E-1,6.565393093E0
1.403979042E1,4.944237448E-1,5.883332149E0,1.036643507E0,5.994387523E0
1.404975542E1,-2.296992423E-1,5.244012208E0,8.020461988E-1,5.309962701E0
1.405972142E1,-8.049604511E-1,4.361913534E0,2.367771506E-1,4.441881856E0
1.406968642E1,-9.791213773E-1,3.534036675E0,-3.427187580E-1,3.683144043E0
1.407965242E1,-5.890668505E-1,2.873570278E0,-7.124680245E-1,3.018611698E0
1.408961742E1,-4.633311756E-2,2.011111232E0,-8.656674866E-1,2.189998937E0
1.409958342E1,5.047942203E-1,6.461167449E-1,-8.085980040E-1,1.151570573E0
1.410954842E1,1.163260577E0,-1.197357153E0,-4.988394159E-1,1.742320317E0
1.411951442E1,1.938282699E0,-3.415199034E0,-3.912430465E-2,3.927092432E0
1.412947942E1,2.520801326E0,-5.853913053E0,8.738429904E-1,6.433221505E0
1.413944442E1,2.991522359E0,-8.824666979E0,1.982993141E0,9.526605645E0
1.414941042E1,3.385381742E0,-1.084158450E1,2.282227911E0,1.158487497E1
1.415937542E1,3.766317902E0,-1.067596562E1,1.715656103E0,1.145010342E1
1.416934142E1,4.143053421E0,-7.275097529E0,7.001929647E-1,8.401321675E0
1.417930642E1,3.766362633E0,-2.434330362E0,-1.006839080E0,4.596213303E0
1.418927242E1,3.338048531E0,9.045753711E-1,-3.710425537E0,5.072285704E0
1.419923742E1,2.631337091E0,2.472295749E0,-5.069463465E0,6.223796348E0
1.420920342E1,1.789503074E0,2.610898148E0,-3.843418118E0,4.979053446E0
1.421916842E1,1.330129002E0,1.952115165E0,-1.243855966E0,2.669676843E0
1.422913342E1,1.126142671E0,1.129851049E0,4.808983676E-1,1.666140435E0
1.423909942E1,8.388498167E-1,5.587868249E-1,1.311663787E0,1.654198785E0
1.424906442E1,7.965956437E-1,5.848502040E-1,1.622373133E0,1.899660223E0
1.425903042E1,6.991403197E-1,8.472679800E-1,1.434049519E0,1.806421391E0
1.426899542E1,5.378681551E-1,1.058816149E0,9.782017565E-1,1.538594315E0
1.427896142E1,4.008185200E-1,1.054753504E0,4.716445641E-1,1.222950953E0
1.428892642E1,4.105396256E-1,8.929125148E-1,-6.339202205E-2,9.848117037E-1
1.429889242E1,4.620808947E-1,7.120411777E-1,-5.668723547E-1,1.020718207E0
1.430885742E1,3.634871544E-1,5.572267878E-1,-9.018780506E-1,1.120717905E0
1.431882242E1,9.841885379E-2,3.504148632E-1,-9.906177342E-1,1.055367397E0
1.432878842E1,-1.873035118E-1,2.135631198E-1,-8.548740381E-1,9.008337431E-1
1.433875342E1,-2.981308333E-1,2.051793820E-1,-6.060568857E-1,7.058934206E-1
1.434871942E1,-2.547648122E-1,2.446989584E-1,-3.302010387E-1,4.835446368E-1
1.435868442E1,-1.941094516E-1,2.004513234E-1,-1.147638863E-1,3.017117198E-1
1.436865042E1,-2.319123403E-1,4.473061502E-2,4.097671171E-2,2.397149399E-1
1.437861542E1,-3.317134576E-1,-1.503623199E-1,1.718695486E-1,4.027179993E-1
1.438858142E1,-4.231923790E-1,-3.064362001E-1,2.747665290E-1,5.903317541E-1
1.439854642E1,-4.451724281E-1,-4.567394632E-1,2.897839330E-1,7.005456129E-1
1.440851242E1,-4.377773448E-1,-5.285035104E-1,2.145875520E-1,7.190360085E-1
1.441847742E1,-3.165612022E-1,-5.598761612E-1,-2.300937831E-2,6.435850699E-1
1.442844242E1,-3.380762149E-1,-4.934652400E-1,-2.440200967E-1,6.460257563E-1
1.443840842E1,-4.970296296E-1,-3.422275919E-1,-1.745154136E-1,6.281829406E-1
1.444837342E1,-4.458260006E-1,-1.217238271E-1,-1.083723406E-2,4.622715204E-1
1.445833942E1,-4.209314800E-1,6.459477603E-2,-2.980676651E-2,4.269007370E-1
1.446830442E1,-7.889229273E-1,1.016836649E-1,-7.339425087E-2,7.988276842E-1
1.447827042E1,-1.073729034E0,1.236148167E-1,-1.470118745E-1,1.090773649E0
1.448823542E1,-1.311346576E0,1.160865265E-1,-3.827751088E-1,1.370993329E0
1.449820142E1,-1.362788040E0,1.163028735E-1,-4.318999064E-1,1.434313470E0
1.450816317E1,-1.061257873E0,2.233501893E-1,-3.782248056E-1,1.148567623E0
1.451812817E1,-5.986592077E-1,3.464235538E-1,-2.350440725E-1,7.305120407E-1
1.452809417E1,-6.004992534E-1,2.809218746E-1,-1.479626592E-1,6.792712282E-1
1.453805917E1,-5.799408817E-1,1.942614609E-1,-1.970511675E-3,6.116149315E-1
1.454802517E1,-2.201736894E-1,2.159236407E-1,3.083517480E-1,4.360966322E-1
1.455799017E1,2.318799613E-1,2.373069084E-1,5.947788127E-1,6.810614666E-1
1.456795617E1,5.819524701E-1,1.812671936E-1,7.879485619E-1,9.961874367E-1
1.457792117E1,7.705122379E-1,4.298580587E-2,8.685126686E-1,1.161830945E0
1.458788717E1,9.433141981E-1,-9.670768440E-2,9.013693428E-1,1.308304531E0
1.459785217E1,1.139553334E0,-1.873576534E-1,8.995836031E-1,1.463876822E0
1.460781717E1,1.331271256E0,-2.410666680E-1,8.309852386E-1,1.587744552E0
1.461778317E1,1.416578331E0,-3.061531949E-1,7.363539004E-1,1.625620194E0
1.462774817E1,1.556032086E0,-2.715487880E-1,6.207567859E-1,1.697148663E0
1.463771417E1,1.703331342E0,-2.220181936E-1,5.518894494E-1,1.804220525E0
1.464767917E1,1.624883342E0,-2.653817296E-1,5.207582885E-1,1.726807034E0
1.465764517E1,1.565164559E0,-2.782888734E-1,5.230702776E-1,1.673555291E0
1.466761017E1,1.626129676E0,-2.121457547E-1,5.166073501E-1,1.719356478E0
1.467757617E1,1.645126695E0,-1.898661089E-1,4.426336402E-1,1.714180715E0
1.468754117E1,1.496241382E0,-2.734695983E-1,3.630074269E-1,1.563744956E0
1.469750717E1,1.334675651E0,-3.360593641E-1,3.144626731E-1,1.411800893E0
1.470747217E1,1.232549790E0,-3.488869858E-1,3.056731385E-1,1.316942361E0
1.471743717E1,1.164285740E0,-3.306179452E-1,3.248134142E-1,1.253145348E0
1.472740317E1,1.102486883E0,-2.919573247E-1,4.003828659E-1,1.208727780E0
1.473736817E1,1.032062214E0,-2.682497889E-1,4.686788929E-1,1.164804819E0
1.474733417E1,9.460487947E-1,-2.361614388E-1,5.485910350E-1,1.118808594E0
1.475729917E1,8.573946997E-1,-1.010755545E-1,5.750064164E-1,1.037291819E0
1.476726517E1,7.914701206E-1,1.397548860E-1,5.500709653E-1,9.739273314E-1
1.477723017E1,7.436290792E-1,4.324442822E-1,4.882618028E-1,9.891369232E-1
1.478719617E1,7.389064293E-1,7.047789359E-1,4.236050463E-1,1.105503186E0
1.479716117E1,7.342102381E-1,8.169232696E-1,3.666280228E-1,1.157948362E0
1.480712617E1,7.195259061E-1,7.528816402E-1,3.241480011E-1,1.090697126E0
1.481709217E1,6.621923487E-1,5.526893485E-1,3.186340767E-1,9.195063335E-1
1.482705717E1,5.209835525E-1,2.964877474E-1,2.510601443E-1,6.498923314E-1
1.483702317E1,1.169792502E-1,-6.799727082E-3,-1.170022188E-1,1.655895542E-1
1.484698817E1,-7.280575054E-1,-4.151733613E-1,-1.049929624E0,1.343424306E0
1.485695417E1,-2.656740319E0,-1.032302535E0,-3.860535257E0,4.798713381E0
1.486691917E1,-2.757923462E0,-9.350452119E-1,-4.416441159E0,5.290123239E0
1.487688517E1,-8.851009271E-1,-9.770697355E-3,-1.853515322E0,2.054024870E0
1.488685017E1,5.369254012E-1,7.877345538E-1,2.237688500E-1,9.792278141E-1
1.489681517E1,8.159246383E-1,1.115178630E0,9.570921385E-1,1.680887193E0
1.490678117E1,3.895499852E-1,1.155450743E0,1.132647772E0,1.664243548E0
1.491674617E1,-3.406235544E-1,1.046984893E0,1.004875585E0,1.490629636E0
1.492671217E1,-1.092671674E0,7.675277460E-1,5.131586623E-1,1.430511112E0
1.493667717E1,-1.777221729E0,3.452915329E-1,-1.782687414E-1,1.819209460E0
1.494664317E1,-2.065285977E0,1.236832291E-1,-9.348247719E-1,2.270374653E0
1.495660817E1,-1.453038498E0,5.003333795E-1,-1.235710210E0,1.971961990E0
1.496657417E1,-5.675781137E-1,1.111762687E0,-8.287796688E-1,1.498344729E0
1.497653917E1,1.464522868E-2,1.650428073E0,-9.014067650E-2,1.652952706E0
1.498650417E1,1.716397530E-1,2.017042648E0,2.864153337E-1,2.044493823E0
1.499647017E1,1.174705625E-1,2.336825117E0,5.297992533E-1,2.399007756E0
1.500643517E1,-1.889214912E-1,2.488386117E0,4.831337947E-1,2.541884155E0
1.501640117E1,-3.506421737E-1,2.700737109E0,3.809192391E-1,2.749914604E0
1.502636617E1,-3.646670128E-1,3.026060985E0,2.628416991E-1,3.059266721E0
1.503633217E1,-4.989223002E-1,3.193283166E0,-9.484476149E-2,3.233415589E0
1.504629717E1,-6.047766379E-1,3.352574185E0,-7.076172475E-1,3.479400899E0
1.505626317E1,-4.966179125E-1,3.578618186E0,-1.349781201E0,3.856818218E0
1.506622817E1,-4.123631895E-2,4.040457006E0,-1.658399583E0,4.367754850E0
1.507619417E1,3.544321927E-1,4.626095999E0,-1.583951079E0,4.902579667E0
1.508615917E1,5.238751468E-1,4.920009803E0,-1.286996723E0,5.112465373E0
1.509612417E1,6.113060774E-1,4.875190895E0,-1.234986325E0,5.066199029E0
1.510609017E1,9.635306539E-1,4.897721971E0,-1.076430302E0,5.106346445E0
1.511605517E1,1.187567306E0,4.164401606E0,-8.147907901E-1,4.406409068E0
1.512602117E1,8.081802204E-1,2.599596650E0,-1.746157519E0,3.234211510E0
1.513598617E1,4.667773783E-1,1.351488004E0,-2.581309483E0,2.950857433E0
1.514595217E1,3.608395717E-1,5.401067251E-1,-2.121634718E0,2.218840766E0
1.515591717E1,4.408397144E-1,-5.073061842E-1,-1.858380790E0,1.976177719E0
1.516588317E1,1.045373108E0,-1.056964921E0,-1.221606726E0,1.924136890E0
1.517584817E1,1.819758761E0,-4.307959521E-1,-9.370777041E-1,2.091703068E0
1.518581317E1,2.212702762E0,5.643902117E-1,-5.235854173E-1,2.342804199E0
1.519577917E1,1.654690109E0,7.067880392E-1,4.438738346E-2,1.799866364E0
1.520574417E1,1.746566239E-1,-1.245018393E-1,-8.690131903E-3,2.146652339E-1
1.521571017E1,-1.280087653E0,-1.516128640E0,-2.941547084E-1,2.005940539E0
1.522567517E1,-2.246249993E0,-3.324732082E0,3.650803379E-1,4.028990705E0
1.523564117E1,-3.137032659E0,-6.102982221E0,1.773087455E0,7.087397619E0
1.524560617E1,-5.111596747E0,-1.108456671E1,2.464097368E0,1.245262287E1
1.525557217E1,-8.266953118E0,-1.812969442E1,1.424925524E0,1.997645480E1
1.526553717E1,-1.237642598E1,-2.591517552E1,-1.088457951E0,2.873946734E1
1.527550317E1,-1.453312119E1,-3.123047698E1,-3.986188413E0,3.467627434E1
1.528546817E1,-1.086692516E1,-3.168085994E1,-4.251841453E0,3.376159215E1
1.529543317E1,-8.498212252E0,-3.257408294E1,-9.794518912E-1,3.367862552E1
1.530539917E1,-7.602282574E0,-3.049253264E1,7.438699114E-1,3.143473540E1
1.531536417E1,-5.659034126E0,-2.545242921E1,3.450196373E-1,2.607623168E1
1.532533017E1,-3.820298812E0,-2.072851514E1,-6.328675389E-2,2.107771402E1
1.533529517E1,-2.019685589E0,-1.762262388E1,2.478096771E-1,1.773971285E1
1.534526117E1,-1.605650388E0,-1.715925660E1,3.382625949E-1,1.723753525E1
1.535522617E1,-2.433838611E0,-1.769923176E1,5.919124711E-1,1.787559050E1
1.536519117E1,-1.873691432E0,-1.569337366E1,9.549310076E-1,1.583365371E1
1.537515717E1,-1.893434701E0,-1.145639116E1,9.175895190E-1,1.164800257E1
1.538512217E1,-1.658450746E0,-5.863796602E0,1.188067682E0,6.208548484E0
1.539508817E1,-2.370089927E-1,-3.117711997E-1,8.235651219E-1,9.119397204E-1
1.540505317E1,1.212115964E0,4.250207157E0,2.977800004E-1,4.429690611E0
1.541501917E1,1.584329394E0,7.320205874E0,2.337564973E-1,7.493340761E0
1.542498417E1,1.749710141E0,9.256240026E0,5.870592821E-1,9.438437562E0
1.543495017E1,1.774045229E0,1.015974185E1,7.267691445E-1,1.033904175E1
1.544491517E1,1.741447879E0,1.024348918E1,5.986122108E-1,1.040769176E1
1.545488117E1,9.524402399E-1,1.006387441E1,3.165553916E-1,1.011379839E1
1.546484617E1,1.033455240E0,1.007569397E1,2.983167748E-1,1.013294783E1
1.547481117E1,9.982860652E-1,1.008933319E1,3.924721313E-1,1.014619404E1
1.548477717E1,9.707435598E-1,1.018956148E1,1.043358450E0,1.028873671E1
1.549474217E1,6.909094866E-1,1.008587514E1,4.476289165E-1,1.011941722E1
1.550470812E1,3.902077970E-1,9.983107989E0,-1.586115718E-1,9.991990036E0
1.551467312E1,2.532652390E-1,9.996769423E0,-2.239144456E-1,1.000248368E1
1.552463913E1,1.107260550E-1,9.960362320E0,-3.173640615E-1,9.966032197E0
1.553460413E1,-2.137493536E-2,9.950337853E0,-3.854513794E-1,9.957823711E0
1.554457012E1,-1.975308219E-1,9.950172962E0,-4.595525587E-1,9.962738025E0
1.555453513E1,-3.318778009E-1,9.987513281E0,-5.179223889E-1,1.000643833E1
1.556450113E1,-5.024700983E-1,1.000078295E1,-6.122461635E-1,1.003209755E1
1.557446613E1,-7.001043063E-1,9.989536418E0,-6.966647547E-1,1.003824316E1
1.558443112E1,-8.826942131E-1,9.942182157E0,-7.420140052E-1,1.000883209E1
1.559439713E1,-9.855925640E-1,9.956828263E0,-7.508041245E-1,1.003361991E1
1.560436213E1,-1.124145774E0,9.931160156E0,-7.063425545E-1,1.001950925E1
1.561432812E1,-1.071871959E0,1.027914550E1,1.237464375E0,1.040870116E1
1.562429313E1,-1.698980136E-1,1.162149781E1,8.042779056E0,1.413415621E1
1.563425913E1,-1.035629308E0,1.108266052E1,5.472630154E0,1.240353067E1
1.564422413E1,-1.844346449E0,9.596783620E0,-1.054626619E0,9.829145791E0
1.565419013E1,-1.956931517E0,9.557321931E0,-2.433712311E0,1.005459791E1
1.566415513E1,-2.234331175E0,9.628619955E0,-2.566133620E0,1.021213003E1
1.567412013E1,-2.533341265E0,9.671920341E0,-3.006996138E0,1.044058843E1
1.568408612E1,-2.873887490E0,9.743420679E0,-3.248890772E0,1.066530670E1
1.569405112E1,-3.190145550E0,9.909061189E0,-3.263834501E0,1.090958926E1
1.570401713E1,-3.737421254E0,1.012414751E1,-3.314892973E0,1.128960565E1
1.571398213E1,-4.633877766E0,1.053960972E1,-3.557410335E0,1.205036782E1
1.572394812E1,-5.752904742E0,1.095337040E1,-4.063339792E0,1.302240248E1
1.573391313E1,-7.493715566E0,1.128834569E1,-4.161852220E0,1.417404442E1
1.574387913E1,-8.076348506E0,1.117349117E1,-3.936546429E0,1.433773719E1
1.575384413E1,-9.681540180E0,1.077836908E1,-3.691800693E0,1.495108199E1
1.576381013E1,-1.088338741E1,1.029006342E1,-3.782263843E0,1.544794635E1
1.577377513E1,-1.057309439E1,1.027966941E1,-3.975160272E0,1.527297703E1
1.578374013E1,-9.242638818E0,1.065278024E1,-4.112183046E0,1.469075044E1
1.579370612E1,-7.982683128E0,1.099402959E1,-3.989874205E0,1.416019113E1
1.580367113E1,-7.154966483E0,1.123749713E1,-3.842010985E0,1.386491744E1
1.581363713E1,-6.125331448E0,1.123799999E1,-3.646370459E0,1.330820599E1
1.582360213E1,-5.116344686E0,1.099068148E1,-3.380710109E0,1.258575636E1
1.583356813E1,-4.500797769E0,1.064738443E1,-3.118919447E0,1.197295428E1
1.584353313E1,-4.124451382E0,1.025112097E1,-2.876555282E0,1.141801868E1
1.585349913E1,-3.782492177E0,9.788266484E0,-2.706822014E0,1.083717183E1
1.586346412E1,-3.541333123E0,9.338902699E0,-2.664413328E0,1.033708094E1
1.587342913E1,-3.395511459E0,9.002908823E0,-2.566211972E0,9.958278427E0
1.588339513E1,-3.347964824E0,8.823077706E0,-2.338751775E0,9.722413720E0
1.589336013E1,-3.379104464E0,8.733994791E0,-2.176682160E0,9.614518044E0
1.590332613E1,-3.447363982E0,8.667983819E0,-2.117274741E0,9.565621477E0
1.591329113E1,-3.540632627E0,8.575577347E0,-2.211182779E0,9.537606382E0
1.592325713E1,-3.433124550E0,8.153500178E0,-2.464301143E0,9.183609827E0
1.593322213E1,-2.978373433E0,-4.037212386E1,2.528589350E1,4.773002727E1
1.594318813E1,7.168010452E0,-5.401888902E1,6.354722396E0,5.486167370E1
1.595315313E1,2.192965252E1,-3.660769110E1,2.305692553E1,4.850417016E1
1.596311813E1,1.473805206E1,-3.497471814E1,1.804681248E1,4.202533198E1
1.597308412E1,1.209193438E1,-3.293242838E1,5.895387939E0,3.557408207E1
1.598304913E1,1.465054146E1,-2.397985239E1,1.050614611E1,3.000084652E1
1.599301513E1,1.180147862E1,-1.699744192E1,3.088530883E0,2.092192516E1
1.600298013E1,1.110285096E1,-3.583305431E1,1.887548573E1,4.199482161E1
1.601294613E1,-2.944833219E-1,-4.092516755E1,1.272855349E1,4.285991290E1
1.602291113E1,-9.878537554E-1,-2.969597815E1,5.713605021E0,3.025677206E1
1.603287713E1,5.260381488E0,-1.443602817E1,4.317600995E0,1.595970555E1
1.604284212E1,5.625823696E0,-4.482814073E0,2.408485669E0,7.585928914E0
1.605280813E1,4.257083482E0,1.669956020E0,2.110943084E0,5.036625218E0
1.606277313E1,5.212509749E0,6.893749141E0,3.519697548E0,9.331790071E0
1.607273813E1,5.176582702E0,1.164068721E1,8.568467717E0,1.535321615E1
1.608270413E1,2.316456342E-1,1.137161705E1,8.644085079E0,1.428592108E1
1.609266913E1,-5.106208538E0,8.884590999E0,4.939369349E0,1.137570624E1
1.610263513E1,-6.809668518E0,7.486403039E0,3.345987296E0,1.065896087E1
1.611260012E1,-8.091401578E0,6.800353319E0,2.265639945E0,1.080965814E1
1.612256613E1,-9.073653701E0,6.522339265E0,1.386390619E0,1.126029218E1
1.613253113E1,-9.216245071E0,6.287114550E0,6.201206088E-2,1.115664950E1
1.614249712E1,-8.791272946E0,5.719624144E0,-1.458640716E0,1.058906101E1
1.615246212E1,-8.175809060E0,5.214552766E0,-2.541739036E0,1.002476193E1
1.616242813E1,-7.538658435E0,4.850063655E0,-2.812790226E0,9.395013428E0
1.617239313E1,-7.221267477E0,4.353859579E0,-2.745195243E0,8.867857358E0
1.618235813E1,-7.009481910E0,3.779278255E0,-2.493752106E0,8.344733690E0
1.619232413E1,-6.831596746E0,3.263853212E0,-2.297765571E0,7.912217042E0
1.620228913E1,-6.647296017E0,2.915173802E0,-2.098956292E0,7.555818960E0
1.621225513E1,-6.239310054E0,2.827382537E0,-1.896644969E0,7.107766463E0
1.622222012E1,-5.411993358E0,2.624960117E0,-1.986589179E0,6.334557940E0
1.623218613E1,-3.725498489E0,1.925449523E0,-2.130649370E0,4.703866664E0
1.624215113E1,1.046718260E0,3.791229379E-1,-2.093821267E0,2.371379517E0
1.625211712E1,9.211936258E0,-2.428919349E0,-4.065576645E0,1.035800812E1
1.626208213E1,1.330634611E1,-4.669508652E0,-4.476593805E0,1.479537258E1
1.627204713E1,1.450621230E1,-6.259468330E0,-2.888800521E0,1.606101826E1
1.628201313E1,1.387094857E1,-6.802944805E0,-1.864332086E0,1.556145901E1
1.629197812E1,1.125617314E1,-6.041461326E0,-1.259660990E0,1.283695581E1
1.630194413E1,7.796258106E0,-4.564254677E0,5.306021491E-1,9.049618768E0
1.631190913E1,3.528501116E0,-2.528230214E0,2.240708002E0,4.884981114E0
1.632187512E1,9.833905756E-2,-4.863462549E-1,2.404069852E0,2.454741351E0
1.633184012E1,-1.636726293E0,8.195708889E-1,1.592552333E0,2.426271282E0
1.634180613E1,-2.451201918E0,1.419583508E0,9.174221425E-1,2.977460590E0
1.635177113E1,-2.593927190E0,1.551645212E0,6.771603437E-1,3.097516305E0
1.636173713E1,-2.379336129E0,1.360216143E0,6.828926615E-1,2.824494779E0
1.637170213E1,-2.213807886E0,9.940512192E-1,4.909790039E-1,2.475912673E0
1.638166713E1,-2.034036410E0,5.944022155E-1,1.491333814E-1,2.124349048E0
1.639163313E1,-2.048060957E0,2.979963291E-1,-9.700764656E-2,2.071899124E0
1.640159812E1,-2.079384491E0,4.676427662E-2,-5.222744715E-1,2.144480679E0
1.641156413E1,-1.655088889E0,-9.242518365E-2,-5.895409135E-1,1.759380611E0
