"Time (s)","Linear Acceleration x (m/s^2)","Linear Acceleration y (m/s^2)","Linear Acceleration z (m/s^2)","Absolute acceleration (m/s^2)"
5.230166717E-3,2.991689882E-1,1.052756095E-1,-3.721688443E-1,4.889730935E-1
1.523416664E-2,6.923804998E-2,2.999191859E-1,-9.379197031E-1,9.871366649E-1
2.523816668E-2,-9.936056614E-2,4.728289542E-1,-1.191016433E0,1.285285916E0
3.524316673E-2,-1.588352278E-2,5.462553647E-1,-1.177282493E0,1.297937316E0
4.524716665E-2,2.822376443E-1,5.375798509E-1,-1.077693300E0,1.236961209E0
5.525116669E-2,5.343245597E-1,5.747108397E-1,-8.481397998E-1,1.155481027E0
6.525516673E-2,7.688110636E-1,5.683373746E-1,-5.694872296E-1,1.112831311E0
7.525916665E-2,9.929193445E-1,5.350374815E-1,-1.704931140E-1,1.140711109E0
8.526316669E-2,1.179665891E0,4.982315978E-1,2.128000581E-1,1.298125650E0
9.526716673E-2,1.271962801E0,4.434811941E-1,4.602360982E-1,1.423510521E0
1.052711667E-1,1.114942988E0,3.846067491E-1,5.858483237E-1,1.316904885E0
1.152751667E-1,8.037850146E-1,3.420875511E-1,6.280728221E-1,1.075904137E0
1.252791667E-1,4.912570390E-1,2.651820472E-1,5.470163798E-1,7.815893528E-1
1.352831667E-1,2.595795375E-1,1.530230954E-1,2.911521631E-1,4.190073820E-1
1.452871667E-1,1.420814931E-1,1.077875733E-2,-6.630917966E-2,1.571630988E-1
1.552911667E-1,3.772996299E-2,-9.229479074E-2,-3.779932559E-1,3.909229847E-1
1.652951667E-1,-1.339893852E-1,-5.267288804E-2,-5.675155485E-1,5.854925160E-1
1.752991667E-1,-2.197016729E-1,5.903202742E-2,-6.313998878E-1,6.711329404E-1
1.853031666E-1,-1.613192712E-1,1.757903990E-1,-5.028780878E-1,5.566080693E-1
1.953071667E-1,-2.864360914E-2,3.261714301E-1,-1.505090851E-1,3.603626546E-1
2.053111667E-1,1.249549254E-1,3.527981883E-1,1.243995130E-1,3.944052914E-1
2.153151666E-1,2.491418921E-1,2.723302683E-1,1.985457158E-1,4.191131813E-1
2.253191667E-1,2.639024571E-1,2.379161882E-1,2.369531518E-1,4.270777630E-1
2.353231667E-1,1.572092633E-1,2.263404554E-1,2.724597842E-1,3.875294675E-1
2.453271666E-1,-2.178774878E-2,2.506163406E-1,4.282600147E-1,4.966788664E-1
2.553311667E-1,-1.696056894E-1,2.389567003E-1,6.029198545E-1,6.703571775E-1
2.653351667E-1,-2.266654144E-1,2.112487918E-1,6.717304730E-1,7.397466394E-1
2.753391666E-1,-1.596969612E-1,6.844312102E-2,5.327094126E-1,5.603274922E-1
2.853431667E-1,-1.518978353E-1,-7.233151942E-2,3.280001467E-1,3.686311128E-1
2.953471667E-1,-2.643384767E-1,-1.375738746E-1,1.102065665E-1,3.177214008E-1
3.053511666E-1,-3.654936264E-1,-1.822457251E-1,-5.591633856E-2,4.122204898E-1
3.153551667E-1,-4.069011591E-1,-1.157570359E-1,-5.133036733E-2,4.261490951E-1
3.253591667E-1,-3.894793801E-1,-4.856653467E-2,-1.152772719E-1,4.090742539E-1
3.353641666E-1,-3.392345484E-1,-9.786484838E-2,-3.227458388E-1,4.783539315E-1
3.453681667E-1,-1.686121378E-1,-1.593078290E-1,-6.377464557E-1,6.786232969E-1
3.553721667E-1,-2.387578949E-2,-1.944307378E-1,-8.423779535E-1,8.648548906E-1
3.653761667E-1,5.086313825E-2,-1.634413719E-1,-9.027621496E-1,9.188469076E-1
3.753801667E-1,1.154679642E-1,-5.826794252E-2,-8.062918621E-1,8.165993943E-1
3.853841667E-1,1.512942565E-1,5.750400379E-2,-5.414398903E-1,5.651139861E-1
3.953881667E-1,1.078507415E-1,1.369010063E-1,-1.889042419E-1,2.570184440E-1
4.053921667E-1,1.248751292E-1,1.357647461E-1,1.273658055E-1,2.241604617E-1
4.153961667E-1,2.428205038E-1,-2.529271603E-2,1.397022611E-1,2.812796479E-1
4.254001667E-1,3.946913689E-1,-3.089183432E-1,-4.910842538E-2,5.036104217E-1
4.354041667E-1,5.563612537E-1,-5.830318661E-1,-1.013731778E-1,8.122441275E-1
4.454081667E-1,7.579847977E-1,-7.672171126E-1,-1.023941016E-1,1.083350176E0
4.554121667E-1,8.673185941E-1,-8.999142632E-1,-1.835224646E-1,1.263237001E0
4.654161667E-1,8.397793778E-1,-1.011163096E0,-3.935714078E-1,1.372070939E0
4.754201667E-1,6.646136807E-1,-9.382183497E-1,-5.700661039E-1,1.283331749E0
4.854241667E-1,4.939206650E-1,-6.652299772E-1,-6.364852113E-1,1.044797574E0
4.954281667E-1,3.070153669E-1,-2.782784946E-1,-6.753978467E-1,7.923759255E-1
5.054321666E-1,4.386318058E-2,1.275438532E-2,-7.882298130E-1,7.895523358E-1
5.154361667E-1,-1.086376580E-1,2.763395579E-1,-7.343828040E-1,7.921387472E-1
5.254401667E-1,-1.578109052E-1,5.373781219E-1,-5.833047849E-1,8.086556744E-1
5.354441666E-1,-2.005879472E-1,6.703929225E-1,-3.668812072E-1,7.901038003E-1
5.454481667E-1,-1.391193211E-1,7.553152514E-1,-1.405384129E-1,7.807729247E-1
5.554521667E-1,4.219476895E-2,7.420261382E-1,3.301688790E-2,7.439578638E-1
5.654561666E-1,1.510156367E-1,6.965381625E-1,1.933797008E-1,7.384895687E-1
5.754601667E-1,9.357705773E-2,6.282325973E-1,2.979244083E-1,7.015638353E-1
5.854641667E-1,-1.306362080E-2,6.202732211E-1,3.673659414E-1,7.210182119E-1
5.954681666E-1,-3.541517822E-2,6.688657759E-1,3.953331739E-1,7.777685899E-1
6.054721667E-1,-1.220419887E-1,7.288785276E-1,4.232319939E-1,8.516357647E-1
6.154771667E-1,-3.137310402E-1,7.478327157E-1,3.939918226E-1,9.016154904E-1
6.254811666E-1,-5.227403484E-1,7.260885286E-1,3.395817268E-1,9.569627853E-1
6.354851667E-1,-6.473402748E-1,6.644106361E-1,2.813399506E-1,9.693518930E-1
6.454900417E-1,-6.439114675E-1,6.249029003E-1,3.184376103E-1,9.521177051E-1
6.554940416E-1,-5.885242289E-1,6.312705182E-1,3.963336325E-1,9.497071039E-1
6.654980417E-1,-5.822519206E-1,5.636654493E-1,3.502932411E-1,8.828597808E-1
6.755020417E-1,-5.636981572E-1,4.937869830E-1,2.109055603E-1,7.785000658E-1
6.855060416E-1,-5.462212681E-1,4.375776990E-1,2.831923485E-2,7.004526361E-1
6.955100417E-1,-5.747911293E-1,3.565525393E-1,-1.464394230E-1,6.920686817E-1
7.055140417E-1,-5.442062080E-1,2.310471717E-1,-3.516737688E-1,6.879081566E-1
7.155180416E-1,-4.182622992E-1,1.465917429E-1,-4.908679068E-1,6.613499769E-1
7.255220417E-1,-2.350932804E-1,9.915708303E-2,-6.507875007E-1,6.990174166E-1
7.355260417E-1,-5.062884763E-2,7.170148194E-3,-9.455970973E-1,9.469786490E-1
7.455300416E-1,7.370927875E-2,-1.313369420E-1,-1.420847091E0,1.428806812E0
7.555340417E-1,1.533785879E-1,-2.025284006E-1,-1.981682196E0,1.997900665E0
7.655380417E-1,1.582108000E-1,-2.273281963E-1,-2.504633775E0,2.519900615E0
7.755420416E-1,9.280109567E-2,-2.527185608E-1,-2.974733541E0,2.986891085E0
7.855460417E-1,6.044502536E-2,-2.970670603E-1,-3.237117403E0,3.251281520E0
7.955500417E-1,3.797702612E-2,-2.922072932E-1,-3.279507962E0,3.292719216E0
8.055540416E-1,1.577788917E-2,-2.871501826E-1,-3.196798512E0,3.209707915E0
8.155580417E-1,-5.415402431E-2,-2.717234735E-1,-3.095114263E0,3.107490725E0
8.255620417E-1,-1.716802450E-1,-2.970211597E-1,-3.018488256E0,3.037921498E0
8.355660416E-1,-1.302310143E-1,-2.603234495E-1,-2.974587945E0,2.988796055E0
8.455700417E-1,-1.955674365E-3,-1.788131171E-1,-2.957473145E0,2.962874510E0
8.555740417E-1,1.147486836E-2,-6.555854335E-2,-2.985029903E0,2.985771779E0
8.655780416E-1,4.190487497E-2,7.226661533E-2,-2.991306304E0,2.992472538E0
8.755820417E-1,6.157549314E-2,2.137851678E-1,-2.790950875E0,2.799803998E0
8.855860417E-1,-1.841094520E-1,4.127460359E-1,-2.289956176E0,2.334128288E0
8.955900416E-1,-3.982483032E-1,6.483038959E-1,-1.324538187E0,1.527514668E0
9.055950417E-1,-4.891030709E-1,9.263552262E-1,1.296134752E-1,1.055535633E0
9.155990417E-1,-5.213905918E-1,1.401953129E0,1.949069935E0,2.456866773E0
9.256030417E-1,-4.233638486E-1,2.001782584E0,4.084680083E0,4.568476972E0
9.356070417E-1,-2.765018912E-1,2.636180924E0,6.160803582E0,6.706817721E0
9.456110417E-1,-3.048562825E-1,3.185635301E0,7.712906631E0,8.350457372E0
9.556150417E-1,-3.881690922E-1,3.558280693E0,8.815802600E0,9.514747092E0
9.656190417E-1,-4.816556916E-1,3.761253628E0,9.719920719E0,1.043340212E1
9.756230416E-1,-8.107405700E-1,3.768530196E0,1.101263894E1,1.166779056E1
9.856270417E-1,-1.219117274E0,3.554587592E0,1.288804098E1,1.342471378E1
9.956310417E-1,-1.192597520E0,3.260257759E0,1.482196896E1,1.522308554E1
1.005635042E0,-9.405332623E-1,2.974602563E0,1.607311875E1,1.637308796E1
1.015639042E0,-7.863747838E-1,2.746112379E0,1.636323888E1,1.661069249E1
1.025643042E0,-5.587031367E-1,2.621290990E0,1.583459445E1,1.605981622E1
1.035647042E0,-4.323514576E-1,2.419534860E0,1.466784338E1,1.487234702E1
1.045651042E0,-3.349935628E-1,2.134992389E0,1.309824487E1,1.327533171E1
1.055655042E0,-4.218720046E-1,2.013806506E0,1.148689725E1,1.166971298E1
1.065659042E0,-5.173734815E-1,2.117412736E0,1.019454565E1,1.042496393E1
1.075663042E0,-3.764075641E-1,2.307154006E0,9.361850681E0,9.649294816E0
1.085667042E0,-1.053735504E-1,2.467758309E0,8.825085640E0,9.164227802E0
1.095671042E0,4.953724556E-2,2.473195927E0,8.379882733E0,8.737367261E0
1.105675042E0,1.055811265E-1,2.178640685E0,7.916477444E0,8.211469889E0
1.115679042E0,6.247121349E-2,1.578528663E0,7.270760649E0,7.440404277E0
1.125683042E0,-4.764578093E-2,7.125156793E-1,6.147301776E0,6.188640226E0
1.135687042E0,-2.619753793E-1,-3.293704417E-1,4.334291287E0,4.354675298E0
1.145691042E0,-4.990215567E-1,-1.286345051E0,2.155436887E0,2.559221420E0
1.155695042E0,-3.231119841E-1,-2.155574881E0,-7.672424018E-2,2.181006884E0
1.165699042E0,1.381319365E-1,-2.780579669E0,-1.981786276E0,3.417335303E0
1.175703042E0,5.054891254E-1,-3.013187170E0,-3.268016430E0,4.473784479E0
1.185707042E0,6.429959397E-1,-2.873100455E0,-3.849921391E0,4.846652940E0
1.195711042E0,2.673982333E-1,-2.655958546E0,-3.980720097E0,4.792885363E0
1.205716042E0,5.533402897E-3,-2.736850097E0,-3.924621325E0,4.784666302E0
1.215720042E0,-3.761395058E-2,-3.187820113E0,-4.051367911E0,5.155307345E0
1.225724042E0,5.232638570E-2,-3.911611270E0,-4.594170202E0,6.034056730E0
1.235728042E0,9.591881278E-2,-4.663242191E0,-5.564067158E0,7.260431908E0
1.245732042E0,8.782074801E-2,-5.278744084E0,-6.702421228E0,8.532016286E0
1.255736042E0,-7.977246679E-4,-5.737128369E0,-7.666599607E0,9.575562234E0
1.265740042E0,-1.018665549E-1,-6.022670714E0,-8.425227891E0,1.035699784E1
1.275744042E0,-1.901306954E-1,-6.149827189E0,-8.961916333E0,1.087071610E1
1.285748042E0,3.571306828E-1,-6.031415225E0,-9.340971444E0,1.112471390E1
1.295752042E0,1.119421735E0,-5.745122682E0,-9.674489608E0,1.130731130E1
1.305756042E0,1.723084259E0,-5.507329286E0,-9.571877990E0,1.117678592E1
1.315760042E0,2.476868564E0,-5.349718173E0,-9.220530496E0,1.094406437E1
1.325764042E0,3.250505188E0,-5.135580856E0,-8.676675705E0,1.059361487E1
1.335768042E0,3.872790436E0,-4.790246639E0,-8.041117278E0,1.012938970E1
1.345772042E0,3.908846999E0,-4.549355387E0,-7.775786419E0,9.820314340E0
1.355776042E0,3.629732499E0,-4.722193235E0,-7.480675106E0,9.562142385E0
1.365780042E0,3.394415690E0,-5.071693009E0,-7.164729579E0,9.411560858E0
1.375784042E0,2.970568569E0,-5.264825372E0,-6.957158686E0,9.216546034E0
1.385788042E0,2.838203102E0,-5.497517658E0,-6.558565689E0,9.016256493E0
1.395792042E0,3.057157062E0,-5.695656407E0,-6.191814875E0,8.951272684E0
1.405796042E0,3.188725846E0,-5.861778728E0,-6.132532879E0,9.062912440E0
1.415800042E0,3.656333822E0,-6.069727936E0,-6.363218985E0,9.523703591E0
1.425804042E0,3.942532224E0,-6.248694835E0,-6.669669219E0,9.953604119E0
1.435808042E0,3.913307255E0,-6.462833905E0,-6.919444145E0,1.024504285E1
1.445812042E0,3.929610462E0,-6.660591416E0,-7.084114602E0,1.048761155E1
1.455816042E0,4.027841346E0,-6.835370539E0,-7.223033921E0,1.072930638E1
1.465820042E0,4.046845382E0,-6.814917564E0,-7.190725130E0,1.070170953E1
1.475824042E0,4.410036119E0,-6.731613452E0,-7.005887042E0,1.066984027E1
1.485828042E0,4.681391948E0,-6.593453102E0,-6.784555897E0,1.055553187E1
1.495832042E0,4.546901895E0,-6.203094739E0,-6.595487348E0,1.013178931E1
1.505837042E0,4.258333617E0,-5.576805902E0,-6.553317229E0,9.601048691E0
1.515841042E0,2.784690846E0,-4.518493783E0,-6.808100295E0,8.632584712E0
1.525845042E0,8.100799808E-1,-2.630733073E0,-7.192372291E0,7.701117143E0
1.535849042E0,-1.136667733E0,2.723972189E-1,-7.242920886E0,7.336628431E0
1.545853042E0,-3.457749222E0,4.743930259E0,-5.885682145E0,8.312770795E0
1.555857042E0,-5.107906569E0,1.222831484E1,-1.990679306E0,1.340094017E1
1.565861042E0,-4.331167412E0,1.609288234E1,4.120546904E0,1.716737545E1
1.575865042E0,-3.018144439E0,1.445097365E1,1.609854010E1,2.184268365E1
1.585869042E0,-4.354468859E0,1.330394290E1,2.765052154E1,3.099205765E1
1.595873042E0,-5.820251217E0,1.249148398E1,3.260668000E1,3.539926661E1
1.605877042E0,-5.691215447E0,1.285078369E1,3.231284104E1,3.523708658E1
1.615881042E0,-5.802713664E0,1.489699342E1,2.699365235E1,3.137274559E1
1.625885042E0,-6.157933769E0,1.697119728E1,2.179390590E1,2.830045971E1
1.635889042E0,-6.771628872E0,1.775529720E1,1.999596427E1,2.758521567E1
1.645892542E0,-7.635801737E0,1.544478748E1,1.791677625E1,2.485674555E1
1.655896542E0,-7.626581848E0,1.007115770E1,1.387342545E1,1.876339260E1
1.665900542E0,-7.588975480E0,5.127239218E0,8.528469254E0,1.251462819E1
1.675904542E0,-6.435342636E0,1.974172032E0,3.257035943E0,7.477919042E0
1.685908542E0,-3.771199450E0,1.376569051E-1,-1.191676583E0,3.957396593E0
1.695912542E0,-5.692375535E-1,-6.326412517E-1,-4.369321371E0,4.451430735E0
1.705916542E0,2.202257296E0,-9.923584503E-1,-6.232108038E0,6.683852414E0
1.715920542E0,4.895216731E0,-7.262516659E-1,-6.202369684E0,7.934732385E0
1.725924542E0,6.872036090E0,5.143210888E-2,-4.991490844E0,8.493674478E0
1.735928542E0,6.114009485E0,4.605331367E-1,-3.509767807E0,7.064819375E0
1.745932542E0,5.593158810E0,1.073806071E-1,-2.928003763E0,6.314124017E0
1.755936542E0,4.857230587E0,-1.133197410E0,-3.459165418E0,6.069814720E0
1.765940542E0,3.942066493E0,-2.692583751E0,-4.711885178E0,6.707589539E0
1.775944542E0,3.274562387E0,-4.348449150E0,-6.145166958E0,8.209436386E0
1.785948542E0,2.610860142E0,-5.788837636E0,-7.401105611E0,9.752107265E0
1.795952542E0,3.021978751E0,-6.502480366E0,-8.585177890E0,1.118570006E1
1.805957542E0,4.656190449E0,-6.493466883E0,-9.714706757E0,1.257858295E1
1.815961542E0,5.142132661E0,-6.446804933E0,-1.037594733E1,1.325379587E1
1.825965542E0,7.720858845E0,-6.764130403E0,-9.684742700E0,1.411238331E1
1.835969542E0,9.132457979E0,-6.077264412E0,-9.186926547E0,1.430854817E1
1.845973542E0,1.127208692E1,-5.432618827E0,-9.085532320E0,1.546351151E1
1.855977542E0,1.289618966E1,-5.481264153E0,-8.617938085E0,1.645067844E1
1.865981542E0,1.051083557E1,-5.440035435E0,-8.227517742E0,1.441401048E1
1.875985542E0,7.369975035E0,-5.410918640E0,-7.226500150E0,1.165404981E1
1.885989542E0,4.636522170E0,-6.025917088E0,-6.299404812E0,9.873779194E0
1.895993542E0,2.930189452E0,-6.840618415E0,-5.979734609E0,9.546585595E0
1.905997542E0,2.051933568E0,-7.206597397E0,-6.926884142E0,1.020427368E1
1.916001542E0,4.382833117E0,-6.704396417E0,-8.828428493E0,1.192054139E1
1.926005542E0,7.104051268E0,-6.157763615E0,-1.018246764E1,1.385886880E1
1.936009542E0,4.418705201E0,-6.377552265E0,-9.943428783E0,1.261229180E1
1.946013542E0,1.034836718E0,-6.595692000E0,-8.707774706E0,1.097266514E1
1.956017542E0,1.261132150E0,-6.009114529E0,-7.888031909E0,9.996047175E0
1.966021542E0,2.675137998E0,-4.887490805E0,-9.239528099E0,1.078947678E1
1.976025542E0,5.494353145E0,-3.880916312E0,-1.148955890E1,1.331387966E1
1.986029542E0,8.292319509E0,-3.352901044E0,-1.184691266E1,1.484432039E1
1.996033542E0,8.773501503E0,-3.335054465E0,-1.011772493E1,1.380091572E1
2.006037542E0,8.127508135E0,-3.343664490E0,-7.002298021E0,1.123693278E1
2.016041542E0,8.293549179E0,-2.859623500E0,-1.458944625E-1,8.773921001E0
2.026045542E0,7.080875829E0,-2.241115845E0,1.164047320E0,7.517739614E0
2.036049542E0,7.220119084E0,-2.228247001E0,-1.701243301E0,7.745284568E0
2.046053542E0,6.123787199E0,-1.407190919E0,-3.191258860E0,7.047346242E0
2.056057542E0,4.188254153E0,2.208841261E-1,-4.230262889E0,5.956961201E0
2.066061542E0,2.888311986E0,1.179883334E0,-2.937679735E0,4.285374317E0
2.076065542E0,1.223313528E0,3.622329631E0,6.575053668E-1,3.879443421E0
2.086069542E0,-8.823682308E-1,6.551257839E0,5.789277931E0,8.787109419E0
2.096073542E0,-4.342575622E0,8.633292289E0,1.131240230E1,1.487824400E1
2.106078542E0,-6.262755049E0,1.085739771E1,1.511124709E1,1.963300727E1
2.116082542E0,-8.644880885E0,1.325359370E1,1.756945632E1,2.364481987E1
2.126086542E0,-1.030920136E1,1.564391558E1,1.974839550E1,2.722151451E1
2.136090542E0,-1.112146264E1,1.646257839E1,2.382839547E1,3.102411722E1
2.146094542E0,-1.102750490E1,1.552176139E1,3.036051654E1,3.583701865E1
2.156098542E0,-9.149605524E0,1.293351477E1,3.684780117E1,4.010924502E1
2.166102542E0,-4.746238447E0,1.127714593E1,4.742477343E1,4.897764729E1
2.176106542E0,-3.846311247E-1,1.235945151E1,4.351467483E1,4.523749450E1
2.186110542E0,3.684056348E0,1.371708143E1,3.135092729E1,3.441818176E1
2.196114542E0,3.191617587E0,1.262774282E1,1.832405002E1,2.248148395E1
2.206118542E0,2.830371926E0,9.143946589E0,1.573536720E1,1.841804944E1
2.216122542E0,1.937637167E0,7.573000887E0,1.445665364E1,1.643470762E1
2.226126542E0,1.484069233E0,5.713093389E0,1.235672788E1,1.369418203E1
2.236130542E0,-1.967396753E-1,3.211472100E0,9.969899129E0,1.047621822E1
2.246134542E0,-2.016801158E0,3.175622821E-1,6.190859440E0,6.518824535E0
2.256138542E0,-1.640636326E0,-1.544169547E0,6.997725499E-1,2.359200874E0
2.266142542E0,-1.424113930E0,-4.033395908E0,-4.248790376E0,6.028980237E0
2.276146542E0,-1.045577176E0,-5.556512555E0,-8.061058037E0,9.846254115E0
2.286150542E0,-9.061129696E-1,-6.516542335E0,-1.108051225E1,1.288658669E1
2.296154542E0,-1.212386179E0,-8.114637828E0,-1.468542127E1,1.682197448E1
2.306158542E0,-4.159752338E-1,-9.657877668E0,-1.769882830E1,2.016670919E1
2.316162542E0,7.631956901E-1,-9.645809015E0,-2.015610314E1,2.235827795E1
2.326166542E0,4.098594117E-1,-9.457050954E0,-2.161399409E1,2.359594326E1
2.336170542E0,-8.167867371E-1,-8.902700411E0,-2.075915455E1,2.260238290E1
2.346174542E0,-1.303608517E0,-8.168457355E0,-1.993084032E1,2.157919106E1
2.356178542E0,-2.150812324E0,-7.831391101E0,-1.819243738E1,1.992288780E1
2.366182542E0,-1.992543545E0,-8.018007912E0,-1.526978148E1,1.736159288E1
2.376186542E0,-2.940821152E0,-8.407925979E0,-1.142561141E1,1.448745128E1
2.386190542E0,-2.482818398E0,-8.136177801E0,-7.968196067E0,1.165563919E1
2.396194542E0,-1.206891623E0,-7.721378662E0,-5.776369618E0,9.718164528E0
2.406199542E0,-2.359480520E-1,-7.123345326E0,-3.511553546E0,7.945358923E0
2.416203542E0,7.824637274E-1,-6.205180441E0,-1.823464141E0,6.514716821E0
2.426207542E0,1.572455599E0,-6.703196568E0,-2.349428206E0,7.274975858E0
2.436211542E0,2.402618865E0,-7.148224059E0,-2.608776779E0,7.979686766E0
2.446215542E0,2.532344899E0,-7.743096975E0,-4.021604413E0,9.085242072E0
2.456219542E0,2.319876671E0,-8.373558969E0,-5.537032557E0,1.030325420E1
2.466223542E0,1.024081861E0,-7.730431321E0,-6.041739653E0,9.864630257E0
2.476227542E0,5.052171202E-1,-6.294152843E0,-5.646399463E0,8.470739711E0
2.486231542E0,-4.031993235E-2,-6.039196115E0,-7.062148951E0,9.292333572E0
2.496235542E0,-5.383252247E-1,-6.078130385E0,-7.760834504E0,9.872386501E0
2.506239542E0,-1.719114292E-2,-5.266245661E0,-7.847715358E0,9.450940441E0
2.516243542E0,1.924646846E-1,-4.561812588E0,-6.873448777E0,8.251755864E0
2.526247542E0,-5.862345323E-2,-4.710837649E0,-6.130464719E0,7.731625039E0
2.536251542E0,-5.385003488E-1,-4.933732048E0,-5.726070115E0,7.577570423E0
2.546255542E0,-5.585508898E-2,-4.615478625E0,-5.572223439E0,7.235705687E0
2.556259542E0,-1.238783945E0,-4.360983242E0,-5.691825897E0,7.276650502E0
2.566263542E0,-4.687237410E0,-3.998999955E0,-5.544899985E0,8.289035591E0
2.576267542E0,-7.152155142E0,-2.015252815E0,-6.202239876E0,9.678964126E0
2.586271542E0,-4.741848065E0,-7.337980825E-1,-7.557930858E0,8.952424340E0
2.596275542E0,-1.703851744E0,-6.302573419E-1,-7.141451814E0,7.368898770E0
2.606279542E0,-1.944221132E0,-1.097916480E0,-4.256439704E0,4.806526330E0
2.616283542E0,-2.689603425E0,-1.509441764E0,-2.991917923E0,4.296970314E0
2.626287542E0,-2.287978647E0,-1.143045875E-1,-1.255197811E0,2.612170242E0
2.636291542E0,-1.716999793E-1,2.002160607E0,-3.595680946E-1,2.041425285E0
2.646295708E0,2.076136948E0,3.716087103E0,3.515547194E0,5.520753577E0
2.656299708E0,4.515679518E0,5.161105707E0,1.029425120E1,1.236931612E1
2.666303708E0,5.385713047E0,5.512637973E0,1.327608677E1,1.535088148E1
2.676307708E0,5.158165727E0,5.123027469E0,1.479367546E1,1.648347408E1
2.686311708E0,5.131500084E0,4.275740193E0,1.441739543E1,1.588947886E1
2.696315708E0,4.147091509E0,3.843911915E0,1.279205426E1,1.398608876E1
2.706319708E0,-1.360884625E0,9.672833676E0,8.847533686E0,1.317932360E1
2.716323708E0,-9.218948239E0,1.532382145E1,2.035390976E1,2.709409812E1
2.726328708E0,-1.001784279E1,1.275275746E1,2.924529114E1,3.344064967E1
2.736332708E0,1.946142234E0,4.587138340E0,3.415063963E1,3.451225137E1
2.746336708E0,9.277581779E0,-5.618224069E-2,3.553450250E1,3.672570691E1
2.756340708E0,7.787235267E0,1.190448668E0,3.661324362E1,3.745113896E1
2.766344708E0,6.762094402E0,2.575151780E0,3.374265600E1,3.450976908E1
2.776348708E0,9.601324568E0,5.300069464E0,2.617646186E1,2.838103813E1
2.786352708E0,7.652084479E0,5.703612129E0,1.952125924E1,2.172936148E1
2.796356708E0,3.600432101E0,3.844374138E0,1.412115444E1,1.507147393E1
2.806360708E0,2.968290202E0,3.569105643E0,8.858937510E0,1.000150167E1
2.816364708E0,1.986980942E0,3.346533134E0,4.851673393E0,6.219816074E0
2.826368708E0,1.581604006E0,2.608782918E0,8.551090962E-1,3.168348326E0
2.836372708E0,3.729641241E0,1.592920415E0,-2.049426867E0,4.543981703E0
2.846376708E0,6.586502516E0,1.153245174E0,-4.430238833E0,8.021159888E0
2.856380708E0,5.846559595E0,-8.076487085E-1,-8.541865810E0,1.038258287E1
2.866384708E0,4.497500525E0,-1.897959423E0,-1.118780281E1,1.220642014E1
2.876388708E0,-5.705224206E0,-1.498342579E0,-1.330479192E1,1.455376589E1
2.886392708E0,-1.451788100E1,-8.789131111E-1,-1.433303064E1,2.042001774E1
2.896396708E0,-1.147856614E1,-2.411435004E0,-1.302636622E1,1.752879677E1
2.906400708E0,-5.982396846E0,-3.829304693E0,-1.129908468E1,1.334623397E1
2.916404708E0,-2.305422792E0,-4.124467754E0,-9.321530036E0,1.045070001E1
2.926408708E0,-3.542845505E-1,-2.662307161E0,-7.868622662E0,8.314362246E0
2.936412708E0,1.165664002E0,-1.366477926E0,-4.205455492E0,4.572952042E0
2.946416708E0,1.437097673E0,-1.610334593E0,-4.730401556E0,5.199531335E0
2.956420708E0,2.369447318E0,-2.588294567E0,-3.745556193E0,5.132517955E0
2.966424708E0,1.741371719E0,-3.338392640E0,-6.596089611E0,7.595106256E0
2.976428708E0,1.711291156E0,-3.773602655E0,-1.177790148E1,1.248549389E1
2.986432708E0,-1.546330714E-1,-4.856533014E0,-1.297101297E1,1.385124549E1
2.996436708E0,-2.791323051E0,-5.163902430E0,-1.235167238E1,1.367556884E1
3.006440708E0,-4.280589874E0,-4.527843481E0,-1.296517511E1,1.438473433E1
3.016444708E0,-4.776023579E0,-4.132331967E0,-1.245719942E1,1.396668844E1
3.026448708E0,-2.909060246E0,-4.126067260E0,-1.253701742E1,1.351531976E1
3.036453708E0,-6.496018316E-1,-4.319800425E0,-1.552261626E1,1.612557824E1
3.046457708E0,-1.126175927E-1,-4.281706692E0,-1.544605398E1,1.602892007E1
3.056461708E0,1.829307264E0,-4.718197540E0,-1.674309272E1,1.749110936E1
3.066465708E0,1.980116750E0,-5.357451700E0,-1.655087837E1,1.750870428E1
3.076469708E0,1.262415321E0,-6.044195484E0,-1.649091166E1,1.760897950E1
3.086473708E0,-1.060884456E-1,-6.381985039E0,-1.726336159E1,1.840556006E1
3.096477708E0,4.328652086E-1,-5.510916553E0,-1.699876573E1,1.787499958E1
3.106481708E0,1.167619822E0,-4.336357985E0,-1.510705464E1,1.576040724E1
3.116485708E0,2.324751787E0,-4.349224199E0,-1.407937024E1,1.491807254E1
3.126489708E0,3.231242706E0,-4.371444495E0,-1.352445193E1,1.457605078E1
3.136493708E0,3.025495559E0,-4.486937822E0,-1.283795958E1,1.393195752E1
3.146497708E0,2.436206734E0,-4.717851677E0,-1.265140767E1,1.372047170E1
3.156501708E0,2.641686662E0,-4.212787900E0,-1.265063233E1,1.359281386E1
3.166505708E0,3.185702836E0,-3.187441505E0,-1.152605021E1,1.237571490E1
3.176509708E0,3.882521372E0,-1.957139093E0,-8.851312156E0,9.861546153E0
3.186513708E0,3.384671305E0,-7.957165879E-1,-5.282354740E0,6.323957332E0
3.196517708E0,2.266148945E0,5.089501289E-1,-1.468039969E0,2.747654022E0
3.206521708E0,9.397987059E-1,2.256418886E0,2.516576713E0,3.508248302E0
3.216525708E0,-3.094921012E-1,4.763896746E0,7.421896555E0,8.824683906E0
3.226529708E0,-1.949788850E0,7.193551090E0,1.261208982E1,1.464969841E1
3.236533708E0,-1.883856377E0,8.727140100E0,1.996042490E1,2.186619425E1
3.246537708E0,1.006934901E0,8.396032158E0,3.230098289E1,3.338953083E1
3.256541708E0,5.027050686E0,6.720432406E0,4.602296195E1,4.678192468E1
3.266545708E0,8.318217412E0,5.742922960E0,5.373294614E1,5.467543695E1
3.276549708E0,8.769402021E0,5.601212765E0,5.295976180E1,5.397232963E1
3.286553708E0,6.933928868E0,6.007015378E0,4.729583530E1,4.817737685E1
3.296557708E0,3.656899832E0,6.274647117E0,3.912631142E1,3.979462725E1
3.306561708E0,6.274445388E-1,6.239852675E0,3.077605477E1,3.140851788E1
3.316565708E0,-1.549624414E0,5.940072945E0,2.444613276E1,2.520514251E1
3.326569708E0,-2.925623946E0,5.072481798E0,1.907288773E1,1.995155115E1
3.336573708E0,-3.299383818E0,3.717727247E0,1.438747523E1,1.522192081E1
3.346577708E0,-2.894929572E0,2.382208282E0,9.829299320E0,1.052001229E1
3.356581708E0,-2.627719711E0,1.442567158E0,5.470243320E0,6.237745816E0
3.366585708E0,-2.270446648E0,7.241101232E-1,1.702655404E0,2.928873312E0
3.376590708E0,-1.515394083E0,5.149028867E-2,-1.217037127E0,1.944286462E0
3.386594708E0,-8.469594663E-1,-4.856600842E-1,-4.126181281E0,4.240115330E0
3.396598708E0,-3.644511775E-1,-1.249318728E0,-6.534420197E0,6.662752378E0
3.406602708E0,-1.998615586E-1,-2.464810435E0,-8.192003508E0,8.557111464E0
3.416606708E0,-1.808468518E-1,-3.915872136E0,-9.283522550E0,1.007722934E1
3.426610708E0,-4.662367301E-1,-5.381835759E0,-9.905252312E0,1.128253323E1
3.436614708E0,-8.188324586E-1,-6.566974570E0,-1.079912202E1,1.266557057E1
3.446618708E0,-1.254072222E0,-7.446403990E0,-1.224524954E1,1.438637431E1
3.456622708E0,-1.505882417E0,-7.647421909E0,-1.404050964E1,1.605884973E1
3.466626708E0,-1.343975501E0,-6.969836619E0,-1.577259993E1,1.729623662E1
3.476630708E0,-1.884831108E0,-6.712260922E0,-1.706314357E1,1.843252298E1
3.486634708E0,-2.631217808E0,-7.131536690E0,-1.774038446E1,1.930034620E1
3.496638708E0,-3.133190454E0,-7.444850385E0,-1.719061989E1,1.899368558E1
3.506642708E0,-3.516100926E0,-7.615364549E0,-1.582942551E1,1.791444822E1
3.516646708E0,-3.588275740E0,-8.021389942E0,-1.345859006E1,1.607333400E1
3.526650708E0,-3.268552034E0,-8.324872713E0,-1.089054674E1,1.409223000E1
3.536654708E0,-2.621802036E0,-8.322048508E0,-8.420908552E0,1.212608915E1
3.546658708E0,-1.126965228E0,-7.412241633E0,-6.609496692E0,9.994839827E0
3.556662708E0,8.096487486E-1,-5.340373152E0,-7.970571790E0,9.628350387E0
3.566666708E0,-1.924909825E0,-6.436013312E0,-7.953111420E0,1.041054881E1
3.576670708E0,-2.151323809E0,-7.958219547E0,-5.602823088E0,9.967601469E0
3.586674708E0,1.616619180E-1,-5.723699069E0,-5.454054134E0,7.907817152E0
3.596678708E0,7.133195253E-1,-3.231152074E0,-5.293193139E0,6.242360297E0
3.606682708E0,5.933587798E-1,-2.971395073E0,-5.604229344E0,6.370922214E0
3.616686708E0,8.655066150E-1,-3.239123290E0,-5.820086911E0,6.716727852E0
3.626690708E0,1.226820250E0,-2.651309133E0,-5.465678399E0,6.197432404E0
3.636694708E0,1.411712425E0,-1.839044048E0,-5.213954011E0,5.706166087E0
3.646698167E0,1.478422285E0,-1.600530274E0,-5.307263294E0,5.737113672E0
3.656702167E0,1.554915706E0,-1.621658311E0,-5.292354648E0,5.749483129E0
3.666706167E0,1.371765709E0,-1.164189700E0,-5.171741207E0,5.475763502E0
3.676710167E0,1.055765803E0,-6.837175575E-1,-5.095046203E0,5.248009808E0
3.686715167E0,1.135614357E0,-4.807896459E-1,-5.102762189E0,5.249662904E0
3.696719167E0,7.650083269E-1,-2.557352856E-1,-5.185630683E0,5.247990459E0
3.706723167E0,1.285919666E-2,-1.251748538E-1,-5.030984108E0,5.032557521E0
3.716727167E0,9.338953570E-2,9.091192424E-2,-4.877996389E0,4.879737222E0
3.726731167E0,6.536061510E-1,4.048907402E-1,-4.551286722E0,4.615771695E0
3.736735167E0,1.006768767E0,8.441420585E-1,-4.151826584E0,4.354747197E0
3.746739167E0,1.192274169E0,1.279383941E0,-3.741276031E0,4.129828968E0
3.756743167E0,1.172795193E0,1.901687900E0,-2.875799237E0,3.641714800E0
3.766747167E0,4.934646553E-1,2.337272429E0,-1.660609830E0,2.909291114E0
3.776751167E0,-2.514481802E-1,2.776065618E0,7.193303168E-1,2.878750182E0
3.786755167E0,-8.661015692E-1,3.449924478E0,5.014600795E0,6.148034805E0
3.796759167E0,-1.007642268E0,3.957727968E0,1.057579580E1,1.133694890E1
3.806763167E0,-1.244490682E0,4.769919963E0,1.509898431E1,1.588333154E1
3.816767167E0,-1.554156591E0,6.048585573E0,1.873992739E1,1.975311795E1
3.826771167E0,-1.462783029E0,6.272425759E0,2.403525593E1,2.488325916E1
3.836775167E0,-7.810286745E-2,5.066415896E0,3.011767700E1,3.054094200E1
3.846779167E0,1.448152419E0,3.735118621E0,3.311232850E1,3.335377872E1
3.856783167E0,1.651020104E0,2.969747620E0,3.302675333E1,3.320107985E1
3.866787167E0,1.694909889E0,2.786133939E0,3.148250133E1,3.165095815E1
3.876791167E0,2.260576841E0,3.598422706E0,2.888187499E1,2.919283399E1
3.886795167E0,2.166650384E0,4.615775664E0,2.500327183E1,2.551790276E1
3.896799167E0,1.300201198E0,5.160717452E0,2.064908657E1,2.132389045E1
3.906803167E0,5.432254837E-1,5.452005855E0,1.702625700E1,1.788610883E1
3.916807167E0,4.638266540E-1,5.364496425E0,1.423101544E1,1.521560900E1
3.926811167E0,6.906351791E-1,4.607362105E0,1.185092268E1,1.273377912E1
3.936815167E0,5.252978475E-1,3.246531420E0,9.253863133E0,9.820890335E0
3.946819167E0,1.020261656E-1,1.735617328E0,6.387452186E0,6.619843070E0
3.956823167E0,-2.393375733E-1,5.018036619E-1,2.978447692E0,3.029891095E0
3.966827167E0,-4.430357824E-1,-4.983614060E-1,-1.115841705E-1,6.760886204E-1
3.976831167E0,-5.157274172E-1,-1.761547098E0,-2.405010084E0,3.025408477E0
3.986835167E0,-6.513543883E-1,-3.369515322E0,-4.285258291E0,5.490112446E0
3.996839167E0,-6.121080961E-1,-4.763208236E0,-6.222564797E0,7.860225295E0
4.006843167E0,-1.285641284E-1,-5.504815568E0,-8.472213192E0,1.010435152E1
4.016848167E0,3.904900348E-1,-5.528606719E0,-1.132232386E1,1.260606966E1
4.026852167E0,4.236631530E-1,-5.200821750E0,-1.459520225E1,1.549993438E1
4.036856167E0,3.513803482E-1,-4.778855678E0,-1.735969798E1,1.800888791E1
4.046860167E0,2.345974548E-1,-4.442991026E0,-1.912222419E1,1.963299935E1
4.056864167E0,1.658906244E-1,-4.042474588E0,-1.981875855E1,2.022751372E1
4.066868167E0,1.105258427E-1,-3.988415617E0,-1.920700648E1,1.961705312E1
4.076872167E0,1.507179129E-1,-4.486408941E0,-1.760188848E1,1.816527069E1
4.086876167E0,4.201084479E-1,-5.008469989E0,-1.564791858E1,1.643528578E1
4.096880167E0,7.088350763E-1,-5.562202481E0,-1.350567886E1,1.462340265E1
4.106884167E0,7.666358994E-1,-6.104556291E0,-1.135234697E1,1.291236306E1
4.116888167E0,6.610481948E-1,-6.499469050E0,-9.378172599E0,1.142935711E1
4.126892167E0,6.373460676E-1,-6.596250994E0,-7.694711266E0,1.015506369E1
4.136896167E0,7.331154200E-1,-6.196453471E0,-6.703928055E0,9.158392065E0
4.146900167E0,7.687380465E-1,-5.644141853E0,-6.137673751E0,8.373669119E0
4.156904167E0,7.750246804E-1,-5.171226068E0,-6.112948215E0,8.044276113E0
4.166908167E0,8.256245112E-1,-4.587476894E0,-6.536912280E0,8.028562901E0
4.176912167E0,7.969170213E-1,-4.013250789E0,-7.003365723E0,8.111004258E0
4.186916167E0,4.153883927E-1,-3.927645213E0,-7.504823522E0,8.480643875E0
4.196920167E0,3.166469005E-1,-3.836837954E0,-7.693554686E0,8.603044487E0
4.206924167E0,3.044721204E-1,-3.580124721E0,-7.452535381E0,8.273468432E0
4.216928167E0,3.381506938E-2,-3.445031820E0,-7.128639395E0,7.917505120E0
4.226932167E0,-2.140552361E-1,-3.391554648E0,-7.128141797E0,7.896763137E0
4.236936167E0,-2.954460294E-1,-3.211616234E0,-7.236734532E0,7.922884189E0
4.246940167E0,-3.042019425E-1,-2.633739127E0,-7.371585943E0,7.833862388E0
4.256944167E0,-1.669634423E-1,-2.008195810E0,-7.425400792E0,7.693978433E0
4.266948167E0,-6.787199423E-2,-1.402861348E0,-7.421170331E0,7.552906438E0
4.276952167E0,-1.462727042E-1,-8.805471155E-1,-7.349726712E0,7.403731604E0
4.286956167E0,-8.892284766E-2,-2.962576595E-1,-6.774262458E0,6.781320500E0
4.296960167E0,8.959498510E-2,2.412160644E-1,-5.606520283E0,5.612422127E0
4.306964167E0,3.709491152E-1,7.136193413E-1,-3.874201954E0,3.956803835E0
4.316968167E0,5.865415842E-1,1.308722346E0,-1.812671936E0,2.311398874E0
4.326973167E0,8.474554563E-1,2.275672305E0,2.673370385E-1,2.443017454E0
4.336977167E0,9.852756449E-1,3.519319818E0,2.300254292E0,4.318280895E0
4.346981167E0,6.039075223E-1,4.878410956E0,4.007476371E0,6.342197144E0
4.356985167E0,-5.555367232E-1,6.030174446E0,6.417095230E0,8.823306415E0
4.366989167E0,-1.587352258E0,7.092018868E0,9.572348106E0,1.201858008E1
4.376993167E0,-1.972353402E0,8.363983569E0,1.266787928E1,1.530756559E1
4.386997167E0,-2.124205592E0,9.324815587E0,1.558496395E1,1.828539134E1
4.397001167E0,-1.773424839E0,9.487409697E0,1.951526935E1,2.177158047E1
4.407005167E0,-1.567369545E-1,8.892892876E0,2.430491080E1,2.588120552E1
4.417009167E0,1.834040293E0,7.761482375E0,2.803707395E1,2.914930236E1
4.427013167E0,2.590192865E0,6.215110182E0,2.912803575E1,2.989613956E1
4.437017167E0,2.426031263E0,5.278059375E0,2.815405101E1,2.874707162E1
4.447021167E0,2.096829221E0,5.221243150E0,2.599321714E1,2.659521404E1
4.457025167E0,1.239017249E0,5.811671013E0,2.305073450E1,2.380434928E1
4.467029167E0,-3.981702429E-1,5.912103374E0,2.004038440E1,2.089805045E1
4.477033167E0,-2.325271019E0,5.052125886E0,1.773622943E1,1.858775661E1
4.487037167E0,-3.628425646E0,3.981779028E0,1.518999506E1,1.611694719E1
4.497041167E0,-3.853918548E0,3.022908166E0,1.191393812E1,1.288148219E1
4.507045167E0,-3.383430526E0,2.147758031E0,8.774776196E0,9.646614120E0
4.517049167E0,-2.549975716E0,1.418988846E0,5.876847003E0,6.561496490E0
4.527053167E0,-1.506088824E0,6.965735382E-1,3.134988765E0,3.547065378E0
4.537057167E0,-6.331357799E-1,-1.911878720E-1,5.298945630E-1,8.474679735E-1
4.547061167E0,5.371166783E-1,-9.223003283E-1,-1.438053693E0,1.790846349E0
4.557065167E0,1.493853525E0,-1.475004295E0,-3.591135321E0,4.159746256E0
4.567069167E0,1.894317339E0,-1.933096511E0,-6.220684918E0,6.783967950E0
4.577073167E0,1.862877445E0,-2.389433394E0,-8.855307559E0,9.359282893E0
4.587077167E0,1.735837183E0,-2.727812056E0,-1.138056329E1,1.183094714E1
4.597081167E0,1.579463341E0,-2.883260576E0,-1.339677096E1,1.379425127E1
4.607085167E0,1.341860563E0,-3.048416352E0,-1.485656343E1,1.522533773E1
4.617089167E0,1.159356537E0,-3.298103570E0,-1.578603332E1,1.616850156E1
4.627094167E0,9.678406365E-1,-3.456011137E0,-1.607838475E1,1.647407614E1
4.637098167E0,7.585671803E-1,-3.603299283E0,-1.612885207E1,1.654385260E1
4.647102667E0,6.153903575E-1,-3.876837002E0,-1.594020452E1,1.641641528E1
4.657106667E0,3.916266239E-1,-4.281800540E0,-1.528716175E1,1.588031805E1
4.667110667E0,3.020390574E-1,-4.828251494E0,-1.413256703E1,1.493762669E1
4.677114667E0,4.272202335E-1,-5.233544523E0,-1.288735218E1,1.391604655E1
4.687118667E0,7.082652652E-1,-5.258924947E0,-1.191383989E1,1.304214369E1
4.697122667E0,1.242560954E0,-5.075597194E0,-1.117891037E1,1.233992227E1
4.707126667E0,1.494288704E0,-4.908525871E0,-1.063774822E1,1.181051278E1
4.717130667E0,1.595617443E0,-4.888131075E0,-1.027559975E1,1.149033379E1
4.727134667E0,1.698049406E0,-4.867584544E0,-9.807221988E0,1.107963692E1
4.737138667E0,1.703753218E0,-4.892898018E0,-9.064419193E0,1.044063798E1
4.747142667E0,1.526656844E0,-5.056116611E0,-8.210172561E0,9.762270729E0
4.757146667E0,1.328940555E0,-5.142013963E0,-7.404308715E0,9.112089670E0
4.767150667E0,9.280707993E-1,-5.152610287E0,-6.939598913E0,8.693028313E0
4.777154667E0,7.002154034E-1,-4.877106735E0,-6.641420150E0,8.269518325E0
4.787158667E0,7.186918008E-1,-4.328436762E0,-6.363385046E0,7.729460004E0
4.797162667E0,7.105434135E-1,-3.854341009E0,-6.279527788E0,7.402248698E0
4.807166667E0,7.092706208E-1,-3.570935237E0,-6.190006331E0,7.181282731E0
4.817170667E0,8.845413485E-1,-3.217411994E0,-5.972586973E0,6.841487301E0
4.827174667E0,1.231840961E0,-2.714599687E0,-5.639048928E0,6.378507383E0
4.837178667E0,1.262618512E0,-2.394069943E0,-5.306673310E0,5.957059511E0
4.847182667E0,9.724130130E-1,-2.107224547E0,-5.284581944E0,5.771723199E0
4.857186667E0,5.977422182E-1,-1.757344412E0,-5.254179931E0,5.572428725E0
4.867190667E0,2.090946776E-1,-1.373579077E0,-4.921420736E0,5.113787454E0
4.877194667E0,1.671287723E-1,-7.557526231E-1,-4.198934092E0,4.269676986E0
4.887198667E0,7.223976199E-1,2.649089822E-1,-2.920268481E0,3.019934286E0
4.897202667E0,1.059873326E0,1.661639817E0,-1.587624884E0,2.530796539E0
4.907206667E0,8.903341851E-1,3.186937476E0,3.071366966E-2,3.309109965E0
4.917210667E0,5.444128705E-1,5.004387463E0,3.060458985E0,5.891238279E0
4.927215667E0,-2.749681118E-1,7.215715545E0,6.375371253E0,9.632627726E0
4.937219667E0,-1.543819883E0,9.613670964E0,8.430771051E0,1.287959432E1
4.947223667E0,-2.467249017E0,1.142116402E1,1.056132745E1,1.575029977E1
4.957227667E0,-2.357220790E0,1.147949467E1,1.670618860E1,2.040666620E1
4.967231667E0,-8.873154138E-1,9.207103534E0,2.715927824E1,2.869119166E1
4.977235667E0,5.846313354E-1,5.435622541E0,3.628850797E1,3.669800535E1
4.987239667E0,3.925014770E-1,3.222873878E0,3.924758267E1,3.938164190E1
4.997243667E0,1.331614195E-1,3.308682060E0,3.695900819E1,3.710705318E1
5.007247667E0,5.452951423E-1,4.282655403E0,3.249032508E1,3.277590133E1
5.017251667E0,9.621524651E-1,5.302829350E0,2.750783077E1,2.803081322E1
5.027255667E0,1.131943621E0,5.786615694E0,2.250839589E1,2.326787707E1
5.037259667E0,9.652280275E-1,5.657660615E0,1.828428778E1,1.916392362E1
5.047263667E0,6.070471117E-1,4.486247850E0,1.472522444E1,1.540542634E1
5.057267667E0,2.526612581E-1,3.117888583E0,1.118995693E1,1.161895877E1
5.067271667E0,3.382493656E-2,2.169754379E0,7.617016972E0,7.920096322E0
5.077275667E0,-9.892944362E-2,1.127256931E0,4.680431251E0,4.815281084E0
5.087279667E0,-4.302622109E-1,-1.224538520E-1,2.036761213E0,2.085309750E0
5.097283667E0,-6.583423957E-1,-1.128636582E0,-7.174907827E-1,1.490646929E0
5.107287667E0,-8.795961390E-1,-2.102864863E0,-3.335273443E0,4.039774615E0
5.117291667E0,-8.586877383E-1,-2.899028178E0,-5.963738381E0,6.686395478E0
5.127295667E0,-6.428300980E-1,-3.401942226E0,-8.412215497E0,9.096802241E0
5.137299667E0,-1.803241108E-1,-3.601697731E0,-1.061852491E1,1.121417918E1
5.147303667E0,3.031841981E-1,-3.732849901E0,-1.253358627E1,1.308116485E1
5.157307667E0,5.334028558E-1,-3.766106232E0,-1.415673592E1,1.465882828E1
5.167311667E0,4.880046349E-1,-3.662521930E0,-1.536207744E1,1.580017844E1
5.177315667E0,3.058795087E-1,-3.640132941E0,-1.603149125E1,1.644240985E1
5.187319667E0,8.153024945E-2,-3.848139452E0,-1.613635054E1,1.658905160E1
5.197324667E0,-8.547892900E-2,-4.140865978E0,-1.563235329E1,1.617172060E1
5.207328667E0,-8.182452885E-2,-4.445222908E0,-1.461899807E1,1.528011147E1
5.217332667E0,3.162066417E-2,-4.728308253E0,-1.351462042E1,1.431792108E1
5.227336667E0,1.272591486E-1,-5.007646701E0,-1.241087193E1,1.338366401E1
5.237340667E0,4.201535811E-1,-5.166682781E0,-1.126134909E1,1.239714174E1
5.247344667E0,6.245317483E-1,-5.209070417E0,-1.047487754E1,1.171526841E1
5.257348667E0,6.390082117E-1,-5.202207540E0,-9.963920935E0,1.125837534E1
5.267352667E0,8.249418488E-1,-5.207622646E0,-9.382670277E0,1.076263742E1
5.277356667E0,8.661245196E-1,-5.298887157E0,-8.825962722E0,1.033082740E1
5.287360667E0,6.385096635E-1,-5.322580075E0,-8.632488297E0,1.016156521E1
5.297364667E0,7.081228124E-1,-5.175907348E0,-8.526328003E0,9.999486188E0
5.307368667E0,7.087715609E-1,-5.167738788E0,-8.231751126E0,9.745235139E0
5.317372667E0,6.510191236E-1,-5.307458006E0,-7.805438819E0,9.461385287E0
5.327376667E0,6.772389887E-1,-5.252669595E0,-7.388359850E0,9.090492385E0
5.337380667E0,8.950438980E-1,-5.035353733E0,-7.194774912E0,8.827268934E0
5.347384667E0,1.223055374E0,-4.713066900E0,-7.247831377E0,8.731547614E0
5.357388667E0,1.400774331E0,-4.237247972E0,-7.694094384E0,8.894690973E0
5.367392667E0,1.572192036E0,-3.737975570E0,-8.310848751E0,9.247402669E0
5.377396667E0,1.432888116E0,-3.401639925E0,-8.670064843E0,9.423075237E0
5.387400667E0,1.219466280E0,-3.227968850E0,-8.618809320E0,9.283897619E0
5.397404667E0,1.090857137E0,-3.034582717E0,-8.000543448E0,8.625969918E0
5.407408667E0,1.042751874E0,-2.765645880E0,-6.949301782E0,7.551749722E0
5.417412667E0,1.088037244E0,-2.531640602E0,-5.813087209E0,6.433118379E0
5.427416667E0,1.243682158E0,-2.157662337E0,-4.603791211E0,5.234228270E0
5.437420667E0,1.377335474E0,-1.124432434E0,-3.787229299E0,4.183838796E0
5.447425667E0,1.177858443E0,4.306541571E-1,-3.295131723E0,3.525720719E0
5.457429667E0,7.373330167E-1,2.048215908E0,-2.231405082E0,3.117373417E0
5.467433667E0,-1.259992747E-2,3.281038471E0,5.450692570E-1,3.326029570E0
5.477437667E0,-7.245573621E-1,4.200970385E0,5.247838041E0,6.761134494E0
5.487441667E0,-1.506734941E0,5.194579847E0,1.012733424E1,1.148115015E1
5.497445667E0,-1.744078980E0,6.891134266E0,1.353997161E1,1.529249405E1
5.507449667E0,-1.672315225E0,8.811784979E0,1.599144718E1,1.833495502E1
5.517453667E0,-1.169839133E0,9.982953622E0,1.963145353E1,2.205497346E1
5.527457667E0,-1.376630081E-1,1.007225113E1,2.532023068E1,2.725038121E1
5.537461667E0,1.014002504E0,8.948451950E0,3.024386225E1,3.155620695E1
5.547465667E0,1.382262192E0,7.117938405E0,3.221990773E1,3.302571953E1
5.557469667E0,5.955848879E-1,5.955566897E0,3.176667835E1,3.232561449E1
5.567473667E0,-1.305194830E-1,5.901977166E0,2.949286458E1,3.007788941E1
5.577477667E0,-6.548144782E-1,6.299438142E0,2.613792871E1,2.689429345E1
5.587481667E0,-1.297517180E0,6.176572938E0,2.258704094E1,2.345224984E1
5.597485667E0,-1.715124152E0,5.630675130E0,1.905413337E1,1.994257134E1
5.607489667E0,-2.089944271E0,4.576804264E0,1.569122306E1,1.647815176E1
5.617493667E0,-2.193882622E0,3.102965319E0,1.264803266E1,1.320659853E1
5.627497667E0,-1.751241819E0,1.511379823E0,1.033285802E1,1.058862936E1
5.637501667E0,-7.359824561E-1,4.925922507E-1,7.981890246E0,8.030871011E0
5.647505292E0,4.062700253E-2,-3.606881288E-1,5.116545246E0,5.129403643E0
5.657509292E0,1.494821678E-1,-1.223767565E0,1.845898154E0,2.219750428E0
5.667513292E0,3.957987950E-1,-1.882828875E0,-1.286109701E0,2.314255695E0
5.677517292E0,9.753937773E-1,-2.132702035E0,-3.752263534E0,4.424849446E0
5.687521292E0,1.109376000E0,-2.330546962E0,-6.154747036E0,6.674059884E0
5.697526292E0,9.644578761E-1,-2.702768139E0,-8.502518726E0,8.973737198E0
5.707530292E0,7.395448722E-1,-2.989758546E0,-1.037607713E1,1.082351881E1
5.717534292E0,6.333970043E-1,-3.166036311E0,-1.156254151E1,1.200488833E1
5.727538292E0,4.780499696E-1,-3.390743347E0,-1.234764949E1,1.281366927E1
5.737542292E0,2.934913783E-1,-3.648386286E0,-1.297783667E1,1.348410562E1
5.747546292E0,1.569094839E-1,-3.876348759E0,-1.347360454E1,1.402100994E1
5.757550292E0,4.365955129E-2,-3.941862718E0,-1.386996741E1,1.441929901E1
5.767554292E0,7.686603516E-2,-3.861505018E0,-1.409324334E1,1.461289284E1
5.777558292E0,2.049937146E-1,-3.727133663E0,-1.393814595E1,1.442932639E1
5.787562292E0,3.015768168E-1,-3.718860730E0,-1.331209041E1,1.382507233E1
5.797566292E0,4.199587226E-1,-3.834237989E0,-1.234798863E1,1.293640481E1
5.807570292E0,6.461491238E-1,-3.890154035E0,-1.104308072E1,1.172605811E1
5.817574292E0,6.950826444E-1,-4.197363530E0,-9.500925536E0,1.041002337E1
5.827578292E0,6.873201732E-1,-4.709170024E0,-7.917137010E0,9.237410339E0
5.837582292E0,7.092560028E-1,-4.964713520E0,-6.719689810E0,8.384846782E0
5.847586292E0,7.381786703E-1,-4.895999673E0,-6.045808731E0,7.814571246E0
5.857590292E0,8.146004632E-1,-4.705494171E0,-5.865273024E0,7.563509566E0
5.867594292E0,6.763184908E-1,-4.580046253E0,-6.045333352E0,7.614478690E0
5.877598292E0,4.789649126E-1,-4.432026327E0,-6.474801401E0,7.860999805E0
5.887602292E0,2.613318019E-1,-4.281996129E0,-6.873658108E0,8.102528059E0
5.897606292E0,2.222030753E-1,-4.153718158E0,-7.081414942E0,8.212745359E0
5.907610292E0,9.902946755E-2,-4.064613900E0,-7.178462350E0,8.249922103E0
5.917614292E0,2.521988165E-2,-4.027321821E0,-7.221017216E0,8.268194889E0
5.927618292E0,-9.243640300E-2,-4.031355230E0,-7.252902668E0,8.298491826E0
5.937623292E0,-2.234427215E-1,-4.052165763E0,-7.340614411E0,8.387764538E0
5.947627292E0,-1.111620015E-1,-3.859604965E0,-7.242044973E0,8.207077608E0
5.957631292E0,2.347735656E-1,-3.394948664E0,-6.842935667E0,7.642418701E0
5.967635292E0,3.373599676E-1,-3.147970461E0,-6.516185655E0,7.244598351E0
5.977639292E0,3.387774788E-1,-2.951173940E0,-6.508042822E0,7.153937320E0
5.987643292E0,2.594064599E-1,-2.627794847E0,-6.597202336E0,7.106030969E0
5.997647292E0,2.282371460E-1,-2.186108456E0,-6.530061682E0,6.890055729E0
6.007651292E0,6.712765829E-1,-1.399608250E0,-6.352716801E0,6.539612088E0
6.017655292E0,9.302310531E-1,-4.086680415E-1,-5.871098605E0,5.958367076E0
6.027659292E0,6.838818642E-1,2.849842277E-1,-4.831557802E0,4.888032448E0
6.037663292E0,5.212941127E-1,5.109639099E-1,-2.994536306E0,3.082219875E0
6.047667292E0,3.695078861E-1,7.386471784E-1,-2.080790162E-1,8.517233172E-1
6.057671292E0,4.369236879E-2,1.470191159E0,2.735846130E0,3.106159223E0
6.067675292E0,5.024589155E-2,2.938813511E0,5.316612407E0,6.074991110E0
6.077679292E0,1.417768897E-2,4.787638780E0,7.670041278E0,9.041638088E0
6.087683292E0,-4.141399025E-1,6.501155972E0,9.863443551E0,1.182049320E1
6.097687292E0,-9.031623184E-1,7.592977899E0,1.218244928E1,1.438336143E1
6.107691292E0,-1.183890796E0,8.320190848E0,1.460803571E1,1.685294872E1
6.117695292E0,-9.550858127E-1,8.351484561E0,1.748272573E1,1.939858712E1
6.127699292E0,-1.129571332E-1,7.154035022E0,2.102203367E1,2.220628011E1
6.137703292E0,1.170063301E0,5.404621773E0,2.493873729E1,2.554446324E1
6.147708292E0,1.728796989E0,3.867757153E0,2.782560355E1,2.814626969E1
6.157712292E0,1.399216340E0,3.509631566E0,2.736637259E1,2.762596005E1
6.167716292E0,5.389594283E-1,4.642680165E0,2.308624347E1,2.355460876E1
6.177720292E0,-3.259762792E-1,6.457509431E0,1.770038015E1,1.884433990E1
6.187724292E0,-1.079059137E0,7.782391434E0,1.413292839E1,1.617002319E1
6.197728292E0,-1.546165640E0,8.076795233E0,1.302043130E1,1.539989872E1
6.207732292E0,-1.628233212E0,7.002727207E0,1.347760053E1,1.527530843E1
6.217736292E0,-1.585236735E0,5.232525938E0,1.378516056E1,1.482979956E1
6.227740292E0,-1.428490133E0,3.624814698E0,1.351969113E1,1.406989388E1
6.237744292E0,-1.043098760E0,2.698575393E0,1.206192764E1,1.240405025E1
6.247748292E0,-3.128315192E-1,2.489780678E0,9.181596226E0,9.518328668E0
6.257752292E0,1.834847501E-1,2.589377764E0,5.477896156E0,6.061838843E0
6.267756292E0,4.152043515E-1,2.598096254E0,1.829412514E0,3.204566889E0
6.277760292E0,4.545267672E-1,2.404743159E0,-1.240760450E0,2.743878776E0
6.287764292E0,2.012728572E-1,1.720036837E0,-3.716692582E0,4.100346477E0
6.297768292E0,-2.847793559E-1,3.538188198E-1,-5.360889863E0,5.380095460E0
6.307772292E0,-4.805511891E-1,-1.353945881E0,-5.876085110E0,6.049171441E0
6.317776292E0,-3.807186431E-1,-3.156553881E0,-5.640391449E0,6.474781447E0
6.327780292E0,-2.929902719E-1,-4.700016207E0,-5.432134092E0,7.189163821E0
6.337784292E0,-3.558885880E-1,-5.696208385E0,-5.888016939E0,8.200133543E0
6.347788292E0,-3.911482851E-1,-6.105674279E0,-7.140293480E0,9.402980717E0
6.357792292E0,-3.895309818E-1,-6.197900072E0,-8.884531943E0,1.083976972E1
6.367797292E0,-3.139154468E-1,-5.985982359E0,-1.082622386E1,1.237487983E1
6.377801292E0,-1.836932033E-1,-5.425682859E0,-1.268196288E1,1.379507014E1
6.387805292E0,2.006746139E-3,-4.668255594E0,-1.436689303E1,1.510629768E1
6.397809292E0,4.007430909E-1,-3.863288418E0,-1.571957855E1,1.619230503E1
6.407813292E0,7.314755684E-1,-3.375916854E0,-1.648606666E1,1.684405726E1
6.417817292E0,9.005488323E-1,-3.257337367E0,-1.640782039E1,1.675224775E1
6.427821292E0,9.718622784E-1,-3.571893303E0,-1.532932719E1,1.576994642E1
6.437825292E0,1.012536753E0,-4.259949495E0,-1.345799598E1,1.415238695E1
6.447829292E0,1.017267735E0,-4.912207278E0,-1.132288519E1,1.238435880E1
6.457833292E0,9.004759613E-1,-5.264552307E0,-9.395256994E0,1.080727634E1
6.467837292E0,9.168312082E-1,-5.295183531E0,-7.826311040E0,9.493718586E0
6.477841292E0,9.369753047E-1,-5.114004046E0,-6.627782689E0,8.423684673E0
6.487845292E0,8.699822932E-1,-4.815924979E0,-6.088992757E0,7.811903442E0
6.497849292E0,6.664809890E-1,-4.276485421E0,-6.269580504E0,7.618409556E0
6.507853292E0,3.124676031E-1,-3.864596148E0,-6.427954679E0,7.506753010E0
6.517857292E0,1.932700289E-2,-3.805667909E0,-6.423163471E0,7.465956786E0
6.527861292E0,-9.214899408E-2,-3.694091340E0,-6.200784504E0,7.218346814E0
6.537865292E0,-1.187907176E-1,-3.617444283E0,-5.530807026E0,6.609829100E0
6.547869292E0,-4.301827619E-2,-3.522053976E0,-4.667002535E0,5.847018680E0
6.557873292E0,1.792884958E-1,-3.134113145E0,-3.868282818E0,4.981809061E0
6.567877292E0,5.627988554E-1,-2.647982360E0,-3.283164811E0,4.255317180E0
6.577882292E0,9.865641519E-1,-1.853802420E0,-2.890952296E0,3.573163503E0
6.587886292E0,9.338235824E-1,-9.302399701E-1,-2.677868063E0,2.984685955E0
6.597890292E0,9.016171917E-1,-2.354612347E-1,-2.399127200E0,2.573745690E0
6.607894292E0,9.615583880E-1,2.686114392E-1,-1.348130533E0,1.677558515E0
6.617898292E0,9.042577212E-1,8.062582406E-1,7.462725323E-1,1.422904448E0
6.627902292E0,3.113963932E-1,1.579614784E0,2.749214035E0,3.185958001E0
6.637906292E0,-3.012013341E-1,2.317488960E0,3.651831758E0,4.335591368E0
6.647910542E0,-1.105863870E0,3.238823036E0,3.953408337E0,5.228991015E0
6.657914542E0,-1.981310459E0,4.444991066E0,4.465921467E0,6.605148845E0
6.667918542E0,-2.335431872E0,4.919582956E0,5.692308877E0,7.877748335E0
6.677922542E0,-1.812644307E0,4.277547275E0,7.490575612E0,8.814295949E0
6.687926542E0,-5.822351099E-1,3.143662817E0,9.667205147E0,1.018216426E1
6.697930542E0,8.560706525E-2,1.853635482E0,1.204993266E1,1.219197155E1
6.707934542E0,-1.028198337E-1,1.318765231E0,1.301294803E1,1.308000497E1
6.717938542E0,-4.712547375E-1,1.958865191E0,1.095154373E1,1.113532864E1
6.727942542E0,-1.020900391E0,3.420881065E0,6.765981047E0,7.650043424E0
6.737946542E0,-1.224583251E0,4.990010329E0,2.517943792E0,5.721874533E0
6.747950542E0,-5.086593395E-1,6.210355811E0,-5.341080666E-1,6.254000724E0
6.757954542E0,5.600574249E-1,6.316829515E0,-1.522851183E0,6.521891993E0
6.767958542E0,1.077332454E0,5.134040115E0,-1.443513238E0,5.440840338E0
6.777962542E0,1.491623690E0,3.115120219E0,-1.552909380E-1,3.457315503E0
6.787967542E0,1.725832597E0,8.738111231E-1,2.670483615E0,3.297503111E0
6.797971542E0,1.614381158E0,-1.205894088E0,5.864005932E0,6.200562285E0
6.807975542E0,1.434880116E0,-2.365055182E0,7.620375028E0,8.106940393E0
6.817979542E0,1.156956548E0,-2.333099564E0,7.157498327E0,7.616540182E0
6.827983542E0,1.215088689E0,-1.515926618E0,5.013767567E0,5.377019550E0
6.837987542E0,9.809792570E-1,-6.773195341E-1,2.236536013E0,2.534398428E0
6.847991542E0,2.640147602E-1,-2.251332977E-1,-4.870847583E-1,5.980303982E-1
6.857995542E0,-5.306275845E-1,-2.890799099E-1,-2.712653149E0,2.779140143E0
6.867999542E0,-1.206821457E0,-4.986327168E-1,-4.015699895E0,4.222664829E0
6.878003542E0,-1.373927863E0,-6.593326217E-1,-4.427815163E0,4.682728307E0
6.888007542E0,-1.208499681E0,-8.087108552E-1,-4.303495756E0,4.542527980E0
6.898011542E0,-9.862764689E-1,-9.141870242E-1,-4.030529603E0,4.248958469E0
6.908015542E0,-7.358386146E-1,-1.036564862E0,-3.760780588E0,3.969810551E0
6.918019542E0,-5.004530282E-1,-9.560332078E-1,-3.616683560E0,3.774235380E0
6.928023542E0,-3.071102379E-1,-6.406153920E-1,-3.478850069E0,3.550648192E0
6.938027542E0,-1.874436988E-1,-3.683462271E-1,-3.114342831E0,3.141646918E0
6.948031542E0,-2.323107184E-1,-2.747942850E-1,-2.638259609E0,2.662685474E0
6.958035542E0,-3.424611150E-1,-2.075752786E-1,-2.227626611E0,2.263335466E0
6.968039542E0,-3.995405744E-1,-7.090333700E-2,-1.722428933E0,1.769582262E0
6.978043542E0,-3.608181562E-1,-7.713091403E-2,-1.082043629E0,1.143222347E0
6.988048542E0,-2.815401081E-1,-1.274953213E-1,-3.592505908E-1,4.738996480E-1
6.998052542E0,-2.045851587E-1,-1.697110489E-1,4.856065822E-1,5.535979407E-1
7.008056542E0,-1.732907874E-1,-1.167990097E-1,1.124440620E0,1.143695070E0
7.018060542E0,-2.677912210E-1,-7.341705501E-2,1.428888182E0,1.455617958E0
7.028064542E0,-4.191169794E-1,-5.292958081E-2,1.457153623E0,1.517154330E0
7.038068542E0,-4.189633438E-1,1.299450123E-1,1.393102638E0,1.460531050E0
7.048072542E0,-3.432965360E-1,4.011637250E-1,1.517278787E0,1.606524125E0
7.058076542E0,-2.527946295E-1,5.293612969E-1,1.852153505E0,1.942833270E0
7.068080542E0,4.948227259E-2,3.670633480E-1,2.393740745E0,2.422225991E0
7.078084542E0,3.091804446E-1,5.205132902E-2,3.040166808E0,3.056291234E0
7.088088542E0,3.663957421E-1,-2.862387478E-1,3.402090746E0,3.433715175E0
7.098092542E0,2.955530152E-1,-4.973241100E-1,3.118686143E0,3.171889991E0
7.108096542E0,2.193589165E-1,-4.920595694E-1,2.422785035E0,2.481960572E0
7.118100542E0,1.018822418E-1,-4.770000654E-1,1.807530479E0,1.872184683E0
7.128104542E0,-5.452624527E-2,-4.799374142E-1,1.344290666E0,1.428436358E0
7.138108542E0,-1.703565450E-1,-5.032815456E-1,9.990769011E-1,1.131577802E0
7.148112542E0,-1.771772489E-1,-5.738542226E-1,6.306034970E-1,8.708393749E-1
7.158116542E0,-2.147061773E-1,-5.912412107E-1,1.860958242E-1,6.559699441E-1
7.168120542E0,-3.128921840E-1,-5.024569421E-1,-3.733359486E-1,6.998172818E-1
7.178125542E0,-1.859841424E-1,-3.994171616E-1,-9.351475382E-1,1.033743241E0
7.188129542E0,-2.810248130E-2,-3.137159836E-1,-1.274650328E0,1.312989309E0
7.198133542E0,5.125165375E-2,-2.772802287E-1,-1.494530194E0,1.520898274E0
7.208137542E0,1.343975666E-1,-2.055848864E-1,-1.645022907E0,1.663258313E0
7.218141542E0,2.816982752E-1,-1.713511929E-1,-1.674986964E0,1.707131067E0
7.228145542E0,3.881084273E-1,-1.315752161E-1,-1.652569908E0,1.702623708E0
7.238149542E0,5.985211769E-1,-1.258031371E-1,-1.496531112E0,1.616681600E0
7.248153542E0,8.220596831E-1,-1.001408771E-1,-1.330705245E0,1.567350238E0
7.258157542E0,8.057325029E-1,3.095837563E-2,-1.334472021E0,1.559159666E0
7.268161542E0,5.644650926E-1,1.609373018E-1,-1.604525676E0,1.708515233E0
7.278165542E0,1.934962979E-1,2.440455320E-1,-1.912428943E0,1.937623158E0
7.288169542E0,-2.154980000E-1,3.696565881E-1,-2.059865901E0,2.103837663E0
7.298173542E0,-4.086025893E-1,5.723073417E-1,-1.901075404E0,2.026963113E0
7.308177542E0,-4.278848792E-1,7.916638827E-1,-1.400533864E0,1.664725886E0
7.318181542E0,-2.875504976E-1,8.521074280E-1,-4.996972024E-1,1.028819543E0
7.328185542E0,7.649656422E-3,7.805214286E-1,5.560789794E-1,9.583819954E-1
7.338189542E0,4.628301058E-1,5.871063522E-1,1.618537359E0,1.782854105E0
7.348193542E0,9.716074128E-1,2.051486841E-1,3.097719197E0,3.252994186E0
7.358197542E0,1.324788155E0,-2.833192331E-1,4.601273400E0,4.796566516E0
7.368201542E0,1.529286921E0,-6.158106261E-1,5.380538846E0,5.627445201E0
7.378206542E0,1.499828649E0,-6.816119751E-1,5.187158561E0,5.442489761E0
7.388210542E0,1.301392276E0,-5.255749324E-1,4.118023245E0,4.350628267E0
7.398214542E0,1.015927919E0,-2.457162277E-1,2.473403211E0,2.685183317E0
7.408218542E0,7.359719311E-1,7.314632893E-2,1.062435576E0,1.294517061E0
7.418222542E0,4.462052657E-1,3.292356634E-1,-1.400244427E-1,5.719284096E-1
7.428226542E0,9.941968697E-2,5.616105916E-1,-1.201954819E0,1.330408252E0
7.438230542E0,-1.960315410E-1,6.890522647E-1,-1.976122078E0,2.101970470E0
7.448234542E0,-2.697805717E-1,6.398651943E-1,-2.590972592E0,2.682414583E0
7.458238542E0,-3.967733065E-1,5.355058435E-1,-2.962363172E0,3.036410895E0
7.468242542E0,-5.319959061E-1,5.563730943E-1,-3.002541729E0,3.099649577E0
7.478246542E0,-5.704586714E-1,6.106475347E-1,-2.821544092E0,2.942690023E0
7.488250542E0,-5.356379540E-1,6.800449213E-1,-2.529383284E0,2.673415215E0
7.498254542E0,-3.742567023E-1,7.050730509E-1,-2.203177063E0,2.343327817E0
7.508258542E0,-1.798562604E-1,7.681183147E-1,-1.827464222E0,1.990472181E0
7.518262542E0,2.645431110E-2,8.836556415E-1,-1.393173974E0,1.649994195E0
7.528266542E0,2.743420211E-1,9.374471019E-1,-9.672084063E-1,1.374613660E0
7.538270542E0,4.909900040E-1,8.284821917E-1,-6.184980065E-1,1.144549566E0
7.548274542E0,6.855594304E-1,6.486019577E-1,-2.686216718E-1,9.812409667E-1
7.558278542E0,5.786379394E-1,4.712158535E-1,3.136446476E-2,7.468935501E-1
7.568283542E0,4.008457095E-1,1.871053460E-1,2.774772799E-1,5.221870682E-1
7.578287542E0,4.543927563E-1,-1.251038101E-1,5.604041648E-1,7.322407857E-1
7.588291542E0,6.300631412E-1,-3.675869662E-1,9.364719325E-1,1.187046511E0
7.598295542E0,6.671061295E-1,-5.142336729E-1,1.106318344E0,1.390470114E0
7.608299542E0,5.225203469E-1,-4.684330174E-1,1.118746017E0,1.320624721E0
7.618303542E0,3.483774740E-1,-2.056155843E-1,5.745748919E-1,7.026954812E-1
7.628307542E0,2.446784931E-1,1.749204795E-1,-1.078004372E-1,3.195084872E-1
7.638311542E0,1.194219885E-1,3.956094548E-1,-5.087194562E-1,6.554112733E-1
7.648315417E0,1.165273335E-1,4.134621736E-1,-9.427781546E-1,1.036031002E0
7.658319417E0,1.418630265E-1,3.855121905E-1,-1.725495797E0,1.773719401E0
7.668323417E0,1.174979713E-3,3.863755319E-1,-2.416626163E0,2.447318827E0
7.678327417E0,6.934434506E-1,4.178078243E-1,-3.063252785E0,3.168429393E0
7.688331417E0,1.579743422E0,4.303429390E-1,-3.239518270E0,3.629774504E0
7.698335417E0,2.099862172E0,4.298817399E-1,-2.782964748E0,3.512707252E0
7.708339417E0,2.023337760E0,4.482621700E-1,-2.161378827E0,2.994393611E0
7.718343417E0,1.855194934E0,6.179192783E-1,-1.578670458E0,2.513120151E0
7.728347417E0,2.004444821E0,8.138113815E-1,-1.490585663E0,2.627153141E0
7.738351417E0,2.025987426E0,7.743390944E-1,-1.656850070E0,2.729354912E0
7.748355417E0,1.879017660E0,4.156274341E-1,-1.634906055E0,2.525147786E0
7.758359417E0,1.345986943E0,-2.123122542E-1,-1.380652161E0,1.939834461E0
7.768363417E0,2.924467367E-1,-8.673783819E-1,-1.278169767E0,1.572128590E0
7.778368417E0,-6.800067683E-1,-1.330400020E0,-1.440644594E0,2.075531321E0
7.788372417E0,-1.141423858E0,-1.476072727E0,-1.628797469E0,2.476816568E0
7.798376417E0,-1.419502524E0,-1.553913786E0,-1.797575009E0,2.767835144E0
7.808380417E0,-1.609387929E0,-1.543370233E0,-1.955576717E0,2.965872801E0
7.818384417E0,-1.537292052E0,-1.386167986E0,-1.557164399E0,2.590268230E0
7.828388417E0,-1.060098882E0,-1.168619258E0,-7.598801726E-1,1.751256259E0
7.838392417E0,-7.545485352E-1,-1.002155460E0,-6.742248952E-2,1.256266234E0
7.848396417E0,-6.902790836E-1,-4.038750423E-1,2.203792191E-1,8.295584749E-1
7.858400417E0,-1.684545553E-1,1.978517792E-1,-3.728769422E-1,4.544881492E-1
7.868404417E0,3.759396406E-1,5.085774419E-1,-9.133999890E-1,1.110982074E0
7.878408417E0,6.200472263E-1,5.455515427E-1,-6.704779994E-1,1.063779017E0
7.888412417E0,3.830623898E-1,3.091629030E-1,-5.066781932E-1,7.064285431E-1
7.898416417E0,-2.186703337E-1,-1.732779235E-1,-9.540556794E-1,9.940141815E-1
7.908420417E0,-9.684505011E-1,-1.159117825E0,-1.921116736E0,2.443796231E0
7.918424417E0,-1.586807443E0,-1.970998163E0,-3.489962702E0,4.310757623E0
7.928428417E0,-1.775266712E0,-2.589728597E0,-4.805574530E0,5.740366945E0
7.938432417E0,-1.483739450E0,-2.437423247E0,-4.779176105E0,5.566241019E0
7.948436417E0,-4.984250310E-1,-2.075838448E0,-3.886601560E0,4.434321194E0
7.958440417E0,8.178798376E-2,-1.157866374E0,-2.721373687E0,2.958583877E0
7.968444417E0,1.982590378E-1,6.345047593E-2,-1.991495578E0,2.002345436E0
7.978449417E0,4.129490805E-1,1.122675199E0,-1.682243943E0,2.064187790E0
7.988453417E0,8.206858067E-1,1.815089905E0,-1.322831969E0,2.391225831E0
7.998457417E0,1.104129805E0,2.168066288E0,-4.958123124E-1,2.483031192E0
8.008461417E0,1.151273127E0,2.149624462E0,2.526494175E-1,2.451560089E0
8.018465417E0,1.220175693E0,2.075535854E0,8.314208561E-1,2.547143193E0
8.028469417E0,1.586797211E0,2.057552304E0,1.436415303E0,2.968962073E0
8.038473417E0,1.450125269E0,2.181461966E0,2.594542902E0,3.686908254E0
8.048477417E0,3.514826379E-1,2.351746481E0,4.082799618E0,4.724775580E0
8.058481417E0,-1.145558936E0,2.678572068E0,5.751189753E0,6.446955652E0
8.068485417E0,-2.225728020E0,3.025852824E0,8.065580859E0,8.897372933E0
8.078489417E0,-2.540645607E0,2.783664660E0,1.109044667E1,1.171331193E1
8.088493417E0,-2.082029479E0,1.874383157E0,1.391917758E1,1.419829791E1
8.098497417E0,-1.095674219E0,1.092728977E0,1.578052174E1,1.585621092E1
8.108501417E0,-7.928786418E-1,7.472912635E-1,1.605518183E1,1.609210876E1
8.118505417E0,-1.143080813E0,9.481869753E-1,1.513690234E1,1.520958595E1
8.128509417E0,-1.707798468E0,1.364647016E0,1.411571887E1,1.428398951E1
8.138513417E0,-1.889883249E0,1.355269106E0,1.386283381E1,1.405654916E1
8.148517417E0,-1.734159324E0,9.801140153E-1,1.426397502E1,1.440239270E1
8.158521417E0,-1.578362310E0,4.012769782E-1,1.416981731E1,1.426309831E1
8.168525417E0,-1.503019767E0,-1.197527673E-1,1.308991376E1,1.317646581E1
8.178530417E0,-1.565565825E0,-4.458608647E-1,1.141400235E1,1.152949426E1
8.188534417E0,-1.764657670E0,-5.708715579E-1,9.670163838E0,9.846419637E0
8.198538417E0,-1.941593978E0,-6.312632822E-1,8.483266184E0,8.725484837E0
8.208542417E0,-1.935208964E0,-8.198336481E-1,7.973443943E0,8.245784939E0
8.218546417E0,-1.527087491E0,-8.369913523E-1,7.505245691E0,7.704626118E0
8.228550417E0,-1.102352763E0,-8.684457180E-1,6.847003575E0,6.989337417E0
8.238554417E0,-5.711034000E-1,-1.070250087E0,5.754216272E0,5.880697174E0
8.248558417E0,-1.059171952E-1,-1.368833769E0,4.304175203E0,4.517836708E0
8.258562417E0,-3.639358185E-2,-1.701444153E0,2.725041645E0,3.212800751E0
8.268566417E0,-2.110302156E-1,-2.116183505E0,1.127036199E0,2.406860397E0
8.278570417E0,-5.746684839E-1,-2.582528628E0,-3.971376246E-1,2.675334796E0
8.288574417E0,-9.270573306E-1,-2.859683433E0,-1.635260981E0,3.422178124E0
8.298578417E0,-9.955462792E-1,-2.953714555E0,-2.592684072E0,4.054325192E0
8.308582417E0,-8.466598696E-1,-2.972810392E0,-3.362528484E0,4.567387915E0
8.318586417E0,-5.855948834E-1,-3.339088459E0,-4.058970460E0,5.288447249E0
8.328590417E0,-2.911316613E-1,-3.496216592E0,-4.984474186E0,6.095348309E0
8.338594417E0,2.972986832E-1,-3.390041681E0,-5.927899042E0,6.835258310E0
8.348598417E0,5.915669737E-1,-3.241753368E0,-6.561156006E0,7.342185269E0
8.358602417E0,5.296574584E-1,-3.220786715E0,-6.957545187E0,7.685144053E0
8.368607417E0,3.348229703E-1,-3.175402966E0,-7.345303878E0,8.009293319E0
8.378611417E0,4.555110363E-1,-3.140190156E0,-7.910538427E0,8.523197917E0
8.388615417E0,5.776938698E-1,-3.230783699E0,-8.395232844E0,9.013968494E0
8.398619417E0,8.485018887E-1,-3.297669707E0,-8.610041420E0,9.258908910E0
8.408623417E0,1.168731963E0,-3.492818483E0,-8.788263969E0,9.528866614E0
8.418627417E0,1.424088934E0,-3.678675156E0,-8.885005567E0,9.721316995E0
8.428631417E0,1.589649190E0,-3.730326827E0,-8.927499037E0,9.805231351E0
8.438635417E0,1.791097903E0,-3.814976968E0,-8.907070035E0,9.853830604E0
8.448639417E0,1.901980407E0,-3.872208346E0,-8.838948219E0,9.835574846E0
8.458643417E0,2.001155763E0,-3.938688849E0,-8.775943885E0,9.825226985E0
8.468647417E0,2.125211459E0,-4.012030767E0,-8.730932604E0,9.840838316E0
8.478651417E0,2.225602597E0,-4.080391150E0,-8.649310151E0,9.819035846E0
8.488655417E0,2.324163557E0,-4.143143176E0,-8.594764400E0,9.820251866E0
8.498659417E0,2.430247836E0,-4.207727720E0,-8.521554337E0,9.809585385E0
8.508663417E0,2.549750598E0,-4.265085397E0,-8.466816797E0,9.817289250E0
8.518667417E0,2.660388397E0,-4.329961132E0,-8.382746699E0,9.802891005E0
8.528671417E0,2.824875543E0,-4.415176991E0,-8.001724586E0,9.565631503E0
8.538675417E0,2.644205058E0,-4.473427245E0,-7.491856152E0,9.117635675E0
8.548679417E0,1.595177733E0,-4.253180173E0,-7.707051814E0,8.946104250E0
8.558684417E0,1.010199767E0,-3.572573335E0,-7.180473207E0,8.083500435E0
8.568688417E0,7.974073103E-1,-3.076758099E0,-5.487838177E0,6.341818877E0
8.578692417E0,7.756142990E-1,-3.041490910E0,-3.758099640E0,4.896484188E0
8.588696417E0,1.065944344E0,-3.300173192E0,-2.162421970E0,4.086985346E0
8.598700417E0,1.688346828E0,-3.853656300E0,-1.061623397E0,4.339150393E0
8.608704417E0,2.114328914E0,-4.729915945E0,-4.595695156E-1,5.201316731E0
8.618708417E0,3.164261681E0,-5.258751869E0,-3.151649237E-4,6.137346601E0
8.628712417E0,5.727523148E0,-4.781364718E0,5.014542907E-1,7.477795556E0
8.638716417E0,6.491534379E0,-3.386706721E0,5.267125082E-1,7.340791992E0
8.648720292E0,6.090459824E0,-2.060273159E0,-3.084612663E0,7.131147288E0
8.658724292E0,5.039249148E0,-5.532489270E-1,-5.273040125E0,7.314715887E0
8.668728292E0,-8.083492634E0,3.098857065E0,-8.118997512E0,1.186860939E1
8.678732292E0,-1.566178467E1,7.305030595E0,-8.121900070E0,1.909503160E1
8.688736292E0,-1.212268255E1,9.046594541E0,-6.348206259E0,1.640426858E1
8.698740292E0,-4.524045714E0,7.153618700E0,-2.861090566E0,8.934600682E0
8.708744292E0,-5.389400594E-2,5.816015494E0,6.557709072E0,8.765414370E0
8.718748292E0,3.797229207E0,8.889509093E0,1.194795020E1,1.536866408E1
8.728752292E0,7.134882467E0,8.989052677E0,2.021421277E1,2.324487069E1
8.738756292E0,8.254524862E0,3.182784198E0,2.398075520E1,2.556059303E1
8.748760292E0,4.544957696E0,7.467332929E-2,2.459832175E1,2.501478861E1
8.758765292E0,-1.577545015E0,2.112287212E0,2.401102741E1,2.415532742E1
8.768769292E0,-1.842216162E0,2.937577994E0,2.169192344E1,2.196730907E1
8.778773292E0,1.212103393E0,1.390306499E0,1.962840596E1,1.971487934E1
8.788777292E0,2.349317109E0,1.289954976E0,1.838044291E1,1.857482049E1
8.798781292E0,2.021152363E0,1.695342291E0,1.701824397E1,1.722149443E1
8.808785292E0,1.685841296E0,1.189434322E0,1.321538565E1,1.337547131E1
8.818789292E0,5.641488679E-1,5.683559395E-1,8.173641497E0,8.212777103E0
8.828793292E0,-5.722558862E-1,-1.059199727E-1,3.108557011E0,3.162565815E0
8.838797292E0,-8.183945753E-1,-1.129293809E0,-9.815820318E-1,1.705455210E0
8.848801292E0,-8.455608854E-1,-2.019410185E0,-3.696481681E0,4.296157298E0
8.858805292E0,-1.206012202E0,-2.326290189E0,-4.856223112E0,5.518060745E0
8.868809292E0,-1.719686004E0,-2.262539751E0,-4.519677259E0,5.338903315E0
8.878813292E0,-2.193751937E0,-2.393427042E0,-3.464754186E0,4.748216732E0
8.888817292E0,-2.855474023E0,-2.987366450E0,-2.542651201E0,4.852129979E0
8.898821292E0,-3.583668134E0,-3.681605780E0,-1.820152863E0,5.450674716E0
8.908825292E0,-4.440286104E0,-4.402752827E0,-2.023554692E0,6.572301479E0
8.918829292E0,-5.347110314E0,-5.159661444E0,-3.453777208E0,8.194038805E0
8.928833292E0,-6.314361990E0,-5.899455847E0,-5.562540450E0,1.027699386E1
8.938837292E0,-7.321250771E0,-6.333273055E0,-7.763563399E0,1.240902805E1
8.948842292E0,-8.091312116E0,-6.520509671E0,-9.665608857E0,1.419191223E1
8.958846292E0,-8.379703224E0,-6.391426538E0,-1.099963941E1,1.523357563E1
8.968850292E0,-8.057771317E0,-5.908406764E0,-1.132115207E1,1.509984879E1
8.978854292E0,-7.361519961E0,-5.349031709E0,-1.054703802E1,1.392997227E1
8.988858292E0,-6.444428040E0,-4.865113803E0,-9.294948009E0,1.231243451E1
8.998862292E0,-5.607573951E0,-4.645826259E0,-7.709487764E0,1.060494172E1
9.008866292E0,-5.190155259E0,-4.809982453E0,-5.744661337E0,9.114536559E0
9.018870292E0,-5.104857831E0,-5.052092557E0,-3.916201919E0,8.180455376E0
9.028874292E0,-4.770614027E0,-5.060534767E0,-2.802785640E0,7.498224968E0
9.038878292E0,-4.387782785E0,-4.870630943E0,-2.494144455E0,7.014017402E0
9.048882292E0,-4.386203452E0,-4.617724248E0,-3.069464867E0,7.069920263E0
9.058886292E0,-4.775025752E0,-4.419977847E0,-4.092072718E0,7.686490371E0
9.068890292E0,-5.531712175E0,-4.257803859E0,-5.286232613E0,8.756311354E0
9.078894292E0,-6.104325326E0,-4.004788698E0,-6.496981060E0,9.773018116E0
9.088898292E0,-6.164006687E0,-3.700484101E0,-7.248867504E0,1.020953677E1
9.098902292E0,-5.837341459E0,-3.428983552E0,-7.392151769E0,1.002379126E1
9.108906292E0,-5.422092084E0,-3.369206005E0,-7.146264072E0,9.582260791E0
9.118910292E0,-5.211691723E0,-3.345860996E0,-6.767022436E0,9.173282350E0
9.128914292E0,-5.129743581E0,-3.381238990E0,-6.356555498E0,8.840409725E0
9.138919292E0,-4.800546509E0,-3.057999938E0,-5.713376395E0,8.064693437E0
9.148923292E0,-4.252314493E0,-2.537748896E0,-5.304986973E0,7.257081699E0
9.158927292E0,-3.253382018E0,-2.055620822E0,-4.899957361E0,6.230542004E0
9.168931292E0,-2.390808367E0,-1.532985285E0,-4.183701510E0,5.056616147E0
9.178935292E0,-1.994081216E0,-9.612214422E-1,-3.208357873E0,3.897931092E0
9.188939292E0,-1.389855094E0,-8.937293708E-2,-1.757242085E0,2.242227564E0
9.198943292E0,3.258261520E-1,1.150528850E0,2.087818515E-1,1.213865387E0
9.208947292E0,3.434890117E0,2.553734306E0,2.278983291E0,4.849102377E0
9.218951292E0,7.039881585E0,3.991293617E0,4.351324226E0,9.188274048E0
9.228955292E0,1.008026299E1,4.950975487E0,6.120085911E0,1.278981281E1
9.238959292E0,1.191337445E1,5.198013332E0,7.543956597E0,1.502860987E1
9.248963292E0,1.309675032E1,5.057240446E0,8.869213407E0,1.660612828E1
9.258967292E0,1.421373107E1,4.972862785E0,1.041386535E1,1.830868937E1
9.268971292E0,1.532176557E1,5.666834897E0,1.290058209E1,2.081572809E1
9.278975292E0,1.748778241E1,6.604741151E0,1.622344832E1,2.475167499E1
9.288979292E0,2.066322981E1,7.015168328E0,1.853334409E1,2.862981830E1
9.298983292E0,2.207546103E1,7.170855707E0,1.911024208E1,3.006573637E1
9.308987292E0,2.191374576E1,7.241587136E0,1.891952695E1,2.984294452E1
9.318991292E0,2.184891417E1,6.873307859E0,1.856052428E1,2.948067966E1
9.328995292E0,2.115937074E1,6.686187018E0,1.849660486E1,2.888855237E1
9.339000292E0,1.974960237E1,6.588368948E0,1.807802842E1,2.757296703E1
9.349004292E0,1.813423186E1,5.939451386E0,1.645950977E1,2.520005773E1
9.359008292E0,1.451407447E1,5.307274404E0,1.423717255E1,2.101243921E1
9.369012292E0,9.654808465E0,4.224373573E0,1.246251688E1,1.632099830E1
9.379016292E0,5.355787582E0,2.245243979E0,1.105112181E1,1.248410487E1
9.389020292E0,1.391275967E0,3.045911112E-1,9.230407612E0,9.339638604E0
9.399024292E0,-2.498001863E0,-1.321266085E0,6.777312366E0,7.342868668E0
9.409028292E0,-6.079333742E0,-2.830773045E0,3.569170255E0,7.596746085E0
9.419032292E0,-9.094974988E0,-4.002382569E0,-1.221205607E-1,9.937431745E0
9.429036292E0,-1.131090541E1,-4.513131301E0,-3.982021687E0,1.281254979E1
9.439040292E0,-1.276184169E1,-4.718278816E0,-7.617644963E0,1.559343686E1
9.449044292E0,-1.388156829E1,-4.821901125E0,-1.070571392E1,1.818133601E1
9.459048292E0,-1.473240131E1,-5.142684639E0,-1.286818500E1,2.022575188E1
9.469052292E0,-1.512972897E1,-5.538948104E0,-1.387710218E1,2.126411554E1
9.479056292E0,-1.516715349E1,-5.975032278E0,-1.398649072E1,2.147941988E1
9.489060292E0,-1.487289119E1,-6.448725743E0,-1.333524422E1,2.099089552E1
9.499064292E0,-1.448188788E1,-6.853099882E0,-1.195582991E1,1.999079597E1
9.509068292E0,-1.395906494E1,-7.146100935E0,-1.004711629E1,1.862436035E1
9.519072292E0,-1.297260224E1,-7.255635656E0,-7.918761367E0,1.684159848E1
9.529077292E0,-1.160600269E1,-7.122220906E0,-5.748809352E0,1.478087068E1
9.539081292E0,-1.017849504E1,-6.551965352E0,-3.964897239E0,1.273775574E1
9.549085292E0,-8.827330386E0,-5.777677640E0,-2.737583338E0,1.089943499E1
9.559089292E0,-7.426764947E0,-5.003899806E0,-1.977190365E0,9.170885049E0
9.569093292E0,-6.275492039E0,-4.061230702E0,-1.631154774E0,7.650886291E0
9.579097292E0,-5.470386577E0,-3.187274567E0,-1.555000929E0,6.519346314E0
9.589101292E0,-4.775605211E0,-2.484099523E0,-1.476716652E0,5.581921500E0
9.599105292E0,-4.004914121E0,-1.639347307E0,-1.249744697E0,4.504293343E0
9.609109292E0,-3.193911742E0,-8.284892084E-1,-1.027162832E0,3.455796589E0
9.619113292E0,-2.540113510E0,-8.781743154E-2,-8.644845217E-1,2.684626982E0
9.629117292E0,-2.578996325E0,5.073604171E-1,-9.477855639E-1,2.794089138E0
9.639121292E0,-3.388750323E0,6.851662052E-1,-1.741225831E0,3.871039767E0
9.649125792E0,-4.590371266E0,5.230100513E-1,-2.842159621E0,5.424289740E0
9.659129792E0,-5.748035765E0,2.093341210E-1,-3.444561996E0,6.704382394E0
9.669133792E0,-6.406688941E0,-1.627192408E-1,-3.344464681E0,7.228940775E0
9.679137792E0,-6.780200306E0,-3.430786541E-1,-2.607795616E0,7.272511060E0
9.689141792E0,-6.767750999E0,-4.178072396E-1,-1.759535509E0,7.005211037E0
9.699146792E0,-6.496128536E0,-2.645691128E-1,-1.140267279E0,6.600749369E0
9.709150792E0,-6.035966697E0,2.179026309E-1,-1.284387257E0,6.174951510E0
9.719154792E0,-5.083848200E0,1.131567937E0,-1.795909722E0,5.509196879E0
9.729158792E0,-3.808534799E0,2.323977323E0,-2.079821425E0,4.922546604E0
9.739162792E0,-1.418406463E0,3.319298265E0,-2.439870599E0,4.356901009E0
9.749166792E0,1.809771717E0,4.231660958E0,-2.389354310E0,5.185676634E0
9.759170792E0,5.113141581E0,4.810870938E0,-1.803311128E0,7.248491363E0
9.769174792E0,9.012122281E0,4.669503390E0,-4.721037532E-1,1.016097888E1
9.779178792E0,1.309382905E1,4.404955473E0,1.863326803E0,1.394001359E1
9.789182792E0,1.689590853E1,4.048316541E0,4.354021547E0,1.791139569E1
9.799186792E0,2.026473739E1,4.498877544E0,6.612986310E0,2.178602920E1
9.809190792E0,2.378848472E1,5.914724096E0,7.814238294E0,2.572816135E1
9.819194792E0,2.680088368E1,7.204397675E0,7.726549355E0,2.880781625E1
9.829198792E0,2.816112614E1,7.579062111E0,6.925572612E0,2.997423500E1
9.839202792E0,2.740052032E1,6.275270430E0,5.906436253E0,2.872374492E1
9.849206792E0,2.484584842E1,4.787641412E0,5.213790874E0,2.583449843E1
9.859210792E0,2.182873192E1,3.778723062E0,4.907505532E0,2.269043622E1
9.869214792E0,1.910500063E1,2.729517104E0,5.304471833E0,2.001471295E1
9.879218792E0,1.623294888E1,1.968479475E0,6.414282719E0,1.756492424E1
9.889222792E0,1.293371592E1,1.708058231E0,7.780829058E0,1.519012084E1
9.899227792E0,9.579893353E0,1.309993969E0,8.816477954E0,1.308513372E1
9.909231792E0,6.056692738E0,4.198923567E-1,9.347194635E0,1.114584605E1
9.919235792E0,2.404628845E0,-3.374983639E-1,8.920756613E0,9.245325499E0
9.929239792E0,-1.321738540E0,-1.121565983E0,7.375205369E0,7.576183555E0
9.939243792E0,-5.204904276E0,-1.948218434E0,5.058734409E0,7.515143206E0
9.949247792E0,-8.613556767E0,-3.000617411E0,1.854277652E0,9.307814492E0
9.959251792E0,-1.145062931E1,-3.796823118E0,-2.236388079E0,1.226923832E1
9.969255792E0,-1.405171408E1,-4.093512010E0,-6.428051743E0,1.598522312E1
9.979259792E0,-1.589508389E1,-4.362218758E0,-9.917979362E0,1.923665665E1
9.989263792E0,-1.641857692E1,-4.581023030E0,-1.226098089E1,2.099731156E1
9.999267792E0,-1.626537169E1,-4.656731901E0,-1.306584662E1,2.137671200E1
1.000927179E1,-1.588897121E1,-4.803547885E0,-1.238818005E1,2.071232685E1
1.001927579E1,-1.525335782E1,-5.095257872E0,-1.049102638E1,1.920125548E1
1.002927979E1,-1.389485082E1,-5.270422327E0,-8.196393013E0,1.697130193E1
1.003928379E1,-1.231687326E1,-4.896406932E0,-5.564378230E0,1.437506427E1
1.004928779E1,-1.078172655E1,-4.252421789E0,-3.048747012E0,1.198430544E1
1.005929179E1,-9.181117923E0,-3.619638743E0,-8.917530119E-1,9.909083428E0
1.006929679E1,-7.730108555E0,-2.972090015E0,8.524926133E-1,8.325541483E0
1.007930079E1,-7.108078830E0,-2.221019550E0,1.948217996E0,7.697614296E0
1.008930479E1,-6.947458740E0,-1.478224210E0,2.571843426E0,7.554251013E0
1.009930879E1,-6.427858200E0,-9.053361670E-1,2.986217473E0,7.145242432E0
1.010931279E1,-5.868893035E0,-8.004854674E-2,3.365820467E0,6.766022513E0
1.011931679E1,-5.702371350E0,7.558933948E-1,3.037597541E0,6.505029797E0
1.012932079E1,-5.884300448E0,1.157822228E0,2.363753884E0,6.446152070E0
1.013932479E1,-5.999856632E0,1.397860371E0,1.662866271E0,6.381020095E0
1.014932879E1,-5.882218255E0,1.614593412E0,1.302007695E0,6.237197089E0
1.015933279E1,-5.926751819E0,1.955468836E0,1.243751886E0,6.363738228E0
1.016933679E1,-5.986361843E0,2.320261856E0,1.297795946E0,6.550146374E0
1.017934079E1,-6.152140932E0,2.414385948E0,1.010397695E0,6.685731154E0
1.018934479E1,-6.307283936E0,2.488386117E0,1.790826372E-1,6.782769840E0
1.019934879E1,-6.461841048E0,2.677382160E0,-7.491914624E-1,7.034561309E0
1.020935279E1,-6.434446258E0,2.954037906E0,-1.562562549E0,7.250520003E0
1.021935679E1,-6.569711652E0,3.351754697E0,-2.298965566E0,7.725322868E0
1.022936179E1,-6.709599270E0,3.648963991E0,-2.848848251E0,8.151662218E0
1.023936579E1,-6.425958440E0,3.871714256E0,-3.194978859E0,8.154201559E0
1.024936979E1,-5.166093382E0,4.296324146E0,-3.184608237E0,7.435633909E0
1.025937379E1,-3.669818963E0,5.154261541E0,-2.823669555E0,6.928715105E0
1.026937779E1,-2.230429766E0,5.920361981E0,-2.833617423E0,6.932163489E0
1.027938179E1,-3.883837581E-1,5.923311902E0,-3.153218045E0,6.721551150E0
1.028938579E1,2.714139512E0,5.595412912E0,-3.317085679E0,7.048280382E0
1.029938979E1,7.066949515E0,5.531419230E0,-2.607974541E0,9.345582130E0
1.030939379E1,1.164843126E1,5.042459854E0,-1.687754944E0,1.280472057E1
1.031939779E1,1.665030208E1,3.031354177E0,-2.973361419E-1,1.692660853E1
1.032940179E1,2.185608519E1,5.639045274E-1,1.506818118E0,2.191522186E1
1.033940579E1,2.673974286E1,-9.165440369E-1,3.336645784E0,2.696269842E1
1.034940979E1,3.117648847E1,-1.876039673E0,4.730947101E0,3.158915666E1
1.035941379E1,3.372636800E1,-2.404931439E0,5.046668680E0,3.418655377E1
1.036941779E1,3.361232625E1,-3.145050069E0,4.571341503E0,3.406724202E1
1.037942179E1,3.143587096E1,-3.688035378E0,4.259128253E0,3.193674625E1
1.038942579E1,2.864677950E1,-3.538118324E0,4.604623854E0,2.922941699E1
1.039943079E1,2.600297965E1,-3.751632327E0,5.365268258E0,2.681446996E1
1.040943479E1,2.307808778E1,-3.959423953E0,6.535426503E0,2.431022363E1
1.041943879E1,1.988203946E1,-3.435691186E0,7.725160056E0,2.160503564E1
1.042944279E1,1.622777292E1,-2.515779445E0,8.156800346E0,1.833584337E1
1.043944679E1,1.177658936E1,-1.774542535E0,7.424571072E0,1.403429064E1
1.044945079E1,6.568011866E0,-1.150647914E0,6.379606392E0,9.228333989E0
1.045945479E1,1.344529232E0,-6.823447043E-1,5.141812234E0,5.358319345E0
1.046945879E1,-2.994389541E0,-3.086911789E-1,3.863178783E0,4.897530937E0
1.047946279E1,-6.374114102E0,-2.799304061E-1,2.349576725E0,6.799132475E0
1.048946679E1,-9.640538920E0,-3.502167157E-1,1.234318719E-1,9.647687694E0
1.049947079E1,-1.247742260E1,-2.672160012E-1,-2.894736030E0,1.281159536E1
1.050947479E1,-1.465553733E1,-7.366323741E-1,-6.062836407E0,1.587719707E1
1.051947879E1,-1.684848761E1,-1.478719469E0,-8.909194914E0,1.911627317E1
1.052948279E1,-1.836312696E1,-2.234180316E0,-1.127575780E1,2.166422645E1
1.053948679E1,-1.869988916E1,-2.815643667E0,-1.211454790E1,2.245831638E1
1.054949079E1,-1.814585261E1,-3.233126386E0,-1.137794374E1,2.166062504E1
1.055949479E1,-1.693792194E1,-3.539023765E0,-9.474557517E0,1.972777557E1
1.056949979E1,-1.537209372E1,-3.547489949E0,-7.192533674E0,1.733835318E1
1.057950379E1,-1.359884839E1,-3.179059814E0,-4.933806308E0,1.481139911E1
1.058950779E1,-1.165337683E1,-2.505370524E0,-2.836584885E0,1.225252166E1
1.059951179E1,-9.730320577E0,-1.717239529E0,-1.050114981E0,9.936336931E0
1.060951579E1,-8.073751758E0,-9.129406902E-1,3.405166966E-1,8.132335444E0
1.061951979E1,-6.841525319E0,-1.125148645E-1,1.307150322E0,6.966187641E0
1.062952379E1,-6.187435310E0,5.156382838E-1,1.823766443E0,6.471194835E0
1.063952779E1,-6.032043800E0,8.669276346E-1,1.937521684E0,6.394615407E0
1.064953179E1,-6.161468410E0,1.030472210E0,1.579841071E0,6.443715059E0
1.065953579E1,-6.283338418E0,1.199790618E0,9.927127185E-1,6.473431682E0
1.066953979E1,-6.513707020E0,1.492572985E0,3.576543009E-1,6.692090097E0
1.067954379E1,-6.910060533E0,1.660816529E0,-3.290788849E-1,7.114459996E0
1.068954779E1,-7.147788441E0,1.730434940E0,-1.042659123E0,7.427814129E0
1.069955179E1,-7.303876355E0,1.625498762E0,-1.542004908E0,7.639805964E0
1.070955679E1,-7.499532377E0,1.358511825E0,-1.572794737E0,7.782173445E0
1.071956079E1,-8.043215843E0,8.167515077E-1,-1.297876638E0,8.188094277E0
1.072956479E1,-8.694348915E0,4.276904958E-1,-1.021696270E0,8.764615535E0
1.073956879E1,-9.283935948E0,3.023343784E-1,-9.728323314E-1,9.339661424E0
1.074957279E1,-9.614766147E0,3.138884034E-1,-8.461079655E-1,9.657026079E0
1.075957679E1,-9.722716858E0,3.311646599E-1,-6.951983462E-1,9.753163275E0
1.076958079E1,-9.483610176E0,5.227383019E-1,-6.625240320E-1,9.521084781E0
1.077958479E1,-8.662513749E0,7.577687430E-1,-6.048254986E-1,8.716603226E0
1.078958879E1,-7.705587087E0,1.173240678E0,-8.712854183E-1,7.842939775E0
1.079959279E1,-6.996249661E0,1.829976039E0,-1.434223766E0,7.372470376E0
1.080959679E1,-6.479435320E0,2.515059653E0,-2.313001807E0,7.325202009E0
1.081960079E1,-6.030412427E0,2.972438801E0,-2.932540618E0,7.334920650E0
1.082960479E1,-5.248611043E0,3.102369196E0,-2.801623213E0,6.709821543E0
1.083960879E1,-3.028537281E0,3.049762089E0,-2.143393376E0,4.802834790E0
1.084961279E1,5.367124164E-1,3.058312472E0,-7.435307729E-1,3.192831565E0
1.085961679E1,4.896344951E0,2.865587367E0,3.588629204E-1,5.684590349E0
1.086962079E1,1.060872966E1,2.048628429E0,6.238938171E-1,1.082271994E1
1.087962579E1,1.653742275E1,4.233878222E-1,1.248621447E0,1.658989645E1
1.088962979E1,2.125847169E1,-8.755511083E-1,3.380470666E0,2.154336998E1
1.089963379E1,2.499651245E1,-4.002393167E-1,5.450671520E0,2.558702105E1
1.090963779E1,2.913462907E1,7.772268880E-2,5.056558660E0,2.957027963E1
1.091964179E1,3.217709676E1,-9.027425614E-1,3.086191996E0,3.233736354E1
1.092964579E1,3.238091666E1,-2.615757769E0,1.558420966E0,3.252375483E1
1.093964979E1,3.024200985E1,-3.650868722E0,1.645460279E0,3.050599190E1
1.094965379E1,2.740764691E1,-3.507100014E0,2.641431724E0,2.775708957E1
1.095965779E1,2.528046494E1,-3.200901211E0,3.374143978E0,2.570471793E1
1.096966179E1,2.374601054E1,-3.127759268E0,4.285148363E0,2.433142805E1
1.097966579E1,2.158822658E1,-2.961167416E0,5.487224804E0,2.247064030E1
1.098966979E1,1.850519091E1,-2.385811775E0,6.422630789E0,1.973282481E1
1.099967379E1,1.484783120E1,-1.617562482E0,6.405490846E0,1.625130495E1
1.100967779E1,1.079547920E1,-7.894494691E-1,5.475441495E0,1.213037762E1
1.101968179E1,6.658556001E0,5.763360641E-2,4.212697853E0,7.879499530E0
1.102968579E1,2.679254438E0,9.079995737E-1,2.781674852E0,3.967440303E0
1.103969079E1,-9.349002010E-1,1.519955496E0,8.331147945E-1,1.969361154E0
1.104969479E1,-3.968878900E0,2.120981730E0,-1.834270965E0,4.859538373E0
1.105969879E1,-7.640440333E0,2.639636336E0,-4.315628144E0,9.163441207E0
1.106970279E1,-1.181027400E1,2.491169684E0,-6.720303183E0,1.381488231E1
1.107970679E1,-1.534050239E1,1.384455336E0,-9.275345803E0,1.797998248E1
1.108971079E1,-1.804583833E1,-1.166862864E-1,-1.106923414E1,2.117058906E1
1.109971479E1,-1.937162899E1,-1.405193364E0,-1.122850645E1,2.243465924E1
1.110971879E1,-1.942963103E1,-2.397833504E0,-9.997990322E0,2.198226508E1
1.111972279E1,-1.845036391E1,-2.983095936E0,-8.007528532E0,2.033310854E1
1.112972679E1,-1.668266993E1,-3.303295313E0,-5.944676458E0,1.801561584E1
1.113973079E1,-1.472354746E1,-3.241264248E0,-3.876458395E0,1.556648880E1
1.114973479E1,-1.256303168E1,-2.672374312E0,-1.745517249E0,1.296218269E1
1.115973879E1,-1.036537556E1,-1.651372545E0,2.041672289E-1,1.049808202E1
1.116974279E1,-8.442715158E0,-5.589419223E-1,1.609002889E0,8.612824485E0
1.117974779E1,-6.916374941E0,3.930343045E-1,2.452790022E0,7.348938507E0
1.118975179E1,-5.997501374E0,1.141360269E0,2.516555078E0,6.603466927E0
1.119975579E1,-5.517547295E0,1.724226513E0,2.002748544E0,6.117784481E0
1.120975979E1,-5.442825142E0,2.266485452E0,1.272270511E0,6.031581391E0
1.121976379E1,-5.653032544E0,2.581396899E0,4.754236561E-1,6.232689191E0
1.122976779E1,-6.054705269E0,2.523410354E0,-2.111002725E-1,6.562897153E0
1.123977179E1,-6.506987400E0,2.281802233E0,-7.221884358E-1,6.933185602E0
1.124977579E1,-7.041011267E0,2.076674015E0,-1.190304242E0,7.436749210E0
1.125977979E1,-7.558696843E0,1.831843055E0,-1.647611470E0,7.950105062E0
1.126978379E1,-7.882459513E0,1.559937295E0,-1.887808657E0,8.254113754E0
1.127978779E1,-8.043588311E0,1.406009781E0,-1.838392668E0,8.369938114E0
1.128979179E1,-7.993792838E0,1.433865332E0,-1.556983135E0,8.269273862E0
1.129979579E1,-7.882140255E0,1.548669564E0,-1.308823795E0,8.138767237E0
1.130979979E1,-7.833841669E0,1.753020396E0,-1.304917855E0,8.132955577E0
1.131980379E1,-7.620504836E0,2.036504813E0,-1.558219821E0,8.040366585E0
1.132980879E1,-7.145088197E0,2.511872043E0,-1.652036642E0,7.751839238E0
1.133981279E1,-6.709375321E0,2.876519906E0,-1.210254942E0,7.399648708E0
1.134981679E1,-6.308560967E0,2.978955523E0,-8.534256828E-1,7.028545574E0
1.135982079E1,-5.350894048E0,3.086964414E0,-4.692098200E-1,6.195286455E0
1.136982479E1,-4.147754583E0,3.398130719E0,-1.699820673E-1,5.364704499E0
1.137982879E1,-2.601979390E0,3.470938786E0,-5.739217579E-1,4.375739822E0
1.138983279E1,-6.023076510E-1,3.140395393E0,-1.483450305E0,3.524979793E0
1.139983679E1,2.043252792E0,2.595202760E0,-2.081399442E0,3.904123842E0
1.140984079E1,6.281622845E0,1.572268342E0,-1.673163217E0,6.688070608E0
1.141984479E1,1.123275738E1,2.853762835E-2,-5.401692903E-1,1.124577412E1
1.142984879E1,1.624020761E1,-1.869819405E0,3.216986024E-1,1.635065925E1
1.143985279E1,2.071763932E1,-2.975662664E0,1.051359780E0,2.095663391E1
1.144985679E1,2.477161685E1,-2.493405659E0,1.871751033E0,2.496704878E1
1.145986079E1,2.884954456E1,-1.955060992E0,2.487272222E0,2.902249142E1
1.146986479E1,3.197690681E1,-2.325381678E0,2.453069519E0,3.215505433E1
1.147986979E1,3.240109190E1,-2.954980769E0,2.699555386E0,3.264736232E1
1.148987379E1,3.035634865E1,-2.931561209E0,3.409983902E0,3.068761875E1
1.149987779E1,2.743653216E1,-3.022693573E0,3.871287117E0,2.787268981E1
1.150988179E1,2.488591822E1,-3.215821551E0,4.614703869E0,2.551364195E1
1.151988579E1,2.216350373E1,-2.589550256E0,5.704918397E0,2.303199431E1
1.152988979E1,1.888476876E1,-1.554435796E0,6.317259870E0,1.997394639E1
1.153989379E1,1.459348784E1,-6.196942006E-1,6.056761735E0,1.581259849E1
1.154989779E1,9.537187044E0,1.476704446E-1,5.107915340E0,1.081991416E1
1.155990179E1,4.595389931E0,7.344814758E-1,3.692268178E0,5.940531622E0
1.156990579E1,-1.047669017E-1,1.206536478E0,2.171649461E0,2.486517195E0
1.157990979E1,-4.765939178E0,1.108769717E0,3.276557457E-1,4.904172185E0
1.158991379E1,-9.279137138E0,4.669338279E-1,-2.074857431E0,9.519739838E0
1.159991779E1,-1.326184061E1,-1.502264087E-1,-4.261247284E0,1.393044194E1
1.160992179E1,-1.618768558E1,-6.981856155E-1,-6.332235759E0,1.739614432E1
1.161992579E1,-1.768950667E1,-1.666339663E0,-7.907624760E0,1.944802981E1
1.162993079E1,-1.843121194E1,-2.510359368E0,-8.804771828E0,2.057997776E1
1.163993479E1,-1.897207471E1,-2.802725706E0,-9.330879149E0,2.132745170E1
1.164993842E1,-1.910743775E1,-2.875483780E0,-9.541882358E0,2.155017641E1
1.165994242E1,-1.836649613E1,-2.720099578E0,-8.920493488E0,2.059860009E1
1.166994642E1,-1.650390768E1,-2.228805117E0,-7.255722780E0,1.816568342E1
1.167995042E1,-1.400920131E1,-1.366865158E0,-5.153589696E0,1.498951395E1
1.168995442E1,-1.134374338E1,-3.029889376E-1,-2.972615095E0,1.173067588E1
1.169995842E1,-8.800585222E0,6.145352022E-1,-1.144902366E0,8.895996582E0
1.170996242E1,-7.041468519E0,1.412071151E0,2.483862126E-1,7.185952933E0
1.171996642E1,-6.169799523E0,2.130670420E0,1.117580667E0,6.622323546E0
1.172997042E1,-5.780266203E0,2.612035432E0,1.217733457E0,6.458876160E0
1.173997442E1,-5.474733397E0,3.013744702E0,9.774316782E-1,6.325403986E0
1.174997842E1,-5.543077993E0,3.380048497E0,5.611455186E-1,6.516542470E0
1.175998242E1,-5.746759903E0,3.636586897E0,1.276322924E-2,6.800748234E0
1.176998742E1,-5.638550161E0,3.758233834E0,-3.381327868E-1,6.784681514E0
1.177999142E1,-5.597902656E0,3.904910361E0,-3.679016194E-1,6.835216945E0
1.178999542E1,-5.799076111E0,4.048327943E0,-4.929823331E-1,7.089518633E0
1.179999942E1,-5.867077475E0,4.057937842E0,-5.857407349E-1,7.157691655E0
1.181000342E1,-6.021967878E0,4.070660214E0,-4.728964895E-1,7.284092448E0
1.182000742E1,-6.196762204E0,4.142725393E0,-4.179712540E-1,7.465703950E0
1.183001142E1,-6.401625836E0,4.153302421E0,-4.179969086E-1,7.642346221E0
1.184001542E1,-6.562981507E0,4.292078191E0,-5.598521145E-1,7.861812504E0
1.185001942E1,-6.638861994E0,4.463793080E0,-6.390468033E-1,8.025479304E0
1.186002342E1,-6.628944531E0,4.427093031E0,-4.846558249E-1,7.986047181E0
1.187002742E1,-6.373817648E0,4.406816057E0,-4.923087338E-1,7.764531349E0
1.188003142E1,-5.555198101E0,4.611166596E0,-7.956348000E-1,7.263340695E0
1.189003542E1,-4.829923505E0,4.727805685E0,-1.346471677E0,6.891537828E0
1.190003942E1,-3.690359647E0,4.915950665E0,-1.813789923E0,6.408990494E0
1.191004342E1,-1.749963471E0,4.918076128E0,-2.414441789E0,5.751467127E0
1.192004842E1,1.124836476E0,4.232525761E0,-2.753602370E0,5.173186390E0
1.193005242E1,4.940579138E0,2.928831144E0,-2.288945777E0,6.182770160E0
1.194005642E1,8.946578502E0,1.690761436E0,-1.350774059E0,9.204592967E0
1.195006042E1,1.357517653E1,1.227853891E-1,-3.513363113E-1,1.358027729E1
1.196006442E1,1.954911070E1,-2.788822781E0,9.502193213E-1,1.976988058E1
1.197006842E1,2.560025150E1,-5.670665992E0,2.509749504E0,2.634061830E1
1.198007242E1,3.084808545E1,-6.938309602E0,3.524150788E0,3.181452742E1
1.199007642E1,3.447685813E1,-6.171764188E0,3.597109421E0,3.520914108E1
1.200008042E1,3.606227452E1,-5.250743523E0,2.625470579E0,3.653698191E1
1.201008442E1,3.479495134E1,-5.319841239E0,1.737714724E0,3.524214809E1
1.202008842E1,3.186337259E1,-5.285398216E0,2.070632379E0,3.236506551E1
1.203009242E1,2.896977033E1,-5.175754151E0,3.051226231E0,2.958624690E1
1.204009642E1,2.580985080E1,-4.652595873E0,3.923173555E0,2.651766085E1
1.205010042E1,2.161231009E1,-3.084467068E0,4.529003568E0,2.229613774E1
1.206010442E1,1.658092370E1,-1.046643050E0,4.590130945E0,1.723635096E1
1.207010942E1,1.081284777E1,5.686302470E-1,4.176680174E0,1.160541574E1
1.208011342E1,4.530943674E0,1.269469841E0,3.552793373E0,5.896044862E0
1.209011742E1,-9.695449537E-1,1.445963660E0,2.151252473E0,2.767438441E0
1.210012142E1,-6.048617148E0,1.722658436E0,3.796345693E-1,6.300590758E0
1.211012542E1,-1.092882612E1,1.998421020E0,-1.697612180E0,1.123898635E1
1.212012942E1,-1.461193464E1,1.910083332E0,-3.887193882E0,1.524031917E1
1.213013342E1,-1.712157012E1,1.656363290E0,-6.065051917E0,1.823942317E1
1.214013742E1,-1.861895902E1,1.355840671E0,-7.654908099E0,2.017675784E1
1.215014142E1,-1.932916651E1,7.039761132E-1,-8.513779294E0,2.113283460E1
1.216014542E1,-1.983221183E1,-8.604375176E-2,-9.097881639E0,2.181961228E1
1.217014942E1,-1.987676761E1,-8.630670105E-1,-8.918173898E0,2.180285763E1
1.218015342E1,-1.908944470E1,-1.458274095E0,-7.778752711E0,2.066500559E1
1.219015742E1,-1.774925118E1,-1.744484776E0,-5.924069701E0,1.879291745E1
1.220016142E1,-1.567034382E1,-1.682785542E0,-3.847521694E0,1.622328160E1
1.221016642E1,-1.289347772E1,-1.088913669E0,-1.705475662E0,1.305128913E1
1.222017042E1,-1.017821554E1,-2.360274279E-1,1.898567533E-1,1.018272194E1
1.223017442E1,-8.103666113E0,4.190813844E-1,1.640953245E0,8.278753604E0
1.224017842E1,-6.827354591E0,8.245083509E-1,2.288909524E0,7.247874968E0
1.225018242E1,-6.396618866E0,1.216192643E0,1.947890406E0,6.796332429E0
1.226018642E1,-6.427484563E0,1.517593659E0,1.049887451E0,6.687145279E0
1.227019042E1,-6.770709690E0,1.574579454E0,1.516264149E-1,6.953042552E0
1.228019442E1,-6.987954217E0,1.639705449E0,-5.630722493E-1,7.199804751E0
1.229019842E1,-7.115961462E0,1.742728419E0,-8.910146548E-1,7.380238274E0
1.230020242E1,-6.932500393E0,1.760435835E0,-8.982024908E-1,7.208707494E0
1.231020642E1,-6.514569485E0,1.782181630E0,-8.173173720E-1,6.803219430E0
1.232021042E1,-6.237506188E0,1.884055329E0,-9.649659991E-1,6.586904227E0
1.233021442E1,-6.170093638E0,1.934784603E0,-1.001258424E0,6.543390971E0
1.234021842E1,-6.343011593E0,1.985978145E0,-1.181781852E0,6.750889838E0
1.235022242E1,-6.695233245E0,2.124587269E0,-1.900797662E0,7.276884706E0
1.236022742E1,-6.961483287E0,2.244334445E0,-2.677985592E0,7.789152296E0
1.237023142E1,-7.251665397E0,2.366753798E0,-2.878606485E0,8.153192618E0
1.238023542E1,-7.319204246E0,2.228308396E0,-2.520815359E0,8.055471381E0
1.239023942E1,-7.152028257E0,1.898326190E0,-1.891165543E0,7.637516457E0
1.240024342E1,-6.578815767E0,1.788377339E0,-9.727772945E-1,6.886610637E0
1.241024742E1,-5.713661154E0,2.016552212E0,-8.522444721E-2,6.059675719E0
1.242025142E1,-4.495255778E0,2.208047209E0,3.207783238E-1,5.018535217E0
1.243025542E1,-3.001303289E0,2.467105760E0,4.871543401E-1,3.915578069E0
1.244025942E1,-1.141862984E0,2.604108362E0,1.862145958E-1,2.849545105E0
1.245026342E1,2.170734957E0,2.224306708E0,-7.503486264E-1,3.197288483E0
1.246026742E1,6.464203323E0,2.078136988E0,-7.604029137E-1,6.832480555E0
1.247027142E1,1.077720197E1,2.657048175E0,-6.500879545E-2,1.110009971E1
1.248027542E1,1.624078298E1,1.904838380E0,-9.936875224E-2,1.635241007E1
1.249028042E1,2.189308403E1,-8.645317380E-1,-1.721016465E-1,2.191082296E1
1.250028442E1,2.707904976E1,-3.331476261E0,8.316757947E-1,2.729588531E1
1.251028842E1,3.164790971E1,-4.136967639E0,2.829749490E0,3.204234967E1
1.252029242E1,3.474203871E1,-3.680925749E0,5.085205339E0,3.530464250E1
1.253029642E1,3.536374275E1,-2.819870034E0,6.541025797E0,3.607396550E1
1.254030042E1,3.360095926E1,-2.439340256E0,7.564675037E0,3.452823703E1
1.255030442E1,3.030326061E1,-2.710896061E0,8.413876106E0,3.156627745E1
1.256030842E1,2.700755937E1,-2.826575329E0,9.091117580E0,2.863644897E1
1.257031242E1,2.407885745E1,-2.010006693E0,9.679557390E0,2.602931682E1
1.258031642E1,2.068914233E1,-9.297904654E-1,9.416909818E0,2.275045739E1
1.259032042E1,1.602865886E1,-2.683812051E-1,8.189877461E0,1.800177841E1
1.260032442E1,1.018539358E1,-2.177941650E-3,6.372893203E0,1.201482480E1
1.261032842E1,4.544225625E0,4.801426515E-2,4.393722679E0,6.321162146E0
1.262033242E1,1.485292178E-1,1.358856373E-1,2.556273752E0,2.564188240E0
1.263033642E1,-3.275335974E0,2.716436590E-1,8.621868584E-1,3.397790782E0
1.264034142E1,-6.078701073E0,4.937374279E-1,-1.069764183E0,6.191831618E0
1.265034508E1,-8.199392050E0,3.199834679E-1,-3.300524317E0,8.844539568E0
1.266034908E1,-9.472956550E0,-6.040685400E-1,-6.097401638E0,1.128184875E1
1.267035308E1,-1.122673591E1,-1.440332206E0,-9.019240097E0,1.447276228E1
1.268035708E1,-1.317040419E1,-2.155035621E0,-1.147865852E1,1.760293517E1
1.269036108E1,-1.423510147E1,-2.952472606E0,-1.346206448E1,1.981369194E1
1.270036508E1,-1.503350018E1,-3.444158539E0,-1.426313770E1,2.100727142E1
1.271036908E1,-1.543591491E1,-3.635329454E0,-1.387585673E1,2.107184115E1
1.272037308E1,-1.498135588E1,-3.820979720E0,-1.254286463E1,1.990890161E1
1.273037708E1,-1.407065204E1,-3.948558949E0,-1.066369349E1,1.809112283E1
1.274038108E1,-1.307699960E1,-3.898972514E0,-8.771094790E0,1.622165247E1
1.275038508E1,-1.203915040E1,-3.796641270E0,-7.100939380E0,1.448374838E1
1.276038908E1,-1.086396998E1,-3.671583652E0,-5.676582790E0,1.279570093E1
1.277039308E1,-9.558580837E0,-3.347770112E0,-4.512285794E0,1.108759466E1
1.278039808E1,-8.219757317E0,-2.831826713E0,-3.544754621E0,9.388766597E0
1.279040208E1,-7.094978144E0,-2.322498562E0,-2.690103947E0,7.935324421E0
1.280040608E1,-6.311568190E0,-2.023108549E0,-2.082489363E0,6.947346484E0
1.281041008E1,-5.654283264E0,-1.883132931E0,-1.688037364E0,6.194076122E0
1.282041408E1,-5.069106200E0,-1.624001582E0,-1.624675182E0,5.565320139E0
1.283041808E1,-4.412731685E0,-1.176425583E0,-1.963020807E0,4.970878068E0
1.284042208E1,-3.575178269E0,-8.014035898E-1,-2.394906095E0,4.377182036E0
1.285042608E1,-2.942477961E0,-6.043994924E-1,-2.786695856E0,4.097456417E0
1.286043008E1,-2.377386668E0,-3.668969947E-1,-2.983177213E0,3.832222209E0
1.287043408E1,-1.712463523E0,7.483149648E-2,-2.802460535E0,3.285105191E0
1.288043808E1,-9.317263323E-1,5.122669619E-1,-2.468799114E0,2.688029104E0
1.289044208E1,-1.462470496E-1,7.252015060E-1,-1.622690052E0,1.783375571E0
1.290044608E1,5.918341184E-1,6.137579611E-1,-4.342200816E-1,9.568247163E-1
1.291045108E1,1.270371335E0,3.411712924E-1,8.209958553E-1,1.550572596E0
1.292045508E1,1.957206336E0,-5.651538581E-2,1.786459453E0,2.650525986E0
1.293045908E1,2.638923853E0,-7.389155656E-1,2.445682731E0,3.673047691E0
1.294046308E1,3.153905677E0,-1.398693745E0,2.829029113E0,4.461711660E0
1.295046708E1,3.501617373E0,-1.468227080E0,2.853061754E0,4.749418528E0
1.296047108E1,3.569587162E0,-9.660550430E-1,2.599624717E0,4.520316750E0
1.297047508E1,3.791554484E0,-3.379161474E-1,2.168447526E0,4.380894589E0
1.298047908E1,4.265272508E0,3.198231080E-1,2.064786918E0,4.749545389E0
1.299048308E1,4.840902237E0,9.019756991E-1,2.357892635E0,5.459629320E0
1.300048708E1,5.762191874E0,1.494756189E0,3.003234040E0,6.667575718E0
1.301049108E1,6.575592781E0,1.920762687E0,3.571009204E0,7.725273876E0
1.302049508E1,6.506237787E0,1.916267055E0,3.583429860E0,7.670995967E0
1.303049908E1,5.676035491E0,1.338870882E0,2.616010369E0,6.391671486E0
1.304050308E1,3.966022536E0,4.319098467E-1,7.073990732E-1,4.051702644E0
1.305050808E1,1.785746677E0,3.713642675E-1,-1.195446868E0,2.180801648E0
1.306051208E1,6.440129167E-1,1.329821146E0,-1.448823679E0,2.069363905E0
1.307051608E1,1.621175623E0,2.673743730E0,7.853588301E-1,3.223957882E0
1.308052008E1,3.866135720E0,3.456156440E0,3.921869625E0,6.501775458E0
1.309052408E1,6.082903467E0,3.555134599E0,6.665538746E0,9.698974346E0
1.310052808E1,7.384970219E0,3.209132629E0,8.359418648E0,1.160673070E1
1.311053208E1,7.117341405E0,2.502028840E0,8.257102314E0,1.118465179E1
1.312053608E1,5.364549635E0,1.420285466E0,6.379093591E0,8.455083597E0
1.313054008E1,2.785404791E0,3.030342901E-1,3.274275874E0,4.309430604E0
1.314054408E1,-1.966827929E-2,-3.991888279E-1,-3.298975682E-1,5.182383303E-1
1.315054808E1,-2.292797338E0,-6.352283522E-1,-3.328374898E0,4.091272926E0
1.316055208E1,-3.583264384E0,-5.919314745E-1,-5.174986412E0,6.322234643E0
1.317055608E1,-4.001910406E0,-3.345379186E-1,-5.917454161E0,7.151466022E0
1.318056108E1,-3.709519218E0,1.724069077E-1,-5.489750801E0,6.627791550E0
1.319056508E1,-2.775849564E0,5.324661684E-1,-4.902390972E0,5.658824813E0
1.320056908E1,-2.341562239E0,5.772722125E-1,-4.110211365E0,4.765500435E0
1.321057308E1,-1.814359442E0,1.042182867E0,-3.525348297E0,4.099527525E0
1.322057708E1,-1.475289347E0,1.279364060E0,-2.984896587E0,3.566911646E0
1.323058108E1,-1.410738717E0,1.112975984E0,-2.523019175E0,3.097503031E0
1.324058508E1,-7.445382482E-1,1.076848378E0,-2.500677549E0,2.822645538E0
1.325058908E1,-2.770121339E-1,8.655911073E-1,-2.739912869E0,2.886712008E0
1.326059308E1,-6.096868372E-1,6.864800745E-1,-2.315454714E0,2.490843926E0
1.327059708E1,-1.291617193E0,8.429156050E-1,-1.679790452E0,2.280455580E0
1.328060108E1,-1.300955343E0,8.456740290E-1,-1.724524575E0,2.319834989E0
1.329060508E1,-6.146674955E-1,6.406997381E-1,-1.214842667E0,1.504710932E0
1.330060908E1,1.424040109E0,2.617126018E-1,6.379616332E-1,1.582206928E0
1.331061408E1,3.523820420E0,-6.491950846E-1,3.565447333E0,5.054817434E0
1.332061808E1,3.093336124E0,-1.907987690E0,7.044020244E0,7.926371591E0
1.333062208E1,2.435946679E0,-2.582362859E0,8.940291576E0,9.619316380E0
1.334062608E1,2.284484059E0,-2.308340553E0,8.076375403E0,8.704891911E0
1.335063008E1,1.214340830E0,-1.787838518E0,5.712164267E0,6.107357107E0
1.336063408E1,1.294573545E-2,-1.415281126E0,2.886461050E0,3.214785475E0
1.337063808E1,-5.446455532E-1,-1.314427912E0,2.063932639E-1,1.437691794E0
1.338064208E1,-7.163833932E-1,-1.610112545E0,-1.672369165E0,2.429503282E0
1.339064608E1,-6.277245473E-1,-2.067760227E0,-2.658509687E0,3.425980767E0
1.340065008E1,-5.329036132E-1,-2.208437365E0,-2.721514020E0,3.545112187E0
1.341065408E1,-3.348777880E-1,-1.912528053E0,-2.289721702E0,3.002121277E0
1.342065808E1,-5.301495016E-2,-1.435495536E0,-1.965470206E0,2.434446785E0
1.343066208E1,4.035545053E-1,-9.751766995E-1,-2.070808380E0,2.324236043E0
1.344066708E1,8.713909605E-1,-5.474246617E-1,-2.446327679E0,2.653962147E0
1.345067108E1,1.164116317E0,-2.625053380E-1,-2.834009771E0,3.075010120E0
1.346067508E1,1.414970493E0,-8.480611548E-2,-3.214135507E0,3.512833704E0
1.347067908E1,1.601611132E0,4.635555625E-2,-3.260353069E0,3.632796332E0
1.348068308E1,1.696299188E0,2.137891147E-1,-2.902385942E0,3.368527998E0
1.349068708E1,1.728573187E0,4.054014945E-1,-2.205628216E0,2.831450417E0
1.350069108E1,1.879112970E0,5.942696299E-1,-1.329863246E0,2.377552986E0
1.351069508E1,1.937467597E0,6.523152320E-1,-5.098041147E-1,2.106939982E0
1.352069908E1,1.843829847E0,6.532579494E-1,2.490796924E-1,1.971926760E0
1.353070308E1,1.531760001E0,5.944253120E-1,7.797355628E-1,1.818685707E0
1.354070708E1,1.324063539E0,2.856331225E-1,9.803851068E-1,1.672090157E0
1.355071108E1,1.217798288E0,-7.473911047E-2,1.056932176E0,1.614225582E0
1.356071508E1,1.072801666E0,-4.535318269E-1,7.895167851E-1,1.407100311E0
1.357072008E1,6.434326536E-1,-8.414519008E-1,9.967456162E-2,1.063946380E0
1.358072408E1,2.059409453E-1,-1.082392123E0,-6.044974333E-1,1.256742427E0
1.359072808E1,-9.288898663E-2,-1.158580466E0,-1.041180947E0,1.560446995E0
1.360073208E1,-3.235235550E-1,-1.071199090E0,-1.348170294E0,1.752055399E0
1.361073608E1,-3.856683111E-1,-8.575818837E-1,-1.495241801E0,1.766333710E0
1.362074008E1,-2.695405435E-1,-5.253255486E-1,-1.462128434E0,1.576844505E0
1.363074408E1,-4.569770794E-2,-1.596471137E-1,-1.311452703E0,1.321924231E0
1.364074808E1,3.291079018E-1,1.587080508E-1,-1.206739011E0,1.260840710E0
1.365075208E1,6.918398517E-1,3.847122914E-1,-1.133534210E0,1.382586609E0
1.366075654E1,1.007495649E0,5.141222835E-1,-9.993271619E-1,1.509312420E0
1.367076054E1,1.253558544E0,5.141336855E-1,-8.847281671E-1,1.618173785E0
1.368076454E1,1.342843042E0,3.727690610E-1,-8.356010306E-1,1.624934857E0
1.369076954E1,1.136843441E0,2.361696249E-1,-7.572009784E-1,1.386197109E0
1.370077354E1,8.289263608E-1,9.086690068E-2,-7.212487882E-1,1.102531414E0
1.371077754E1,5.339405438E-1,-6.262718797E-2,-7.002707326E-1,8.828328086E-1
1.372078154E1,2.836614231E-1,-1.582645395E-1,-7.219516236E-1,7.916600370E-1
1.373078554E1,6.934723760E-2,-2.224160966E-1,-8.258326721E-1,8.580661756E-1
1.374078954E1,-3.705126571E-2,-1.869866475E-1,-9.909527797E-1,1.009120515E0
1.375079354E1,-6.835693854E-2,-7.553433180E-2,-1.193455891E0,1.197795922E0
1.376079754E1,1.652493493E-2,7.821732670E-2,-1.259438796E0,1.261973496E0
1.377080154E1,1.852546292E-1,2.382181969E-1,-1.195138135E0,1.232648510E0
1.378080554E1,3.711428407E-1,3.443021840E-1,-1.024060299E0,1.142361807E0
1.379080954E1,4.426456270E-1,3.624610046E-1,-8.238522202E-1,1.003018251E0
1.380081354E1,4.170677861E-1,2.866591626E-1,-6.492689788E-1,8.232066694E-1
1.381081754E1,2.926695156E-1,1.570793089E-1,-5.580278563E-1,6.494031438E-1
1.382082254E1,1.009109919E-1,-2.707260847E-2,-5.045012748E-1,5.152062604E-1
1.383082654E1,-8.660946074E-2,-1.807482532E-1,-4.295452327E-1,4.740044690E-1
1.384083054E1,-2.266906854E-1,-3.226794729E-1,-3.955553681E-1,5.585470063E-1
1.385083454E1,-1.939823843E-1,-3.839270103E-1,-2.884367162E-1,5.179042903E-1
1.386083854E1,-6.030860251E-2,-3.846792546E-1,-1.463154620E-1,4.159609006E-1
1.387084254E1,1.036956918E-1,-2.873456258E-1,-9.448632717E-2,3.197623667E-1
1.388084654E1,2.619635387E-1,-1.250096700E-1,-4.332260549E-2,2.934777016E-1
1.389085054E1,3.908428777E-1,3.086920559E-2,5.226065934E-2,3.955277985E-1
1.390085454E1,4.513252704E-1,1.298146194E-1,2.245897990E-1,5.205640335E-1
1.391085854E1,4.184934834E-1,1.598008955E-1,3.012666768E-1,5.398469528E-1
1.392086254E1,3.475276543E-1,1.255683714E-1,2.108453339E-1,4.254393509E-1
1.393086654E1,2.609107110E-1,1.185037655E-1,-1.059573948E-2,2.867574083E-1
1.394087154E1,2.081890718E-1,1.256958407E-1,-6.334347188E-2,2.513056494E-1
1.395087554E1,1.647706633E-1,1.167890695E-1,1.173366612E-1,2.335742929E-1
1.396087954E1,1.910875740E-1,4.987294883E-2,2.729462725E-1,3.368997471E-1
1.397088354E1,2.098466660E-1,6.198048592E-3,3.785037178E-1,4.328268747E-1
1.398088754E1,2.516775372E-1,-2.434371293E-2,2.336769569E-1,3.442951049E-1
1.399089154E1,4.034977507E-1,1.876956224E-2,-1.204374397E-1,4.215067119E-1
1.400089554E1,6.046478529E-1,1.193030798E-1,-6.458027494E-1,8.926888831E-1
1.401089954E1,6.864207253E-1,2.218038931E-1,-9.753126472E-1,1.213097333E0
1.402090354E1,6.324714632E-1,2.745019242E-1,-1.155006940E0,1.345144040E0
1.403090754E1,8.198616417E-1,4.121591216E-1,-9.027972329E-1,1.287280504E0
1.404091154E1,9.638171674E-1,5.807893127E-1,-5.154320598E-1,1.237711584E0
1.405091554E1,1.092910387E0,6.190803891E-1,-4.461250126E-1,1.332944548E0
1.406092054E1,1.089512423E0,4.825708540E-1,-5.413843417E-1,1.308819680E0
1.407092454E1,7.194897996E-1,2.781653510E-1,-3.617993921E-1,8.520213227E-1
1.408092854E1,2.282587807E-1,1.092479154E-1,1.453769839E-1,2.918418158E-1
1.409093254E1,1.024747932E-1,8.171746999E-2,5.456551480E-1,5.611758804E-1
1.410093654E1,5.186877894E-1,3.381196305E-2,4.482832199E-1,6.863950153E-1
1.411094054E1,9.426220340E-1,-1.371552140E-1,4.585386515E-3,9.525591201E-1
1.412094454E1,9.573438612E-1,-5.304427394E-1,-5.690744162E-1,1.233581152E0
1.413094854E1,8.144586682E-1,-6.824301468E-1,-7.332572150E-1,1.291015093E0
1.414095254E1,7.778314170E-1,-6.351514614E-1,-8.787353557E-1,1.334396837E0
1.415095654E1,6.356917441E-1,-5.882208315E-1,-1.298975329E0,1.561231772E0
1.416096054E1,2.414227635E-1,-6.157688186E-1,-2.015874959E0,2.121605062E0
1.417096454E1,3.601963779E-1,-8.870708540E-1,-3.111600487E0,3.255563503E0
1.418096854E1,6.889296193E-1,-1.435199959E0,-4.518550501E0,4.790795505E0
1.419097354E1,4.738807221E-1,-1.892613314E0,-5.250716041E0,5.601479004E0
1.420097754E1,8.129047707E-2,-2.219169198E0,-5.068193450E0,5.533344822E0
1.421098154E1,-4.285726945E-1,-2.361918736E0,-3.901391507E0,4.580741246E0
1.422098554E1,-1.095555740E0,-2.266971940E0,-2.019937019E0,3.227932732E0
1.423098954E1,-2.132921452E0,-2.004890964E0,-1.645966063E0,3.358295100E0
1.424099354E1,-2.928450198E0,-1.975731192E0,9.904317927E-1,3.668826712E0
1.425099754E1,-1.919530679E0,-2.290241812E0,-2.387184847E0,3.824716601E0
1.426100154E1,-2.332963762E-1,-2.561419594E0,-4.481938160E0,5.167501060E0
1.427100554E1,8.473654823E-1,-2.151329802E0,-4.779659670E0,5.309556925E0
1.428100954E1,1.685280987E0,-1.519189949E0,-4.481761574E0,5.023375052E0
1.429101354E1,2.233770427E0,-1.176884297E0,-4.353499390E0,5.032667673E0
1.430101854E1,1.805778214E0,-7.330753666E-1,-3.324827977E0,3.853922097E0
1.431102254E1,2.466404094E0,-3.769270161E-1,-3.303801389E0,4.140087771E0
1.432102654E1,2.954790443E0,-2.228370962E-1,-4.014766095E0,4.989868708E0
1.433103054E1,2.988405793E0,-4.489214435E-1,-3.863236670E0,4.904762708E0
1.434103454E1,3.986617014E0,-8.429267147E-1,-4.242274239E0,5.882221636E0
1.435103854E1,3.610559771E0,-6.948404235E-1,-4.352858536E0,5.697922648E0
1.436104254E1,3.428308491E0,3.112589836E-2,-4.014442159E0,5.279205791E0
1.437104654E1,3.457557726E0,7.291983703E-1,-3.561146121E0,5.016791543E0
1.438105054E1,3.500693220E0,4.286919777E-1,-3.287640270E0,4.821535894E0
1.439105454E1,2.959396294E0,-6.267688930E-1,-3.091854440E0,4.325555404E0
1.440105854E1,3.501657718E-1,-1.804234257E0,-3.037918553E0,3.550609308E0
1.441106254E1,-4.209299451E-1,-3.519427114E0,-2.086590600E-1,3.550646115E0
1.442106754E1,9.698484242E-1,-4.995948762E0,-1.427901757E0,5.285736791E0
1.443107154E1,1.952652524E0,-5.652566521E0,-1.808943751E0,6.247930669E0
1.444107554E1,1.131718649E0,-5.822563791E0,-7.642749399E-1,5.980564554E0
1.445107954E1,1.490880947E0,-5.272813253E0,-4.148453325E-1,5.495214487E0
1.446108354E1,2.375367624E0,-4.607557402E0,9.442610085E-2,5.184676736E0
1.447108754E1,2.991846587E0,-4.239359402E0,4.152745181E-1,5.205359456E0
1.448109154E1,3.108378087E0,-4.186617225E0,3.822061747E-1,5.228370652E0
1.449109554E1,2.660912308E0,-4.499187154E0,1.775296533E-1,5.230167888E0
1.450109954E1,2.376311365E0,-4.991029499E0,1.390491271E-1,5.529608108E0
1.451110354E1,2.616605616E0,-5.380918915E0,5.232942259E-1,6.006225950E0
1.452110754E1,3.001244232E0,-5.563427473E0,1.110949924E0,6.418208622E0
1.453111154E1,3.465471640E0,-5.695472220E0,1.660715372E0,6.870653029E0
1.454111554E1,3.931768962E0,-5.749813319E0,2.332017244E0,7.345574504E0
1.455112054E1,4.224091737E0,-5.446783122E0,3.058358080E0,7.540819022E0
1.456112454E1,4.169872261E0,-4.770637124E0,3.751491994E0,7.363457436E0
1.457112854E1,4.132874004E0,-3.989085416E0,4.287682254E0,7.167821782E0
1.458113254E1,4.164885755E0,-3.279719632E0,4.520276014E0,6.966758892E0
1.459113654E1,4.198978531E0,-2.723980960E0,4.553153154E0,6.766291201E0
1.460114054E1,4.177611635E0,-2.248349728E0,4.519593059E0,6.552422216E0
1.461114454E1,4.099249005E0,-1.844263272E0,4.473956711E0,6.342037376E0
1.462114854E1,4.254560409E0,-1.586978182E0,4.490123677E0,6.385999895E0
1.463115254E1,4.560084443E0,-1.433686407E0,4.738004690E0,6.730417170E0
1.464115654E1,4.774110078E0,-1.221568573E0,5.256736919E0,7.205389639E0
1.465116054E1,4.614363561E0,-7.971485710E-1,5.607434202E0,7.305553727E0
1.466116533E1,4.409267210E0,-3.687374058E-1,5.454044194E0,7.023119156E0
1.467116933E1,4.190275535E0,3.596242279E-2,4.957648914E0,6.491377752E0
1.468117333E1,3.790452869E0,4.086575165E-1,4.028704103E0,5.546619751E0
1.469117733E1,3.286850896E0,7.780036175E-1,2.998401901E0,4.516535442E0
1.470118133E1,2.826051126E0,1.042690698E0,2.173379068E0,3.714477814E0
1.471118533E1,2.413308452E0,1.290440733E0,1.679328521E0,3.210831552E0
1.472118933E1,2.291792201E0,1.494078789E0,1.485130211E0,3.112907751E0
1.473119333E1,2.550469514E0,1.645281354E0,1.577292269E0,3.420481893E0
1.474119733E1,2.815113325E0,1.919295913E0,1.839191982E0,3.871845423E0
1.475120133E1,3.088431480E0,2.251319236E0,2.071886607E0,4.347362582E0
1.476120533E1,3.142081438E0,2.442736612E0,2.318301138E0,4.605882986E0
1.477120933E1,2.942909485E0,2.525665040E0,2.318076605E0,4.518094651E0
1.478121333E1,2.743270925E0,2.551299526E0,2.109863103E0,4.299556599E0
1.479121833E1,2.542617872E0,2.664289659E0,1.866707225E0,4.128915220E0
1.480122233E1,2.229770200E0,2.849583246E0,1.502021647E0,3.917661145E0
1.481122633E1,2.027666454E0,3.062562813E0,1.240269869E0,3.876724336E0
1.482123033E1,2.028619550E0,3.416113538E0,1.168055001E0,4.141193242E0
1.483123433E1,2.150287828E0,3.782569068E0,1.199899523E0,4.513460464E0
1.484123833E1,2.588201011E0,4.079662587E0,1.308244920E0,5.005390701E0
1.485124233E1,3.012225303E0,4.280687522E0,1.696074362E0,5.502222749E0
1.486124633E1,3.003202465E0,4.507505111E0,2.226401035E0,5.856081363E0
1.487125033E1,2.810358953E0,4.746078526E0,2.576609491E0,6.087881018E0
1.488125433E1,2.773322105E0,5.040824972E0,2.628702920E0,6.325449466E0
1.489125833E1,2.703722112E0,5.447166699E0,2.545425121E0,6.592490224E0
1.490126333E1,2.525639897E0,5.955694367E0,2.411444360E0,6.903927591E0
1.491126733E1,2.559719224E0,6.443728128E0,2.247636952E0,7.288735594E0
1.492127133E1,2.820503873E0,6.851345717E0,2.019332417E0,7.679445530E0
1.493127533E1,3.107219169E0,7.273483112E0,1.738301200E0,8.098151555E0
1.494127933E1,3.111267196E0,7.600640675E0,1.456505166E0,8.340930976E0
1.495128333E1,2.640037163E0,7.739434864E0,1.223736867E0,8.268384374E0
1.496128733E1,2.039115302E0,7.754317197E0,9.724059963E-1,8.076694858E0
1.497129133E1,1.652798535E0,7.744908442E0,6.756574631E-1,7.948072898E0
1.498129533E1,1.568465313E0,7.717529440E0,3.795474458E-1,7.884440396E0
1.499129933E1,1.486980270E0,7.621560844E0,5.728283286E-2,7.765473671E0
1.500130333E1,1.313785157E0,7.484551810E0,-1.330592577E-1,7.600148157E0
1.501130733E1,7.786520737E-1,7.550819474E0,2.548799476E-2,7.590903993E0
1.502131233E1,2.461005360E-1,7.894941564E0,1.461815608E-1,7.900128912E0
1.503131633E1,1.823267090E-1,8.160061923E0,3.633752167E-1,8.170183301E0
1.504132033E1,2.286009890E-1,8.221162988E0,9.136800706E-1,8.274937496E0
1.505132433E1,-3.304863828E-1,8.204091457E0,1.537162828E0,8.353394965E0
1.506132833E1,-9.990991205E-1,8.059072323E0,1.788208355E0,8.315319289E0
1.507133233E1,-1.182681227E0,7.487224572E0,1.652583357E0,7.758111783E0
1.508133633E1,-1.304262382E0,6.236034443E0,1.270235095E0,6.496362300E0
1.509134033E1,-1.255479646E0,4.600394855E0,1.042991245E0,4.881361767E0
1.510134433E1,-8.113116968E-1,2.812273040E0,1.260490125E0,3.186838822E0
1.511134833E1,-1.588501382E-1,1.015268134E0,2.049144446E0,2.292377742E0
1.512135233E1,9.461519980E-1,-5.600483617E-1,3.051074204E0,3.243132987E0
1.513135733E1,2.353701936E0,-1.885291284E0,4.055992473E0,5.054236933E0
1.514136133E1,3.970867538E0,-2.998408917E0,4.729603996E0,6.864939839E0
1.515136533E1,6.003055059E0,-3.740702419E0,4.778824103E0,8.536198477E0
1.516136933E1,8.117857305E0,-4.161381226E0,4.300013155E0,1.008497963E1
1.517137333E1,1.045406379E1,-4.366670244E0,3.382418958E0,1.182353656E1
1.518137733E1,1.287763644E1,-4.365319245E0,2.421724935E0,1.381138241E1
1.519138133E1,1.525990203E1,-4.349793425E0,1.532722453E0,1.594159813E1
1.520138533E1,1.719966202E1,-4.464693259E0,8.359740829E-1,1.778934266E1
1.521138933E1,1.795959541E1,-4.830578393E0,2.116727515E-1,1.859909568E1
1.522139333E1,1.740700897E1,-5.507022892E0,-4.806410901E-1,1.826368742E1
1.523139733E1,1.598807216E1,-6.439530997E0,-1.108671849E0,1.727180258E1
1.524140133E1,1.421894561E1,-7.544721413E0,-1.615313205E0,1.617746804E1
1.525140633E1,1.274356797E1,-8.732278633E0,-1.888064765E0,1.556329025E1
1.526141033E1,1.138426224E1,-9.822914160E0,-1.933608727E0,1.516014222E1
1.527141433E1,9.657486489E0,-1.078425606E1,-1.849692997E0,1.459412855E1
1.528141833E1,7.370244007E0,-1.148676393E1,-1.688220967E0,1.375195740E1
1.529142233E1,4.910841368E0,-1.188899507E1,-2.007696458E0,1.301904035E1
1.530142633E1,2.588744218E0,-1.201323904E1,-2.324460011E0,1.250690303E1
1.531143033E1,6.694044507E-1,-1.182340334E1,-2.315531312E0,1.206659248E1
1.532143433E1,-4.944540042E-1,-1.122162311E1,-1.940249995E0,1.139885433E1
1.533143833E1,-8.781898105E-1,-1.003063884E1,-1.093409520E0,1.012820207E1
1.534144233E1,-9.642964929E-1,-8.547101406E0,-7.178005390E-3,8.601329066E0
1.535144633E1,-1.656068882E0,-7.029809756E0,1.132142645E0,7.310440227E0
1.536145033E1,-2.800486515E0,-5.869029860E0,2.120162973E0,6.839833861E0
1.537145533E1,-4.103064314E0,-4.922543986E0,3.113592049E0,7.124677642E0
1.538145933E1,-5.551151828E0,-3.627992660E0,4.029582939E0,7.759842526E0
1.539146333E1,-6.593635535E0,-1.987814755E0,4.814149472E0,8.402587233E0
1.540146733E1,-6.931913332E0,-5.433322685E-1,5.424051486E0,8.818558098E0
1.541147133E1,-6.995897074E0,7.950593609E-1,5.701825805E0,9.060105561E0
1.542147533E1,-7.016427818E0,2.274105251E0,5.208599131E0,9.029469471E0
1.543147933E1,-6.945154937E0,3.311738400E0,4.000296575E0,8.672090925E0
1.544148333E1,-6.992150763E0,3.457729926E0,2.031677059E0,8.060631502E0
1.545148733E1,-7.473457888E0,2.926912088E0,-1.822004092E-1,8.028236678E0
1.546149133E1,-8.530025198E0,2.040459431E0,-2.284862666E0,9.063410063E0
1.547149633E1,-9.821290973E0,1.039204588E0,-4.179647051E0,1.072413875E1
1.548150033E1,-1.084350706E1,2.443699063E-1,-5.452216355E0,1.213952327E1
1.549150433E1,-1.143508858E1,-1.931189881E-1,-5.703941912E0,1.278019949E1
1.550150833E1,-1.141244816E1,-3.448773307E-1,-4.990634227E0,1.246071199E1
1.551151233E1,-1.096430001E1,-2.662031172E-1,-3.663232074E0,1.156313141E1
1.552151633E1,-1.011528313E1,7.391209491E-2,-2.340989504E0,1.038290170E1
1.553152033E1,-9.239514651E0,5.821275211E-1,-1.321813384E0,9.351721449E0
1.554152433E1,-8.560013228E0,1.068721771E0,-5.028389114E-1,8.641113334E0
1.555152833E1,-8.207379346E0,1.455627792E0,3.688482106E-2,8.335543683E0
1.556153233E1,-8.057902295E0,1.901386184E0,3.312412584E-1,8.285817979E0
1.557153633E1,-7.971009747E0,2.282945364E0,4.721059459E-1,8.304921429E0
1.558154033E1,-8.005760919E0,2.560320318E0,5.505592078E-1,8.423215743E0
1.559154533E1,-8.296612535E0,2.671966176E0,5.353611614E-1,8.732685405E0
1.560154933E1,-8.735177098E0,2.722922907E0,3.833206175E-1,9.157759703E0
1.561155333E1,-8.943270147E0,2.747503432E0,2.003086513E-1,9.357936717E0
1.562155733E1,-8.806518391E0,2.690624934E0,-8.959630072E-2,9.208814050E0
1.563156133E1,-8.610227947E0,2.712107604E0,-3.930311251E-1,9.035819078E0
1.564156533E1,-8.661912071E0,2.829797145E0,-7.640936762E-1,9.144414237E0
1.565156933E1,-8.676007953E0,3.062374533E0,-1.352168620E0,9.299441476E0
1.566157358E1,-8.120033054E0,3.434037593E0,-1.777733068E0,8.993769280E0
1.567157758E1,-6.839348400E0,3.934728237E0,-2.002559679E0,8.140578487E0
1.568158158E1,-5.221852430E0,4.220136681E0,-2.054505758E0,7.021274123E0
1.569158658E1,-3.096142788E0,4.075263142E0,-1.972666959E0,5.485005448E0
1.570159058E1,-9.343295127E-1,3.664835966E0,-1.272236012E0,3.990310610E0
1.571159458E1,1.534875398E0,3.065906836E0,3.555107117E-2,3.428832322E0
1.572159858E1,4.122541389E0,2.326840997E0,8.422914147E-1,4.808221226E0
1.573160258E1,7.088156197E0,1.486494658E0,1.082014393E0,7.322730351E0
1.574160658E1,1.032048415E1,5.424059965E-1,1.158432823E0,1.039945017E1
1.575161058E1,1.340195159E1,-2.717007059E-1,1.428610439E0,1.348061777E1
1.576161458E1,1.610859030E1,-7.395141743E-1,1.852569827E0,1.623162276E1
1.577161858E1,1.803346796E1,-9.468619962E-1,2.489705833E0,1.822912915E1
1.578162258E1,1.914079729E1,-1.358661953E0,2.969700258E0,1.941739433E1
1.579162658E1,1.968925208E1,-2.043321497E0,2.779527755E0,1.998918670E1
1.580163058E1,2.008472501E1,-2.869977164E0,1.839698936E0,2.037197682E1
1.581163558E1,2.062019197E1,-3.743075804E0,7.864540136E-1,2.097192035E1
1.582163958E1,2.074299051E1,-4.381885868E0,2.375969303E-1,2.120209969E1
1.583164358E1,2.047124233E1,-4.275883158E0,2.331074381E-1,2.091433189E1
1.584164758E1,2.027695573E1,-3.828215942E0,6.019837884E-1,2.064394719E1
1.585165158E1,1.986711737E1,-3.550812922E0,1.151040773E0,2.021473521E1
1.586165558E1,1.894027755E1,-3.605439657E0,1.451092983E0,1.933491608E1
1.587165958E1,1.726671906E1,-3.928788051E0,1.309741223E0,1.775641813E1
1.588166358E1,1.497150215E1,-4.045204360E0,8.236902523E-1,1.553022925E1
1.589166758E1,1.205490046E1,-3.556451976E0,4.410356327E-1,1.257630662E1
1.590167158E1,8.916888680E0,-2.537662357E0,4.608669762E-1,9.282404448E0
1.591167558E1,6.096523971E0,-1.461936791E0,4.726082218E-1,6.287147385E0
1.592168058E1,3.558331856E0,-5.439653758E-1,4.647565806E-1,3.629548540E0
1.593168458E1,9.166533798E-1,4.205320421E-1,5.875188732E-1,1.167167102E0
1.594168858E1,-1.854164363E0,1.411878339E0,7.670342410E-1,2.453501061E0
1.595169258E1,-4.551056927E0,2.183436279E0,9.561904979E-1,5.137490964E0
1.596169658E1,-6.867167698E0,2.525618555E0,9.908270645E-1,7.383663017E0
1.597170058E1,-8.704423667E0,2.480016120E0,9.522284245E-1,9.100780752E0
1.598170458E1,-1.057621329E1,2.508177480E0,7.436664283E-1,1.089496588E1
1.599170858E1,-1.210437726E1,2.640958392E0,2.046747673E-1,1.239082329E1
1.600171258E1,-1.302434776E1,2.140594314E0,-5.517350829E-1,1.321060900E1
1.601171658E1,-1.356089295E1,1.229833320E0,-1.647216198E0,1.371581674E1
1.602172058E1,-1.399011483E1,2.629421251E-1,-2.772572492E0,1.426462792E1
1.603172558E1,-1.432861833E1,-6.226070642E-1,-3.642255188E0,1.479739726E1
1.604172958E1,-1.457810733E1,-1.309180183E0,-4.064727629E0,1.519069375E1
1.605173358E1,-1.438901773E1,-1.669889361E0,-3.989040100E0,1.502480624E1
1.606173758E1,-1.393713789E1,-1.587935371E0,-3.315787012E0,1.441387508E1
1.607174158E1,-1.304686656E1,-1.027208002E0,-2.485325099E0,1.332113824E1
1.608174558E1,-1.194619604E1,-2.082795026E-1,-1.641737942E0,1.206027710E1
1.609174958E1,-1.094717819E1,5.307850939E-1,-1.069576195E0,1.101210409E1
1.610175358E1,-9.865939143E0,1.130759706E0,-7.855804396E-1,9.961551551E0
1.611175758E1,-8.826362672E0,1.718152718E0,-5.414293653E-1,9.008322404E0
1.612176158E1,-8.090972393E0,2.233401321E0,-2.976548517E-1,8.398840047E0
1.613176558E1,-7.601628270E0,2.628354134E0,-1.700446326E-1,8.044993038E0
1.614177058E1,-7.374542879E0,2.839005340E0,-1.633612651E-1,7.903829509E0
1.615177458E1,-7.422966011E0,2.806998266E0,-1.317009312E-1,7.937065503E0
1.616177858E1,-7.668180694E0,2.574602434E0,-6.111276825E-2,8.089085710E0
1.617178258E1,-8.056763257E0,2.408464765E0,-1.043780802E-1,8.409698657E0
1.618178658E1,-8.389803119E0,2.397919750E0,-2.338658220E-1,8.728889318E0
1.619179058E1,-8.691243458E0,2.449573761E0,-4.938277674E-1,9.043339556E0
1.620179458E1,-8.843451744E0,2.388090873E0,-7.045146418E-1,9.187271502E0
1.621179858E1,-8.703330823E0,2.215708524E0,-6.747692710E-1,9.006255895E0
1.622180258E1,-8.349250925E0,2.150902956E0,-4.353561956E-1,8.632839020E0
1.623180658E1,-7.813356534E0,2.192630587E0,-1.487011260E-1,8.116543676E0
1.624181158E1,-7.375224080E0,2.224617488E0,1.002581137E-1,7.704083650E0
1.625181558E1,-6.780954012E0,2.314850989E0,2.614231646E-1,7.169952195E0
1.626181958E1,-5.318983453E0,2.831548678E0,3.023285677E-1,6.033295571E0
1.627182358E1,-4.076789850E0,3.490319675E0,3.380181813E-1,5.377434630E0
1.628182758E1,-2.985318756E0,3.882769294E0,2.494194521E-1,4.904103948E0
1.629183158E1,-1.703553536E0,3.551464594E0,3.157441635E-2,3.939034444E0
1.630183558E1,1.066824496E-2,2.487745262E0,-4.130297720E-2,2.488110977E0
1.631183958E1,2.092907932E0,1.027276122E0,7.763169151E-2,2.332720841E0
1.632184358E1,4.736308998E0,-6.467942910E-1,3.527783078E-1,4.793268020E0
1.633184758E1,8.238639731E0,-2.037195807E0,8.964489108E-1,8.533989221E0
1.634185158E1,1.155976759E1,-2.513074815E0,1.637503388E0,1.194257883E1
1.635185658E1,1.494527037E1,-2.278633043E0,2.134863458E0,1.526797030E1
1.636186058E1,1.859061172E1,-2.170978493E0,2.258542594E0,1.885271880E1
1.637186458E1,2.186059690E1,-2.191447403E0,2.057980759E0,2.206634142E1
1.638186858E1,2.395674419E1,-1.842574158E0,1.206874666E0,2.405778914E1
1.639187258E1,2.472233885E1,-1.587210317E0,-3.150842321E-1,2.477524072E1
1.640187658E1,2.393056972E1,-1.547012902E0,-1.454745154E0,2.402460612E1
1.641188058E1,2.191440298E1,-1.505859175E0,-1.471772246E0,2.201533065E1
1.642188458E1,1.973236477E1,-1.876033680E0,-6.724169362E-1,1.983274733E1
1.643188858E1,1.827173264E1,-2.770793476E0,9.879630983E-2,1.848088934E1
1.644189258E1,1.733416436E1,-3.634944707E0,7.910125029E-1,1.772884028E1
1.645189658E1,1.663854216E1,-4.163448217E0,1.667625904E0,1.723242184E1
1.646190058E1,1.615533060E1,-4.276464956E0,2.559104682E0,1.690656311E1
1.647190558E1,1.551567561E1,-3.918231196E0,3.130509213E0,1.630609743E1
1.648190958E1,1.453848893E1,-2.984400743E0,3.218539630E0,1.518661600E1
1.649191358E1,1.313757324E1,-1.782928904E0,2.787554812E0,1.354788279E1
1.650191758E1,1.127193489E1,-5.419360996E-1,2.071401873E0,1.147348755E1
1.651192158E1,9.094810097E0,8.938603485E-1,1.378137274E0,9.241959714E0
